time,seconds_elapsed,accel_z,accel_y,accel_x,gyro_x,gyro_y,gyro_z
1772808229838740000,0.088739990234375,0.3127291478544473,-0.0009848463188856,-0.1315113972974941,-0.0196363944560289,-0.0130894929170608,-0.0182822234928607
1772808229858790000,0.108789794921875,0.2943886045217513,-0.0560557588187977,-0.073674143623095,-0.0581760518252849,0.0251357965171337,-0.0432835817337036
1772808229878839000,0.128839111328125,0.1735620847046375,-0.0175814137947745,-0.040088977146428,-0.0531399324536323,0.0017532942583784,-0.0394129008054733
1772808229898889000,0.148888916015625,0.1007920320481061,-0.0134628634268883,-0.0094402294478379,-0.0313003100454807,-0.0494515858590602,-0.0229201018810272
1772808229918937900,0.168937744140625,0.1077069260030984,-0.0593477039031218,-0.0397093301790766,-0.0194761250168085,-0.0399590469896793,-0.0211274679750204
1772808229938987000,0.188987060546875,0.0140875620633363,-0.0489598640074022,0.0449557429325766,0.0108371870592236,-0.0371970348060131,-0.027177806943655
1772808229959037200,0.209037109375,0.0315156667262315,0.0003502473429311,-0.0287767980805598,0.0346331000328063,-0.0075385808013379,-0.0233443249017
1772808229979085800,0.2290859375,0.0594493833124637,-0.0760567644433118,-0.002347348577436,0.0256707146763801,-0.0250481087714433,-0.0080782808363437
1772808229999136000,0.249135986328125,-0.0830839414000511,-0.1118616345297545,0.126269825115893,0.0454111285507679,-0.0951092913746833,-0.0026682633906602
1772808230019185200,0.26918505859375,-0.0653185676068067,0.0098711864773184,0.0612735847986303,0.1011901870369911,-0.0920044407248497,0.0072329146787524
1772808230039234800,0.28923486328125,0.0394464597254991,0.0033740978092886,-0.0151142747625708,0.1293813288211822,-0.0353860482573509,0.0301317051053047
1772808230059284000,0.309283935546875,-0.0364583838254213,-0.0331245814939029,0.0578771472933702,0.1338585019111633,-0.058705661445856,0.0268025249242782
1772808230079333000,0.3293330078125,-0.0254448223799467,0.0439083527714945,0.0162331775235943,0.1528988480567932,-0.0625265017151832,0.0145653542131185
1772808230099382800,0.3493828125,0.1333656833946704,0.0810798350360244,-0.0976751056039705,0.1706901788711547,-0.0069514568895101,-0.0037743309512734
1772808230119432000,0.369431884765625,0.1323924544483423,0.0072772427276708,0.0146751344266347,0.1527630537748336,0.0078180423006415,-0.020592913031578
1772808230139481000,0.389481201171875,0.1622369730919599,0.0174997085943818,0.089651081363298,0.1142921522259712,-0.0274148434400558,-0.0045182239264249
1772808230159530800,0.40953076171875,0.2082715790361166,-0.0021343451475724,0.0386868917961604,0.0793163999915123,-0.0516038350760936,0.0348468720912933
1772808230179580000,0.429579833984375,0.1894394527941942,-0.0539639011060819,0.0099988679775968,0.0511710904538631,-0.0411033555865287,0.0486152805387973
1772808230199630000,0.449630126953125,0.1827221272379159,-0.1157213421652093,0.0244153514680452,0.0209705680608749,-0.0296862591058015,0.0410104915499687
1772808230219679000,0.469678955078125,0.2234142031103372,-0.1562359060462564,-0.0149519786066375,0.0130893150344491,-0.032033234834671,0.0354173555970191
1772808230239727900,0.489727783203125,0.1768319001555442,-0.1486075665922835,-0.0007589286085218,0.0246225707232952,-0.0178622137755155,-0.0029555042274296
1772808230259778000,0.509778076171875,0.255690332815051,-0.1600709541644901,0.0576180031668394,0.0093477349728345,-0.000256127648754,-0.0340092331171035
1772808230279827000,0.529826904296875,0.2688894216060638,-0.2976123158086091,0.0127977049158886,-0.0538340285420417,-0.017875500023365,-0.0348741896450519
1772808230299876900,0.549876953125,0.1799994242757558,-0.3720515437863766,0.0925093660044018,-0.0777649208903312,-0.0175296757370233,-0.0450215004384517
1772808230319926000,0.569926025390625,0.2809066071361303,-0.3512985690170899,0.0356697907309979,-0.0702093914151191,0.0300065875053405,-0.0674147307872772
1772808230339976200,0.58997607421875,0.0421954661726951,-0.4087576552951708,0.0702107966277748,-0.0479979403316974,-0.0406032018363475,-0.0860323905944824
1772808230360024800,0.61002490234375,0.0333253464967012,-0.3295226809408516,0.0504617016714066,-0.0253489390015602,-0.0781819522380828,-0.0999132245779037
1772808230380074000,0.630073974609375,0.0667290189266204,-0.278232346425578,-0.0436414637299254,-0.0466924980282783,-0.1293751299381256,-0.1065150871872901
1772808230400124200,0.650124267578125,-0.1309434246838092,-0.2735069253388792,0.194285504585877,-0.0494815595448017,-0.2629416286945343,-0.0829503908753395
1772808230420173000,0.670173095703125,0.1764987226784229,-0.1354632584621198,0.1912495709560811,-0.045356161892414,-0.1622291952371597,-0.0259667728096246
1772808230440223000,0.690222900390625,0.3076356241077184,-0.1707342226012609,8.65275059826e-05,-0.1881513595581054,-0.0029535428620874,0.0400027111172676
1772808230460272000,0.710272216796875,-0.0554132596641778,-0.391782299368456,0.0318970741091179,-0.3991028666496277,0.077821135520935,0.0930182263255119
1772808230480320800,0.73032080078125,0.024800679257512,-0.3789183608159422,0.0002959096400765,-0.4908623099327087,0.1919587254524231,0.1080943048000335
1772808230500370400,0.750370361328125,0.1208639292180538,-0.3833346794208511,-0.0225988674974534,-0.4317911565303802,0.2510781288146972,0.0827084258198738
1772808230520419600,0.770419677734375,0.5267161819279194,-0.4644478687372058,-0.0189629495473578,-0.2889041900634765,0.3147513568401336,0.0299937184900045
1772808230540469800,0.7904697265625,0.8890513644725084,-0.4334974712109193,0.0254915841311216,-0.1163822636008262,0.3130107820034027,-0.0582001842558383
1772808230560518400,0.810518310546875,1.3938181649208068,-0.2614215882097371,-0.0754491904716007,0.073400117456913,0.3390491902828216,-0.1792399585247039
1772808230580567600,0.830567626953125,2.340434414133429,-0.2227410713554359,-0.1872364993898198,0.1762619614601135,0.4975015223026275,-0.2741107940673828
1772808230600617700,0.85061767578125,3.122715256670117,-0.2121175869397819,-0.361990679955855,0.1831864863634109,0.621642529964447,-0.3042006194591522
1772808230620666600,0.87066650390625,3.4880876149535176,-0.1920205918611958,-0.4077329884225502,0.1193446516990661,0.6179637312889099,-0.2709567546844482
1772808230640715500,0.890715576171875,3.7391286606580016,-0.3578613615987822,-0.2191505543164909,0.0919228792190551,0.5821590423583984,-0.1572650223970413
1772808230660765700,0.910765625,3.522315463247895,-0.6120088854186236,-0.4353904088180512,0.0979615151882171,0.5127164125442505,-0.0306004621088504
1772808230680814600,0.930814697265625,2.885731962412596,-0.8294009056299925,-0.4522424671586603,0.1041883304715156,0.6592991352081299,-0.049888752400875
1772808230700864500,0.950864501953125,1.1459610099494455,-0.8311610471703111,0.0618355477966368,0.1356519609689712,0.662699282169342,-0.1120774298906326
1772808230720913700,0.97091357421875,-1.5036919135689737,-1.0382830908451228,0.7284148123145103,0.3630350530147552,0.2846006453037262,-0.0270921494811773
1772808230740962600,0.990962646484375,-4.409372439032793,-0.7612044444993138,1.0589760425228625,0.7445976138114929,-0.2540405690670013,0.1331118047237396
1772808230761012500,1.011012451171875,-6.845600638535618,-0.0742033003300428,0.9315120574526488,1.2263227701187134,-0.7593987584114075,0.2490753680467605
1772808230781061600,1.0310615234375,-8.817378850409389,0.6208627115469425,0.6282698459982872,1.741013765335083,-1.1030397415161133,0.2814986705780029
1772808230801111800,1.05111181640625,-9.222045692726969,1.098957705103606,0.1217979221325367,2.0169951915740967,-0.9486733675003052,0.1824316829442978
1772808230821160400,1.071160400390625,-8.777161990833282,0.8548362295292318,-0.4067812771882861,1.734306573867798,-0.4963646233081817,-0.0373023450374603
1772808230841209600,1.091209716796875,-8.88705093705058,0.2769920640408992,-0.0948627150643616,1.1140689849853516,-0.3537434637546539,-0.2629091739654541
1772808230861259800,1.111259765625,-7.942492204889654,0.115648094265908,0.0010651084808632,0.6228131651878357,-0.2247800976037979,-0.4200206995010376
1772808230881308700,1.13130859375,-6.596719401213527,0.2317639521740376,-0.0026074425520375,0.2736104130744934,-0.1868287175893783,-0.4697967767715454
1772808230901358600,1.151358642578125,-4.055409948036075,0.3315618586182594,0.1565888476697728,-0.4111288487911224,-0.3148361146450043,-0.3719444274902344
1772808230921407700,1.17140771484375,-2.978869680315256,-0.9364673417724668,0.4841618193149566,-1.7148303985595703,-0.8899168372154236,-0.3489941954612732
1772808230941456600,1.19145654296875,-3.3002018213421103,-2.079639305525273,1.133125566839054,-2.348167657852173,-1.150471568107605,-0.2625162005424499
1772808230961506600,1.211506591796875,-2.095242094457149,-0.6661111355494708,-0.5080779708229005,-1.7983042001724243,-0.6208555102348328,-0.1966528892517089
1772808230981555500,1.231555419921875,-0.2931137622803449,-0.593461567467451,-1.0972438869230448,-0.6792078614234924,0.0055501442402601,-0.0387423709034919
1772808231001605600,1.251605712890625,2.024825326928496,-0.8586047882825135,-1.3023998181566596,0.1367733180522918,0.2290255725383758,0.0121411588042974
1772808231021654500,1.271654541015625,4.102303801158071,-1.4713950333371757,-0.7250862524136901,0.3099216222763061,0.2976146936416626,-0.0981262102723121
1772808231041703400,1.291703369140625,6.2743520719200365,-1.389083683744818,-0.3088733126765117,0.0463886149227619,0.6020219922065735,-0.3935753107070923
1772808231061753600,1.311753662109375,7.048573526641726,-1.0397560129418968,-0.0124581707632169,-0.1705892980098724,0.75018709897995,-0.528778612613678
1772808231081802500,1.331802490234375,6.409924909970164,-1.3737936140239235,1.3338418351247905,0.0604591742157936,0.4736582338809967,-0.2380305528640747
1772808231101852700,1.351852783203125,6.513282408592104,-0.5938740937910973,0.7790327274609357,0.7379580736160278,0.1993524134159088,0.2706391215324402
1772808231121901600,1.371901611328125,6.682779728075862,0.0955300929319113,0.0214460715999826,1.4765084981918335,-0.0884265974164009,0.6427075862884521
1772808231141950700,1.39195068359375,6.6712289910137645,0.6479938065133989,-0.4325473308792337,1.89613139629364,-0.4134813845157623,0.7122827172279358
1772808231162000600,1.412000732421875,6.704290133616328,0.6796681709326803,-0.5151610609516502,2.00954270362854,-0.6562133431434631,0.5276446342468262
1772808231182049500,1.432049560546875,6.603040420928597,1.268991469551623,-0.4190298968540504,1.996987223625183,-0.7068874835968018,0.1803190261125564
1772808231202099500,1.452099365234375,6.979986897149682,2.424300738082826,-0.6891293883696198,1.9385446310043333,-0.4086937010288238,-0.1651102006435394
1772808231222148600,1.472148681640625,6.816583802887797,3.3875004578277466,-0.8186489907953888,1.833255410194397,-0.0212948024272918,-0.3759641945362091
1772808231242197500,1.492197509765625,6.257013399106263,3.8564752294048654,-0.7646728512622416,1.727910041809082,0.3403728604316711,-0.4919247031211853
1772808231262247700,1.51224755859375,5.4788943524241445,4.084739795155823,-0.4801805676590651,1.7241910696029663,0.4372126162052154,-0.5203333497047424
1772808231282296600,1.532296630859375,4.323897803103924,4.000899190169573,-0.3629776816992089,1.649232029914856,0.2178650051355362,-0.4507012665271759
1772808231302346500,1.552346435546875,1.679682102203369,2.339634788188338,0.4582957758482545,1.5223692655563354,-0.4192827939987182,-0.0992088168859481
1772808231322395600,1.572395751953125,-1.710350212189555,0.1545984410375356,0.4878186978546902,1.228543043136597,-1.3054025173187256,0.2737216353416443
1772808231342444500,1.592444580078125,-5.529506349286437,-0.3916144685208797,-0.5243619834845885,0.8099669218063354,-1.6245280504226685,0.127145916223526
1772808231362494500,1.612494384765625,-7.011398518979549,-1.848782239063084,-0.8894026621282101,0.7144114375114441,-0.6407894492149353,-0.2585931420326233
1772808231382543600,1.632543701171875,-8.175150037163496,-2.1015213208571075,-1.0736281066011637,1.2921085357666016,0.5904842615127563,-0.3190584182739258
1772808231402593500,1.652593505859375,-7.807141485157609,-1.733696600985527,-1.7539181357592344,1.6226506233215332,1.2247467041015625,-0.117234855890274
1772808231422642400,1.672642333984375,-8.000586666461825,-3.450888641893864,-0.5366259833825752,1.1640180349349976,0.6198630332946777,0.1302781552076339
1772808231442691600,1.692691650390625,-7.275068744632601,-6.108330319592357,2.0555456054933368,0.482643187046051,-0.05885811150074,0.3471335768699646
1772808231462741500,1.712741455078125,-5.663147927013039,-5.922291030630469,3.0431124353840944,-0.170595645904541,-0.6882607340812683,0.2803557515144348
1772808231482791200,1.732791259765625,-5.217173507273197,-4.597523605582118,2.5745795623555776,-0.783452570438385,-1.1471526622772217,0.2427666783332824
1772808231502840300,1.75284033203125,-4.521315979692339,-3.377524130475521,0.8160534944094717,-1.1665518283843994,-1.106047749519348,0.4221022427082062
1772808231522890000,1.772889892578125,-3.021083851188421,-1.1368225947260855,-0.9268762143455446,-1.2570555210113523,-0.6867614388465881,0.4714779555797577
1772808231542939100,1.792939208984375,0.2981073327839374,-0.4713923541128635,-1.965406338754296,-1.5076075792312622,0.0779172852635383,0.1536140292882919
1772808231562989300,1.8129892578125,1.8189193079799413,-0.8109159853905439,-2.090824862536788,-2.206293821334839,0.1253638714551925,-0.6606139540672302
1772808231583038200,1.8330380859375,1.987432292601466,0.5479793347090482,-1.977948717202246,-2.6528711318969727,-0.5439994931221008,-1.6150022745132446
1772808231603087000,1.853087158203125,1.6282652186989783,2.0286483923479914,-0.0914002996508032,-2.5296804904937744,-1.026885986328125,-2.1235711574554443
1772808231623137300,1.87313720703125,1.7738965094268322,2.1809356338337063,1.6479079306714235,-1.957608938217163,-0.5657157301902771,-1.852630853652954
1772808231643186200,1.893186279296875,1.9113053307324648,1.8256947934642436,2.318414890027046,-1.27947199344635,0.0976632162928581,-1.0567514896392822
1772808231663236000,1.913236083984375,3.221533358296752,1.0711617895528671,2.1203391263127327,-0.6809908747673035,0.4425072073936462,-0.1729118376970291
1772808231683285200,1.93328515625,4.042719393289089,0.7414265618398785,1.5689657652512192,-0.225685566663742,0.2984305322170257,0.2084637284278869
1772808231703334100,1.953334228515625,4.793759878909587,0.5785162195309996,1.8074794839464128,0.2738221883773803,0.1730552464723587,0.2589269280433655
1772808231723384000,1.973384033203125,5.417752193719148,0.379144570787251,1.390188283985853,0.6935189366340637,0.31505087018013,0.3571272790431976
1772808231743433200,1.99343310546875,6.027951545497775,0.5819082000568508,0.607978716587089,0.8147204518318176,0.6079976558685303,0.4860496520996094
1772808231763483400,2.0134833984375,6.319850086769462,0.8954732142135501,-0.287731521252729,0.7655131220817566,0.9317804574966432,0.5597571730613708
1772808231783532000,2.033531982421875,6.323770475083589,1.1444634648680687,-0.5883824010396376,0.8358352184295654,0.9568260312080384,0.4487801492214203
1772808231803581200,2.053581298828125,5.567094029402733,1.624934612971544,-1.0648965186130257,1.0579285621643066,0.7585963010787964,0.1732546538114547
1772808231823631400,2.07363134765625,4.209098288491368,2.074060482479632,-1.7802660444587468,1.3332228660583496,0.3441251218318939,-0.1353992223739624
1772808231843680300,2.09368017578125,1.9332979668319223,2.188455507944524,-1.7055543562151492,1.9223943948745728,0.2635475397109985,-0.3816205859184265
1772808231863729200,2.113729248046875,-0.56479836756289,2.4682339878335595,-1.611834454510361,2.564386367797852,0.5573066473007202,-0.3628014326095581
1772808231883779300,2.133779296875,-1.6698732403725385,0.623430589273572,-1.4214384316436943,2.863074779510498,1.3976448774337769,0.1069561466574668
1772808231903828200,2.153828125,-4.182620031410456,-1.4478998837202786,-1.5039391663283108,3.1651084423065186,1.87972104549408,0.6957191824913025
1772808231923878100,2.173878173828125,-5.488654698938131,-2.615937116399407,-0.148165850706771,3.3962182998657227,0.6402042508125305,0.9594009518623352
1772808231943927300,2.19392724609375,-5.794846553978323,-2.7827988266825674,0.0854540315322578,3.0373377799987797,-0.5715380907058716,0.6367063522338867
1772808231963976200,2.21397607421875,-5.456102674901485,-4.906669634252786,1.1520505589962005,2.4278697967529297,-0.8137658834457397,0.2130506783723831
1772808231984026000,2.234026123046875,-6.739081461012363,-3.095380675020814,0.0271386937510222,2.08742904663086,-0.5456209778785706,-0.0637189671397209
1772808232004075300,2.2540751953125,-5.285349217876791,-2.8150468993365765,-0.8745400240391492,1.5367037057876587,0.201430544257164,-0.2629434764385223
1772808232024125200,2.274125244140625,-5.005730896985531,-5.181961324116587,1.458729320770502,0.3568902909755707,0.159894049167633,-0.2223337441682815
1772808232044174000,2.294174072265625,-4.58450104240179,-5.3263820700109,2.235036495725065,-0.4613118171691894,0.7047839760780334,-0.0721881315112114
1772808232064223200,2.31422314453125,-1.230049744477868,-4.07744525423348,2.7762822843953967,-0.8256072998046875,1.3095163106918335,0.172052577137947
1772808232084273200,2.334273193359375,0.7089817975699901,-3.674489307487011,3.412236839677393,-1.1771525144577026,0.9775120615959167,0.350614845752716
1772808232104322300,2.354322265625,2.7647417764663693,-2.242115494200587,2.0815251192718742,-1.3128156661987305,0.4223131835460663,0.2175875604152679
1772808232124371200,2.37437109375,2.0480963124006983,-0.9495213230043648,0.1988636261563748,-1.3100377321243286,-1.2312133312225342,-0.2692548334598541
1772808232144421000,2.394421142578125,0.0594184036523103,1.812034224641323,-2.435392771591991,-1.7340779304504397,-1.9939180612564087,-1.0261770486831665
1772808232164470300,2.41447021484375,1.0394856715679168,1.276221713066101,-1.429832896631956,-1.8147255182266235,-0.6295887231826782,-1.0960849523544312
1772808232184520200,2.434520263671875,0.8727461263597011,2.333127890512347,-0.854729919610545,-1.4236149787902832,0.7368514537811279,-0.4463492929935455
1772808232204569000,2.454569091796875,1.8280057007551191,2.2825801910579204,-0.1232031127553433,-0.6287415027618408,0.7366433143615723,0.3512343764305115
1772808232224618200,2.4746181640625,3.44707112943232,2.841846058934927,0.0045553982820361,0.1250902414321899,-0.1735182255506515,0.4202468991279602
1772808232244668200,2.494668212890625,3.911730375897884,2.826853072464466,0.649827890072763,0.544369101524353,-1.4663528203964231,0.0588551759719848
1772808232264717000,2.514717041015625,4.560284300512075,2.880997919628024,1.0734911092832684,0.6099494099617004,-1.8176350593566892,-0.0119371600449085
1772808232284766200,2.53476611328125,4.949807349711656,2.922223663985729,0.3079555037118494,0.5177964568138123,-0.8922437429428101,0.1178221330046653
1772808232304816000,2.554816162109375,5.136280938437581,3.259373551869392,-0.5902297459393739,0.6707704663276672,0.2351459264755249,0.158162459731102
1772808232324865000,2.574864990234375,4.582321360275149,3.770681152263284,-0.6160854141425341,0.8847683072090149,0.3061702847480774,-0.0130603108555078
1772808232344915200,2.594915283203125,4.662821130400896,4.285704558309912,-0.9092894119895994,1.0012797117233276,0.2292296886444091,-0.2764892876148224
1772808232364964400,2.61496435546875,5.089288885638117,4.9201089615404605,-1.2538215190790594,0.9640329480171204,0.3349511623382568,-0.4906268417835235
1772808232385013000,2.635012939453125,4.861246438205242,5.527017455080151,-1.3444047301933169,0.9045324325561525,0.3910695612430572,-0.4815177321434021
1772808232405063200,2.655063232421875,4.805245149520039,6.030919747653603,-1.2779397690303622,0.8394539952278137,0.4995851516723633,-0.3281327784061432
1772808232425112300,2.6751123046875,4.524381797003746,5.923473518413305,-1.5108093443587425,0.7249117493629456,0.6479517817497253,-0.3421077728271484
1772808232445161200,2.6951611328125,3.336585386365652,5.078675721687079,-1.2927861866369843,0.6130731701850891,0.2955850958824157,-0.3343321681022644
1772808232465211100,2.715211181640625,1.600113475447893,2.892203788775205,-0.727871645348519,0.4468936622142792,0.1317434906959533,-0.1777438372373581
1772808232485260000,2.735260009765625,-0.2122363910138607,-0.7654051110595465,-0.0452915324918925,-0.040394838899374,-0.2835913002490997,0.1153912544250488
1772808232505310000,2.75531005859375,-5.35353778796196,-4.71816658552587,-0.5903723692804574,-0.9543238282203674,-1.278264045715332,0.1387780010700225
1772808232525358800,2.77535888671875,-9.793456756427885,-9.58954044999182,-1.804471388171613,-1.0127670764923096,-0.5598477721214294,0.0093382829800248
1772808232545408000,2.795407958984375,-13.919537739014626,-12.239820565497874,-1.980251002795249,0.0305791441351175,0.2696461975574493,0.5129697322845459
1772808232565458200,2.815458251953125,-16.111438711237906,-13.985183054357766,-1.3231906772509217,1.0630725622177124,-0.4004037380218506,0.959266722202301
1772808232585506800,2.8355068359375,-14.027014947915076,-14.1077654779315,-0.0870561694992706,1.7794959545135498,-0.8369824886322021,0.7276263236999512
1772808232605556000,2.855555908203125,-7.510197350934147,-11.848543950629232,1.4747116105392577,1.2270063161849976,-0.1630093157291412,0.5789262652397156
1772808232625606100,2.875606201171875,-2.2229624654412268,-7.34500854229927,2.627019066905975,-0.2151781320571899,0.2000767886638641,0.5798158645629883
1772808232645655000,2.895655029296875,0.5531354022979736,-2.9887171205908056,2.184303941223025,-1.118367075920105,-0.1908965706825256,0.2822065651416778
1772808232665705000,2.915705078125,-1.431964647963643,0.6705997522056102,0.3571115296121686,-1.4391494989395142,-1.7644480466842651,-0.3453395962715149
1772808232685754000,2.935754150390625,-3.0672137342005965,2.5630542519956827,1.1466416856899857,-1.0873925685882568,-1.94214391708374,-0.3371998965740204
1772808232705803000,2.955802978515625,-2.5160709670245645,3.462303185355663,1.6560548506394028,-0.3907471001148224,-0.3847067654132843,0.2130071818828582
1772808232725853000,2.97585302734375,0.9861123932987452,4.015931924128532,1.1372020224977284,-0.0372772254049778,0.8630052208900452,0.4700698852539062
1772808232745902000,2.995902099609375,4.419202928173542,4.5959611785709855,0.8504878250613808,-0.129250094294548,0.7831931710243225,0.3248958587646484
1772808232765951000,3.015950927734375,6.371884809911251,5.414105946171284,0.4190123977299779,-0.0846566706895828,0.3548588454723358,0.0370748974382877
1772808232786001000,3.0360009765625,6.791854435300826,4.699499878978729,0.8022702490549534,0.1740208268165588,-0.0262127462774515,-0.0982235744595527
1772808232806050000,3.056050048828125,7.482715469768643,4.6152509854525325,1.127636540968716,0.4848130941390991,-0.1685423105955124,0.0720191895961761
1772808232826099000,3.076098876953125,7.282465284624696,4.912696054935455,0.8650618554674089,0.5388912558555603,-0.3662933707237243,0.0950069800019264
1772808232846148900,3.09614892578125,6.741510149464011,5.228963313788175,-0.3771194216351956,0.3197540938854217,-0.6923864483833313,-0.4499533772468567
1772808232866198000,3.116197998046875,6.015359774950146,5.464086659392714,-0.7539744932457805,0.0380760617554187,-0.3873969614505768,-0.8741596341133118
1772808232886248200,3.136248291015625,4.9279877320915455,6.100649117439985,-0.518269438763149,0.0914977937936782,0.2116154879331588,-0.8557772040367126
1772808232906297000,3.156297119140625,3.943743470752239,6.545366815117001,-0.2192597137793898,0.4018497467041015,0.4742725193500519,-0.7652317881584167
1772808232926346000,3.176345947265625,4.1866836275875565,7.0373588896662,-0.0887567263394594,0.7033686637878418,0.6170565485954285,-0.5795108079910278
1772808232946396200,3.196396240234375,4.848427288642525,7.38202865166068,0.0352609519184916,0.832256555557251,0.445568174123764,-0.5493795871734619
1772808232966445000,3.216445068359375,5.122470439749955,7.193619126436114,0.0363003985184244,0.6777461767196655,0.2887545526027679,-0.6208829879760742
1772808232986494000,3.236493896484375,5.06845184931457,6.403834191879629,-0.0736573568850755,0.3763704299926758,0.4674683511257171,-0.5809721946716309
1772808233006544100,3.256544189453125,4.247674979645014,4.832076457822323,0.1185631779950112,0.2032468467950821,0.6835452318191528,-0.4322144091129303
1772808233026593000,3.276593017578125,3.2061008113652467,1.6565139925837515,0.7913007459469139,-0.2708670794963836,0.4834353029727936,-0.0045447149313986
1772808233046642200,3.29664208984375,0.1052875899016857,-3.249938784047961,0.5377649242846295,-1.2961182594299316,-0.9305731058120728,0.0002982234582304
1772808233066692000,3.316692138671875,-7.115683653840423,-7.733822566446661,-1.6835532445482908,-2.0422918796539307,-1.3686879873275757,-0.3774806261062622
1772808233086741000,3.336740966796875,-13.067562013483046,-11.202613360255956,-2.3560978472113607,-1.4015508890151978,0.3328783512115478,-0.5111373662948608
1772808233106791000,3.356791015625,-16.381345200932024,-12.600685675489904,-3.481059908273816,-0.3849406838417053,1.9509161710739136,0.0168657843023538
1772808233126840000,3.376840087890625,-16.319226890671253,-13.843477412641048,-0.7768664893377571,0.8199821710586548,1.722010612487793,0.2063412070274353
1772808233146889000,3.396888916015625,-14.229446568751335,-14.28434018845558,2.3758336442947385,1.5469106435775757,0.1076300889253616,0.3276301920413971
1772808233166939100,3.416939208984375,-9.116227356949448,-13.587973542308806,4.648810725226998,1.4238513708114624,-0.3410584628582001,0.4959802031517029
1772808233186988000,3.436988037109375,-4.875153383004665,-10.572227545017004,3.94727719783634,0.889285683631897,-0.0855013653635978,0.6267969012260437
1772808233207037000,3.457036865234375,-2.824762237665057,-6.736291538032889,0.749820003914833,-0.0173929333686828,-0.5220839381217957,0.1943015903234481
1772808233227087000,3.477087158203125,-3.337665582817793,-4.518949250560999,0.0438967171326279,-0.2965415716171264,-1.157270908355713,-0.4033045470714569
1772808233247136000,3.497135986328125,-4.18766445531845,-0.8346195170611143,0.5454849606100469,0.2680937945842743,-1.2504034042358398,-0.0998503714799881
1772808233267185000,3.517184814453125,-2.3060569282352925,3.0333155562520027,1.1859944757826626,0.6693642735481262,-0.4741184413433075,0.5189630389213562
1772808233287235000,3.537235107421875,1.2984510805308818,5.669392958882451,0.1996003429330885,0.4544286429882049,0.3827462792396545,0.5557608604431152
1772808233307284000,3.557283935546875,4.815974633327127,7.198974515989423,-0.6943488035183399,-0.0508995093405246,0.9317807555198668,0.1527308523654937
1772808233327332900,3.577332763671875,7.010576681202649,7.659883470010757,0.0537420750489458,-0.1009478196501731,0.9394728541374208,0.079701192677021
1772808233347383000,3.597383056640625,6.980899920341372,7.947100575467943,1.197174333705753,0.2736443877220154,0.2558711171150207,0.3951632976531982
1772808233367432000,3.617431884765625,7.660808183640241,7.420209621495008,1.1021123697422444,0.5105792284011841,0.0987576693296432,0.5352053642272949
1772808233387481000,3.637481201171875,8.525034318935871,7.052616664552688,0.6304013050690292,0.3318336904048919,0.1689487248659134,0.3192372918128967
1772808233407531000,3.657531005859375,8.123579424402116,7.203220482996105,-0.3283438464198261,-0.0252483282238245,-0.1805709898471832,0.1553927809000015
1772808233427580000,3.677579833984375,6.600077479469776,7.154768879038095,-0.6284248904295265,-0.1307995468378067,-0.3823579847812652,-0.0659800171852111
1772808233447629000,3.697629150390625,5.431596010154485,7.3608040773242704,-1.0428449188679456,-0.0086772218346595,-0.1119512170553207,-0.1337685585021972
1772808233467679000,3.717678955078125,4.611318906700611,7.866214436373114,-0.7004286348886788,0.1372887641191482,0.1426055282354354,-0.0599519945681095
1772808233487728400,3.737728271484375,4.696971237283945,8.319486611905694,-1.080410606348142,0.2311261892318725,0.262416660785675,-0.0411648899316787
1772808233507777300,3.75777734375,5.2140638508200645,8.150812299242615,-1.02368100338839,0.0903582274913787,0.2556016147136688,-0.260829746723175
1772808233527827200,3.7778271484375,5.292239561912417,7.758138092535733,-0.8101988500971347,-0.0442498736083507,0.2299789488315582,-0.3977664411067962
1772808233547876400,3.79787646484375,4.820777649694681,7.124009583637118,-0.4778995805824175,0.0008267455268651,0.4672662019729614,-0.3022642731666565
1772808233567925200,3.81792529296875,4.6082127573788165,6.054607497233152,-0.4644048698456958,-0.031748492270708,0.6362074017524719,-0.0686186328530311
1772808233587975200,3.83797509765625,3.942992944645881,3.516746138682961,-0.5322108703540638,-0.0998976528644561,0.353892982006073,0.0548966228961944
1772808233608024300,3.8580244140625,2.986027150854468,-1.093963696208596,0.0532898012368008,-0.4573644995689392,-0.10620579123497,0.0640209540724754
1772808233628074500,3.878074462890625,0.5598883836895228,-6.493021126329898,0.7517498029336332,-1.505800485610962,-1.3886610269546509,-0.187201589345932
1772808233648123400,3.898123291015625,-7.808436201143264,-10.242187781399489,-1.4510934190645812,-2.4527883529663086,-1.9155229330062864,-0.6696402430534363
1772808233668172300,3.91817236328125,-14.420724342888592,-13.238789517760276,-1.8621087536260488,-1.547192931175232,-0.3213976323604584,-0.4698635935783386
1772808233688222500,3.938222412109375,-17.439528558707238,-14.509847564452883,-1.57542195565328,0.0385876111686229,0.6306880116462708,0.2057904303073883
1772808233708271400,3.958271240234375,-16.92008266004324,-15.013851563835145,-0.0170119616100564,1.00254225730896,-0.0598863214254379,0.4414095282554626
1772808233728320300,3.9783203125,-13.128424770724772,-15.120192462182043,1.1821942067168651,1.2769908905029297,-0.7536574602127075,0.5275828838348389
1772808233748370400,3.998370361328125,-8.11128459097445,-13.391529763710498,1.4880617982387545,0.7305083870887756,-0.7484550476074219,0.237405464053154
1772808233768419300,4.01841943359375,-5.107271117052435,-9.991499202394484,0.7067666057385504,-0.5155616998672485,-0.726260781288147,-0.3416548669338226
1772808233788468500,4.038468505859375,-5.314187774348259,-6.421054791271686,0.3238540607199072,-0.7295066714286804,-0.6315467357635498,-0.5600183606147766
1772808233808518400,4.058518310546875,-5.097972542831301,-2.6186089659571645,0.6192785110954195,-0.1052824556827545,-0.8160395622253418,-0.4612864851951599
1772808233828567300,4.0785673828125,-4.215328707313537,1.069541787135601,1.380574652466178,0.9172200560569764,-1.099367380142212,-0.0745051950216293
1772808233848616400,4.098616455078125,-0.2074123318582773,4.148676260754466,1.7377505525514485,1.2941169738769531,-0.2553038895130157,0.3897312581539154
1772808233868666400,4.118666259765625,4.384079007822275,5.911003912940621,1.3332806941106914,0.4983695745468139,0.56658935546875,0.3379881680011749
1772808233888715300,4.13871533203125,6.219812087959051,7.04628979961872,0.4369095812093466,-0.0560412444174289,0.612068772315979,-0.0070274076424539
1772808233908764400,4.158764404296875,6.727904233437776,7.421152455303073,0.9891284531842915,0.0427378229796886,0.3993012011051178,-0.0314215049147605
1772808233928814300,4.178814453125,6.801608936595916,7.281749829831719,1.7864571541838348,0.4487371742725372,0.0826564505696296,0.2938415110111236
1772808233948863200,4.19886328125,6.742066029781102,7.121863219258189,1.8101443192414937,0.6396027207374573,-0.5768749117851257,0.4034745395183563
1772808233968912400,4.218912353515625,6.418561220890283,7.063563005980849,0.8204840242028236,0.5597540736198425,-0.9168309569358826,0.0841861888766288
1772808233988962300,4.23896240234375,6.1477417080044745,7.305742115315795,0.1271031158685684,0.2243781387805938,-0.5767430663108826,-0.3236044347286224
1772808234009011200,4.25901123046875,5.389156213831901,7.682527848017215,-0.024962153429538,-0.066573217511177,0.0245961863547563,-0.5627748370170593
1772808234029060400,4.279060302734375,4.915854811227321,8.220057684904337,0.1123807995656505,-0.1136470884084701,0.4708644449710846,-0.569970965385437
1772808234049109200,4.299109130859375,4.896231242346763,8.702977979725599,0.0517856437515467,-0.0842796936631202,0.6553863883018494,-0.4702777862548828
1772808234069159200,4.3191591796875,5.214016504547,8.946721854159236,0.0893617430279031,0.0023655341938138,0.5298973917961121,-0.3910273313522339
1772808234089208300,4.339208251953125,5.687773834225535,8.790112657821178,0.0267757878559175,-0.0789986699819564,0.3987699449062347,-0.4536468088626861
1772808234109258500,4.359258544921875,6.090694709658623,8.332654136514662,0.1527361725633032,-0.2691932022571563,0.4425745606422424,-0.4293836951255798
1772808234129307400,4.379307373046875,5.63662641531229,7.365516492798924,0.0024940087728202,-0.2324694097042083,0.5082053542137146,-0.2213538587093353
1772808234149356300,4.399356201171875,4.929274264770746,5.416866058534383,-0.1606305973412469,-0.1787457168102264,0.3766357600688934,0.0453418120741844
1772808234169405200,4.4194052734375,4.182617108801007,1.986766522169113,-0.4074072270669043,-0.4814360439777374,-0.0073819193057715,0.1925044953823089
1772808234189455400,4.439455322265625,1.6218705492258072,-3.0353502769500014,-0.8014685772832483,-1.1855446100234983,-0.9520055055618286,0.1342288106679916
1772808234209504300,4.459504150390625,-5.460832626032829,-8.72339708289802,-2.0314391921103,-2.004587888717652,-2.4038009643554688,-0.1669264584779739
1772808234229553200,4.47955322265625,-13.75552089676857,-13.460851721739768,-4.011022524777054,-1.6612534523010254,-1.6361924409866333,-0.6410791277885437
1772808234249603300,4.499603271484375,-16.445872910422086,-14.378665654838084,-5.081161693283915,-0.0374085716903209,1.2365567684173584,-0.5715318322181702
1772808234269652500,4.519652587890625,-18.048719610226154,-13.261583533370494,-3.8366125910714266,1.1185288429260254,2.2507429122924805,0.1105403155088424
1772808234289701000,4.539701171875,-15.044750559967756,-13.229411448562145,-0.8393529753237963,1.9977867603302,1.8959509134292605,0.3068477213382721
1772808234309751300,4.559751220703125,-9.89266473415494,-13.037463812339306,1.4736989263653757,2.204620122909546,0.8938218355178833,0.3980843126773834
1772808234329800400,4.579800537109375,-5.719876360929012,-11.6521866812706,3.533892503795028,1.620183348655701,-0.2871133685111999,0.270124614238739
1772808234349849300,4.599849365234375,-3.7164018650650976,-9.263178498104214,3.89606372794956,0.9267250895500184,-0.9947497844696044,0.1418477445840835
1772808234369899300,4.619899169921875,-2.6857120788931845,-6.275870075267553,2.622397836846113,0.4376309514045715,-0.9011734127998352,0.1174461543560028
1772808234389948400,4.639948486328125,-2.087944923186302,-3.5129987688481807,1.7157855351112783,-0.1466668099164962,-0.846322238445282,-0.0678025931119918
1772808234409997300,4.659997314453125,-2.2600620697796345,-0.8246604331046342,1.3252598847404122,-0.4624393582344055,-0.7498292922973633,-0.2076275497674942
1772808234430047200,4.680047119140625,-1.6446359232634304,2.184709014892578,0.7393047473803163,-0.5704013109207153,-0.0312882326543331,-0.0846798419952392
1772808234450096400,4.700096435546875,-0.2106751330465078,4.542393839034438,0.4220446050327271,-0.5255072712898254,0.7541167140007019,0.2529695332050323
1772808234470145300,4.720145263671875,1.3168021452575922,6.055632164105773,0.3818971939636394,-0.0100194914266467,1.0042035579681396,0.5897459983825684
1772808234490194400,4.7401943359375,3.934634866145253,7.247791446128487,-0.6305505042813718,0.348142921924591,1.014519453048706,0.7085106372833252
1772808234510243300,4.760243408203125,6.592595599281787,8.003928962627052,-1.0689909483198077,0.2985638678073883,0.8449558019638062,0.5267155170440674
1772808234530292500,4.78029248046875,8.129982861703633,8.097280615541338,-0.7127183537498116,-0.043629977852106,0.6532138586044312,0.3853947222232818
1772808234550342700,4.8003427734375,8.290293835169077,7.416483878970146,0.1924891409547068,0.0377290919423103,0.3998631536960602,0.4242433309555053
1772808234570391300,4.820391357421875,7.886972562241554,7.502749373015761,-0.0447134768756106,0.281598836183548,-0.0815368965268135,0.4680418372154236
1772808234590440400,4.8404404296875,7.480258724266291,7.998827840095758,-0.622276523867622,0.1934575289487838,-0.5975256562232971,0.2604058980941772
1772808234610489300,4.8604892578125,7.182927052029967,8.174763083672524,-0.8734007178109139,-0.1037712916731834,-0.5217254161834717,-0.1193639114499092
1772808234630539500,4.88053955078125,6.560646217313408,8.414251638749242,-0.7498645006436854,-0.4306927621364593,-0.0346729010343551,-0.2636130750179291
1772808234650588400,4.90058837890625,5.85281885047555,8.603522749239206,-0.8351287817575037,-0.6227787137031555,0.3612810969352722,-0.3053026497364044
1772808234670637300,4.92063720703125,5.265978746974468,8.209305404743551,-0.8529613755680621,-0.6369229555130005,0.3742682337760925,-0.4309103190898895
1772808234690687500,4.9406875,4.842238955396414,7.634283749330043,-0.5309333977641537,-0.4588441550731659,0.4171395599842071,-0.4068445861339569
1772808234710736600,4.960736572265625,5.086877732843161,7.160907527923584,-0.2056273116050287,-0.2928528189659118,0.5330103039741516,-0.292718231678009
1772808234730785300,4.980785400390625,4.962453480795025,6.333055020779371,-0.0056652226874604,-0.2473064959049224,0.3073527216911316,-0.1977493017911911
1772808234750835500,5.00083544921875,4.393583333748579,4.517323110663891,-0.4797626710405573,-0.2125252187252044,0.2390346080064773,-0.0998010039329528
1772808234770884600,5.020884521484375,3.4715064825087785,1.2733797676384448,-0.4162167025968432,-0.4045804142951965,0.3509979546070099,0.0574378743767738
1772808234790933200,5.040933349609375,2.102105550485849,-4.034717288619279,0.6447241371929645,-0.7973654270172119,-0.2501261234283447,0.1953561753034591
1772808234810983400,5.0609833984375,-4.587250048848986,-9.019191462564468,0.1217343919096514,-1.6539926528930664,-2.559758424758911,-0.1501833349466323
1772808234831032600,5.081032470703125,-13.72182204078436,-13.985352565705776,-1.748893439465016,-1.2525471448898315,-2.409613609313965,-0.3007940649986267
1772808234851081500,5.10108154296875,-17.93845189382434,-15.18133345184326,-2.7311247535467147,0.4805880188941955,0.1539622843265533,0.1199339479207992
1772808234871130400,5.12113037109375,-18.012453534102438,-15.178296276104447,-3.392787166059017,1.2679166793823242,1.30810809135437,0.5231080651283264
1772808234891180500,5.1411806640625,-15.227779561197757,-15.327950246477126,-1.2662753424607216,1.4284173250198364,0.6967880129814148,0.3488337993621826
1772808234911229400,5.1612294921875,-10.53232457369566,-14.472920978593825,0.554143739090301,1.3208296298980713,-0.0318478494882583,0.2775208652019501
1772808234931278600,5.181278564453125,-6.724841338735819,-11.739123790967463,1.8542462035574017,0.8598094582557678,-0.6821146607398987,0.093078002333641
1772808234951328500,5.20132861328125,-5.032632347914576,-7.73468298266828,1.633207935798168,0.4435155093669891,-0.9137160181999208,-0.1914430558681488
1772808234971377400,5.22137744140625,-3.721287299019098,-4.260000208210945,1.5138061880871652,0.1719030439853668,-0.8034787178039551,-0.2719554007053375
1772808234991426600,5.241426513671875,-2.51303963650465,-0.9286749343305826,1.6525060721166431,0.0430928282439708,-0.900424599647522,-0.0726541057229042
1772808235011476500,5.2614765625,-1.2426450221568346,1.913856184259057,1.736262944342196,-0.1963804364204406,-0.7855793833732605,0.0753850117325782
1772808235031525400,5.281525390625,0.2091097834259271,4.102971325156092,0.626106822745502,-0.2700587213039398,0.0554031766951084,0.1325830668210983
1772808235051574500,5.301574462890625,1.3504326121807098,5.375820931440591,1.0150658083215356,-0.0542040579020977,0.6816219091415405,0.3544667065143585
1772808235071623700,5.321623779296875,3.091989279016852,6.602729455283284,0.8087247589565814,0.3402965664863586,0.7895653247833252,0.6328402161598206
1772808235091673300,5.34167333984375,5.530154584062099,7.590650943830608,0.4341001863444224,0.3534290790557861,0.6606950163841248,0.6252959966659546
1772808235111722500,5.361722412109375,7.082790269020199,7.9848256182283155,0.1999593489712104,0.1194211542606353,0.4516985118389129,0.3458049297332763
1772808235131771600,5.381771728515625,7.571446477144956,7.637228570610285,0.7841169719226658,0.2030109614133834,0.3538298010826111,0.2877605855464935
1772808235151821300,5.4018212890625,7.721880199718475,7.496952669435739,1.2998846204653385,0.3672059774398803,0.1590950042009353,0.4270983040332794
1772808235171870500,5.421870361328125,7.884987525904178,7.697347231486439,0.703928751964122,0.2319909036159515,-0.1388648599386215,0.2748673558235168
1772808235191919600,5.441919677734375,7.555323609861731,7.864484251579642,0.2193986107934266,-0.0256107430905103,-0.3033682703971863,-0.0658886507153511
1772808235211969300,5.46196923828125,6.970965970826149,8.088632029661536,0.1370207718361169,-0.2201553434133529,-0.1377646178007125,-0.2323923707008361
1772808235232018400,5.482018310546875,6.329093715932965,8.45793179052174,0.090039605756849,-0.3384253978729248,0.0724345967173576,-0.264691948890686
1772808235252067600,5.502067626953125,5.793571711736917,8.486481008657812,-0.2743883112832904,-0.4265641868114471,0.1344794929027557,-0.3736058175563812
1772808235272116500,5.522116455078125,5.445384881532192,8.333540856221317,-0.3767699506103992,-0.3546832203865051,0.2259729504585266,-0.3902729749679565
1772808235292166400,5.54216650390625,5.319384758469462,7.891863256892561,-0.2766309939098544,-0.3209663033485412,0.2550328373908996,-0.3746386766433716
1772808235312215600,5.562215576171875,5.126743879285455,7.032612571921944,-0.2482455332344397,-0.2892671227455139,0.1641443222761154,-0.4033774137496948
1772808235332264400,5.582264404296875,4.55645100595951,5.368184737473726,-0.0298810055959504,-0.3176604807376861,0.1560839414596557,-0.2163671851158142
1772808235352314400,5.602314453125,4.047441745635867,2.258842757117748,0.4433906868569552,-0.5016810894012451,0.1701897084712982,0.1311371177434921
1772808235372363500,5.622363525390625,2.7653479256659743,-2.127876536080241,0.4203526698904111,-1.0995460748672483,-0.4307478964328766,0.3090100288391113
1772808235392412400,5.642412353515625,-2.769859265610576,-6.1716656044274565,-1.1610805454090236,-1.9791738986968996,-1.6928935050964355,-0.055870346724987
1772808235412462600,5.662462646484375,-10.619022029417753,-10.583224739849566,-3.4382331584602595,-2.0118908882141118,-1.34992778301239,-0.2625856697559356
1772808235432511500,5.682511474609375,-15.88063907405138,-13.685886804050206,-3.604420622743666,-0.7158830761909485,0.3305233418941498,0.0981846004724502
1772808235452560400,5.702560302734375,-18.603330345773696,-14.80744168701768,-4.009751774188876,0.3778970837593078,0.883737325668335,0.3285166919231415
1772808235472609500,5.722609619140625,-18.504845421624186,-15.460740760332346,-2.4098089791327717,1.0878655910491943,0.5946465134620667,0.0619382373988628
1772808235492659700,5.74265966796875,-15.187032540267705,-15.108717128443717,-0.4538004371903836,1.5718188285827637,0.5220975875854492,0.0556811764836311
1772808235512708900,5.762708984375,-11.088253990626336,-12.968456327086686,1.116267517149076,1.635162115097046,0.3322494924068451,0.0109968511387705
1772808235532757800,5.7827578125,-7.651065957304834,-9.199867178666592,1.228548400004208,1.2452199459075928,-0.3172239065170288,-0.2023517191410064
1772808235552807700,5.8028076171875,-4.780460252353548,-5.757032079368829,0.4193057546533644,0.6817464232444763,-0.6583763957023621,-0.6259915828704834
1772808235572856800,5.82285693359375,-2.2336656457632778,-2.495612700885534,0.1120924293446354,0.0533023104071617,-0.2040683478116989,-0.8577116131782532
1772808235592905700,5.84290576171875,-0.6491057132780551,1.0590765072226525,0.7181172171186655,-0.3982267379760742,0.0141944680362939,-0.668857216835022
1772808235612955000,5.862954833984375,-0.0631289486080408,4.318212743204832,1.4186623910591003,-0.2293107658624649,-0.1939823478460312,-0.1316156983375549
1772808235633004800,5.8830048828125,1.9369085585445165,7.006176400417089,1.2504374295987188,-0.0873846411705017,0.0172052942216396,0.3484767079353332
1772808235653053700,5.9030537109375,4.387043702846765,8.7207854390949,0.954189972402528,-0.2031643837690353,0.5077869892120361,0.4609080851078033
1772808235673102800,5.923102783203125,6.608994360896944,9.831391642546652,0.0940610706921201,-0.3004587590694427,0.800163209438324,0.5746018290519714
1772808235693153000,5.943153076171875,8.170302012610435,9.483651971587538,0.5028816077562048,-0.522122859954834,0.8905577063560486,0.5793148875236511
1772808235713201700,5.96320166015625,9.69603683116138,7.406738145503401,1.706103222269565,-0.6846482753753662,1.285397171974182,0.6149705648422241
1772808235733250800,5.983250732421875,8.869455659127235,7.838757689648866,-0.1687275041550398,-0.7283502817153931,0.6721094250679016,0.3728266954421997
1772808235753300000,6.003300048828125,7.532057300564646,6.726215549698472,-0.0035606950061279,-0.5859668850898743,-0.4449126422405243,0.1960473209619522
1772808235773350000,6.023349853515625,6.151030812677741,6.297215645635128,-0.1650198635424487,-0.5235476493835449,-0.7420325875282288,0.0982094407081604
1772808235793398800,6.043398681640625,4.65042985086143,5.803477019679546,-0.4869178400248289,-0.5670104026794434,-0.2692394554615021,-0.0304341930896043
1772808235813448000,6.063447998046875,3.371119524130225,5.475114833885431,-0.9444384667821228,-0.3577733337879181,0.195319727063179,-0.1317675858736038
1772808235833497900,6.083497802734375,2.978682633310556,5.342230212005973,-0.6286355375055224,-0.0299163330346345,0.3583807647228241,-0.0973993614315986
1772808235853546800,6.103546630859375,3.5621120515853164,5.411989976930618,-0.6072886884963139,0.2282098531723022,0.4746129810810089,-0.0738285407423973
1772808235873596000,6.123595947265625,4.483379924529791,5.325659600955247,-0.8515339000482112,0.3980824947357178,0.4300295114517212,-0.1418045461177826
1772808235893644800,6.143644775390625,4.730133502173423,4.89767325784862,-0.7860073887791484,0.4991464018821716,0.2483250945806503,-0.2025375515222549
1772808235913695000,6.163695068359375,4.511532836824656,3.9241631564915176,-0.9581834990181028,0.5106179714202881,0.3671419322490692,-0.1201426237821579
1772808235933743900,6.183743896484375,3.1400819865345952,1.3781494711458682,-0.9578710720680652,0.4806489646434784,0.4348926246166229,0.082472063601017
1772808235953792800,6.203792724609375,1.4814192914843558,-3.9492818156570193,-0.2582467210332863,0.1698781102895736,-0.4505419135093689,0.4138864576816559
1772808235973842000,6.223842041015625,-4.999514506688714,-8.646741713240742,-0.877623742333427,-0.5108644366264343,-2.652085781097412,0.2030787318944931
1772808235993891800,6.243891845703125,-12.168275086200236,-13.020823643183707,-2.489398940937221,-0.2021499276161193,-2.1846935749053955,0.0184302479028701
1772808236013940700,6.263940673828125,-14.954242021524903,-13.893975427734851,-3.075982731589675,1.1476668119430542,0.3816599249839782,0.3759132921695709
1772808236033990000,6.283989990234375,-12.932241688889263,-13.341347390437123,-3.326862449252605,1.392014980316162,1.4764755964279177,0.9431869387626648
1772808236054040000,6.3040400390625,-10.230123249596357,-13.601516914492844,-0.9217219003222882,1.1308214664459229,0.4637292027473449,0.6165068745613098
1772808236074088700,6.324088623046875,-7.73889680097103,-13.42684891437292,1.469939573831856,0.994775891304016,-0.412448525428772,0.4203371405601501
1772808236094137900,6.344137939453125,-4.374918965288996,-11.287454374456406,2.161211234927177,0.7561408877372742,-0.3577424883842468,0.3055408895015716
1772808236114186800,6.364186767578125,-2.895413982993364,-7.851079995605349,1.8671921943701804,0.2374284267425537,-0.5472439527511597,-0.0653069913387298
1772808236134237000,6.38423681640625,-1.3394143745601177,-3.997316070985794,0.7137259233571589,-0.3418598771095276,-0.4992475509643554,-0.3818318843841553
1772808236154285800,6.404285888671875,-0.7688602199494838,-0.1688461620986461,0.2803638054963201,-0.5202808976173401,-0.4365604817867279,-0.5402656197547913
1772808236174334700,6.424334716796875,-0.2585410460710525,3.33666371229887,0.6944421078249812,-0.3295729458332062,-0.4490067064762115,-0.3369700014591217
1772808236194385000,6.444385009765625,1.269073010355234,5.775505893692374,0.9186121708039192,-0.1055964305996894,-0.1485820114612579,-0.0616462305188179
1772808236214433800,6.464433837890625,3.633905368164181,7.208181320273876,0.3775093708008527,-0.3487733602523803,0.3660338222980499,-0.2435979396104812
1772808236234482700,6.484482666015625,5.957851588833332,7.595576709794997,0.0602293181763961,-0.8727503418922424,0.9968408346176147,-0.5998355746269226
1772808236254531800,6.50453173828125,6.268701498812437,7.27721510901153,0.9985098103180527,-0.8163654804229736,0.9371219277381896,-0.5745105147361755
1772808236274582000,6.52458203125,6.18514234111607,6.977265363231301,1.7050165960766377,-0.2734438180923462,0.3769804835319519,-0.1922885775566101
1772808236294630700,6.544630615234375,6.733755297553539,6.682271194031834,1.7174363710582254,-0.0318224169313907,0.0010752644157037,0.0733855664730072
1772808236314679800,6.5646796875,7.440090964528918,6.633505701819062,0.849248200263828,-0.1085847616195678,0.0387207753956317,-0.0165890082716941
1772808236334729000,6.58472900390625,7.453896202519536,6.568033989477157,0.3230225783318281,-0.2820836901664734,0.1408631056547165,-0.1798024922609329
1772808236354779000,6.60477880859375,7.006238359737396,6.735130677559972,-0.2640110384473577,-0.4385823011398315,0.1317078769207,-0.3612630069255829
1772808236374827800,6.624827880859375,6.396483244594931,6.548243831858039,-0.7738691341526805,-0.5113242864608765,0.0546066053211689,-0.5869187116622925
1772808236394877000,6.644876953125,5.364896217322349,6.351006272533535,-0.6849371973767876,-0.3230163753032684,0.1108864918351173,-0.5135112404823303
1772808236414926800,6.6649267578125,5.112984234002233,6.125337568494677,-1.020136608779803,-0.036302100867033,0.2543396949768066,-0.3192755579948425
1772808236434975700,6.684975830078125,4.850536243620515,5.50965657043457,-1.379257432387769,0.0899133011698722,0.1247428879141807,-0.4195831716060638
1772808236455025000,6.70502490234375,4.429294114077091,4.618662839722633,-1.818787206032872,0.1068901270627975,-0.0370757468044757,-0.5636096000671387
1772808236475073800,6.72507373046875,3.2248224629700184,3.0226684900313616,-1.3211208852395415,0.1343882232904434,0.1739138662815094,-0.505062460899353
1772808236495124200,6.745124267578125,2.259354798293113,0.0102320556789636,0.005169146266207,-0.057993546128273,0.1585384309291839,-0.2436340004205703
1772808236515173000,6.765173095703125,-0.694910602119565,-3.726253981515765,1.0311328537642954,-0.649928092956543,-0.3914165794849396,-0.0471862368285656
1772808236535222000,6.785221923828125,-5.482227296239137,-6.323761707255244,-0.2960181419523432,-0.9836565256118774,-0.6628191471099854,-0.1024883165955543
1772808236555271200,6.805271240234375,-9.845754514420031,-8.66261615872085,-0.9128606215398758,-0.1678983569145202,-0.0568579509854316,0.0228154845535755
1772808236575321000,6.825321044921875,-12.643257573759556,-9.059533994346856,0.2209094172151759,0.9732226133346558,0.1233437061309814,0.867034375667572
1772808236595370000,6.845369873046875,-13.479190511506795,-9.931452437710762,0.4736242048181593,1.2661261558532717,-0.6979435086250305,1.3423563241958618
1772808236615419100,6.865419189453125,-13.113558040982484,-10.197841274672744,-0.8340591066993772,0.9298228621482848,-1.26320219039917,0.8203593492507935
1772808236635468000,6.885468017578125,-11.77667464620471,-10.363050541573765,-1.2995409215942024,0.4520347118377685,-0.4868019521236419,0.129969373345375
1772808236655518000,6.90551806640625,-8.925431228849291,-8.554029527273773,-0.8213581766888499,0.0614174753427505,0.2626984715461731,-0.2144155949354171
1772808236675567000,6.925567138671875,-6.640867170497775,-6.153243228030204,0.4217441607814282,-0.2529585063457489,0.1567293107509613,-0.4966821074485779
1772808236695616000,6.945615966796875,-3.746347505995631,-3.25258959081769,1.1252343751978129,-0.0843742936849594,-0.3951702117919922,-0.6261509656906128
1772808236715665200,6.9656650390625,-0.4348433693945407,-0.3134066087245941,2.2536372974291443,-0.277677059173584,-1.2091327905654907,-0.517553985118866
1772808236735715000,6.985715087890625,2.00851775072813,2.460736033293605,2.7846006154075265,-1.0755324363708496,-1.29867684841156,-0.2488537430763244
1772808236755764000,7.005763916015625,2.4640567021489144,4.231292000120878,0.6990968017630279,-1.5396342277526855,-0.6405603885650635,-0.2128800749778747
1772808236775813000,7.025813232421875,2.202038335356116,4.68642295526266,-0.7947264826118946,-1.4042377471923828,-0.0230745449662208,-0.404709905385971
1772808236795862300,7.0458623046875,2.3826538457036017,4.803599720400571,-0.3035089726317673,-1.0356944799423218,0.0571543872356414,-0.4389823675155639
1772808236815912000,7.065911865234375,3.3264334101855755,5.310284921690822,0.1307421299580484,-0.6015871167182922,0.0044211978092789,-0.2238556444644928
1772808236835961000,7.085961181640625,4.257799483296274,5.515341045811772,0.3481990686317905,-0.3067924082279205,-0.1702254563570022,-0.0918120071291923
1772808236856010200,7.10601025390625,4.862696052491665,5.169973364681005,0.8365998772233724,0.060771532356739,-0.205109566450119,0.0704468116164207
1772808236876060000,7.126059814453125,5.908907232922315,5.06544974488914,0.925464447851479,0.114573061466217,-0.0984464138746261,0.1832406371831894
1772808236896109000,7.146109130859375,6.432050232538581,4.771332943046093,0.5019617164323106,0.0277437679469585,-0.0073980735614895,0.0323795266449451
1772808236916158200,7.166158203125,6.415408894339204,4.358036219549179,-0.2169638944597914,0.0364149399101734,0.0991241261363029,-0.1898499280214309
1772808236936207000,7.18620703125,5.961887712481618,4.494222805583477,-0.4758144814040511,0.191122755408287,0.1149569824337959,-0.3969646990299225
1772808236956256300,7.20625634765625,5.9532210064232345,4.634773432046175,-0.6619044776398688,0.2398090213537216,0.1970619261264801,-0.5367907285690308
1772808236976306200,7.22630615234375,5.696672010952234,5.007941558772325,-0.1995838667223229,0.3030816614627838,0.2183947563171386,-0.4970031976699829
1772808236996355000,7.24635498046875,5.296754993510246,5.074166135308146,0.0883682019459083,0.5506478548049927,0.2819733023643493,-0.3371113240718841
1772808237016404200,7.266404296875,5.098423209208249,4.955017777836322,0.021126388358674,0.8429126739501953,0.2555009722709656,-0.2840066850185394
1772808237036454100,7.2864541015625,5.022122644338012,4.26370198533833,-0.3612947335809469,0.9346482157707214,0.1946682780981063,-0.2933903634548187
1772808237056503000,7.3065029296875,4.24660004388988,3.139110511153936,-0.3564257393050938,0.811724841594696,0.1926614046096801,-0.2678253948688507
1772808237076552200,7.32655224609375,3.062609455275535,-0.2035007113724946,-0.1604176304440014,0.2320848554372787,0.5454981923103333,-0.0144518204033374
1772808237096601000,7.34660107421875,-0.6711784288764,-5.0951031248748295,-0.01460175866317,-0.6659868955612183,-0.0641647353768348,-0.0961393564939498
1772808237116651000,7.366651123046875,-9.240885417753455,-9.722339731675383,-1.0221688452597706,-0.7504603862762451,-0.4773252308368683,-0.2328415066003799
1772808237136700200,7.3867001953125,-14.62132874829769,-13.365382930541038,-1.1526003018334507,0.9586135149002076,0.3706153929233551,0.0883513391017913
1772808237156749000,7.4067490234375,-15.528048455929754,-13.047667226445672,-0.126574470618274,2.1653103828430176,0.638608992099762,0.9372324347496032
1772808237176798200,7.426798095703125,-12.489368157774209,-13.001905007702112,-0.3026358978579752,1.5976446866989136,-0.2203807681798935,0.9044426679611206
1772808237196848000,7.44684814453125,-10.245754533970356,-13.502525794386862,-0.5906214121380821,0.7726173400878906,-0.2779946327209472,0.2954807877540588
1772808237216897000,7.46689697265625,-8.369509995225071,-12.844868525862694,-0.0111388226598035,0.6596472859382629,0.4539655447006225,-0.000738404225558
1772808237236946200,7.4869462890625,-6.029746027699113,-10.1169107119143,1.5708789053961634,0.2169578373432159,0.1940347850322723,-0.100175455212593
1772808237256995300,7.506995361328125,-4.116775978624821,-6.459924912413954,1.8550570815488692,0.0493315383791923,-0.0873620361089706,-0.1517924964427948
1772808237277045000,7.527044921875,-1.4647241772711277,-2.068117356166244,0.9512720391292124,0.078606940805912,-0.2274002134799957,-0.2093820720911026
1772808237297094100,7.54709423828125,1.1627426334023474,1.797882365170121,1.254801908418536,-0.1927679479122162,-0.2165277749300003,-0.2052362114191055
1772808237317143300,7.567143310546875,3.0407611960828302,4.446461521977186,1.0256692545961588,-0.3824013173580169,0.2925597727298736,0.07594034075737
1772808237337192000,7.58719189453125,4.203326719352603,5.763935282886028,0.3115119906170293,-0.2319569438695907,0.802172839641571,0.2931469976902008
1772808237357241000,7.607240966796875,5.396158201548457,6.567369388088584,-0.5351009292397648,-0.0782002508640289,0.8436739444732666,0.3976945579051971
1772808237377291300,7.627291259765625,6.768527335727215,7.1625851057469845,-1.6399097715243696,-0.0226133968681097,0.4434777200222015,0.2517798244953155
1772808237397340200,7.647340087890625,6.954899217644334,7.086769694045185,-1.195865369999036,0.0791290327906608,-0.0945805162191391,0.0930110067129135
1772808237417389000,7.66738916015625,7.009843690752983,6.977773897275328,-0.4157195667296647,0.2531265616416931,-0.2061485648155212,0.1747379302978515
1772808237437438000,7.68743798828125,7.060823936405778,7.302294605210423,-0.369807600784488,0.0960175693035125,-0.2885063588619232,0.0893097296357154
1772808237457488100,7.707488037109375,6.526656269428133,7.510588396078348,-0.564149256004393,-0.1058050841093063,-0.2416026145219802,-0.1347678005695343
1772808237477536500,7.72753662109375,5.594619165188074,7.628557772898674,-0.6894299056861549,-0.1428395211696624,-0.130669429898262,-0.315045416355133
1772808237497585400,7.74758544921875,5.249568294921517,7.916299779012799,-0.5966609480306506,-0.2633213400840759,0.0786594599485397,-0.3975279331207275
1772808237517634300,7.76763427734375,5.051261060538888,8.258382447123527,-0.6634983957678079,-0.3497530221939087,0.1408346146345138,-0.5088285803794861
1772808237537684500,7.7876845703125,4.3962288798213,8.264154600784183,-0.4586666915198787,-0.1662093997001648,0.1810572892427444,-0.4661343097686767
1772808237557733600,7.807733642578125,4.575036463963985,8.23732153891623,-0.3612173940284177,-0.0142170200124382,0.4168074131011963,-0.2933637499809265
1772808237577782300,7.8277822265625,5.22315491977036,7.850095660743117,-0.2771711834674701,0.002379675861448,0.4077740013599396,-0.2615644633769989
1772808237597831400,7.84783154296875,5.397152473282814,7.339268537342548,-0.0575114740524441,0.0480327457189559,0.2143841236829757,-0.1320380717515945
1772808237617881600,7.867881591796875,5.840726261621714,5.998824235212803,0.0897937412369996,0.0799088031053543,0.1617698520421981,0.042855754494667
1772808237637930500,7.887930419921875,6.412447706446051,3.693078857144713,0.2509491296373307,-0.1793602406978607,-0.2294963747262954,0.2067916095256805
1772808237657979400,7.9079794921875,5.199572968652844,-0.7186953823328017,-0.2354896946988999,-0.7236889600753784,-1.549224615097046,0.2188365310430526
1772808237678028300,7.9280283203125,-1.9262930565059184,-5.096847338193655,-2.0007880332589147,-1.593583583831787,-2.913267135620117,-0.1825439929962158
1772808237698078500,7.948078369140625,-10.490145474135876,-10.2383217536211,-2.575748021613061,-1.1355319023132324,-1.4630208015441897,-0.0509856902062892
1772808237718127600,7.968127685546875,-15.294384661483765,-12.5535428160429,-2.482656773200631,-0.076167419552803,0.3200404345989227,0.5558823347091675
1772808237738176300,7.98817626953125,-17.244971616768836,-14.42679284914732,-1.911381026317179,0.016380364075303,-0.0519563071429729,0.3029030561447143
1772808237758225400,8.008225341796875,-17.487702514767644,-16.17663394472599,-0.8729426718451082,-0.0027905248571187,-0.2187348902225494,-0.2797994017601013
1772808237778274600,8.028274658203125,-16.151764876407384,-16.619633732569216,0.7282727734953165,0.4856664836406708,0.2842660248279571,-0.2218676060438156
1772808237798324200,8.04832421875,-14.60864696137905,-14.363002806282042,2.2719578208871183,0.8995827436447144,-0.4971035718917846,-0.0834314376115799
1772808237818373400,8.068373291015625,-12.700042706298827,-11.639157688349483,0.4969120683599263,1.2156232595443726,-0.5003060698509216,-0.4165970087051391
1772808237838422500,8.088422607421874,-8.049076264342665,-8.019028332081437,-1.3229190207026895,0.9738998413085938,0.3779726326465606,-0.7522114515304565
1772808237858471400,8.108471435546875,-2.7193080590248107,-4.153987811166048,0.2785939097469672,0.2618434727191925,0.6114705204963684,-0.800082802772522
1772808237878521300,8.128521240234376,0.2471107205182313,-0.8737076648682356,1.413575881575048,0.0653559565544128,0.0983077958226203,-0.5697810649871826
1772808237898570500,8.148570556640625,2.084037978875637,1.588367508074641,1.7126602426975963,0.2045216411352157,-0.215071901679039,-0.2509719729423523
1772808237918619400,8.168619384765625,3.92516619605422,4.130053977870941,1.20807369418703,0.3757993578910827,-0.261418879032135,0.0260784868150949
1772808237938668500,8.18866845703125,5.289430349710584,6.004970482882857,0.81033584741503,0.5730353593826294,-0.3889102637767792,0.2107541561126709
1772808237958718500,8.208718505859375,6.31063919083178,7.696372833496332,0.803416204219684,0.5880064368247986,-0.6303093433380127,0.3100876808166504
1772808237978767400,8.228767333984376,6.541995292857289,9.001696722406148,0.5833459047097712,0.6862081289291382,-0.6248296499252319,0.3004864752292633
1772808237998816500,8.24881640625,6.8353276663243765,9.444303711539506,0.3613103330088779,0.5783307552337646,-0.4053660929203033,0.1882402151823043
1772808238018865400,8.268865478515625,7.239975803941488,9.597571780756116,0.7890716717205941,0.2934033572673797,-0.4464508593082428,0.202089250087738
1772808238038914600,8.28891455078125,6.617921763718128,9.592270167216656,0.6966306308452039,0.1568413078784942,-0.6649857759475708,0.1217883229255676
1772808238058964500,8.308964599609375,6.132061323791742,9.663055183535814,0.2462248775944113,-0.0112487059086561,-0.6612159013748169,-0.0311515908688306
1772808238079013400,8.329013427734376,6.057382222643494,9.852842426854371,0.0553823165366426,-0.3271182775497436,-0.4344638586044311,-0.2180514335632324
1772808238099062500,8.3490625,5.731840354967117,9.765176418361069,-0.113140678022243,-0.5227389931678772,-0.2974011600017547,-0.453578233718872
1772808238119111400,8.369111328125,5.503686263853311,9.280190423181653,0.1454897998979315,-0.6618742942810059,-0.125939056277275,-0.5447945594787598
1772808238139161300,8.389161376953124,5.381963087457418,8.610119078764319,0.3916738705579191,-0.6597859859466553,-0.1166973933577537,-0.4409610033035278
1772808238159210500,8.40921044921875,5.092613061624765,7.608723191615939,0.6627133098047227,-0.488983005285263,-0.1863839626312255,-0.3554158806800842
1772808238179259600,8.429259765625,5.29031297776401,6.781860864552855,0.4574965152293443,-0.4129276871681213,-0.1303085386753082,-0.2808017134666443
1772808238199308300,8.449308349609375,5.231247040811181,5.625051712852716,0.3271270179759711,-0.3137859106063843,0.0968521684408187,-0.1690775752067566
1772808238219357400,8.469357421875,5.206358683270215,3.624201135751605,0.3324096345540135,-0.4863012731075287,0.09846131503582,-0.0497240200638771
1772808238239407600,8.48940771484375,4.006378498363494,0.0945002384275198,0.3082850279271602,-0.9695248007774352,-0.1817815452814102,-0.0380831137299537
1772808238259456500,8.50945654296875,1.1911509817630053,-3.646351592761278,-0.3243430863458663,-1.4321703910827637,-0.3189309239387512,-0.2837495505809784
1772808238279505400,8.52950537109375,-3.8263165302455424,-6.618557139012217,-0.9231494489073752,-1.9622690677642824,-0.2929249107837677,-0.4361889660358429
1772808238299554300,8.54955419921875,-9.042605655899644,-10.631816044539212,0.9222522808719426,-1.5632719993591309,0.6128034591674805,-0.1060234159231185
1772808238319604500,8.5696044921875,-13.507057008075714,-12.29376492165327,1.5390595795482396,-1.311192274093628,0.6857689023017883,0.4541420936584472
1772808238339653400,8.5896533203125,-18.145563196909425,-14.13432030737996,0.1951379018978215,-0.7238218784332275,0.3994935750961303,0.8013033270835876
1772808238359702300,8.609702392578125,-21.50856780364513,-15.552784253257512,-1.480164761378616,0.6094803214073181,0.6776873469352722,0.8641069531440735
1772808238379751400,8.62975146484375,-19.90423291110992,-15.831766029810904,-1.6831771047122777,1.7665332555770874,0.7587494254112244,0.9579419493675232
1772808238399800600,8.649800537109375,-15.099996061849591,-14.281064527785777,-0.7714197682391851,2.054180860519409,0.053972378373146,0.9403848648071288
1772808238419850200,8.669850341796876,-9.858299523216486,-10.598597665548324,-1.3713979510590433,1.6919432878494265,-0.4739429056644439,0.6125425696372986
1772808238439899400,8.6898994140625,-4.732902966886758,-6.736068250671028,-2.7791566707879305,0.966719686985016,0.0317819155752658,-0.0644097775220871
1772808238459948500,8.709948486328125,-1.0050848047941925,-2.5180226856142283,-2.316681782624125,0.4881158471107483,0.2814950942993164,-0.5508443713188171
1772808238480001300,8.730001220703125,0.7619558473885059,1.0557710359364747,-0.4515043621424585,0.3228108882904053,-0.2935677170753479,-0.5622789859771729
1772808238500051000,8.750051025390626,1.8778432061135768,3.3512171383082863,0.8482820586454123,0.5724069476127625,-0.4502214789390564,-0.1856954842805862
1772808238520100000,8.77010009765625,3.415251511323452,5.459610390761494,0.5270367921844125,0.7181145548820496,0.0694093778729438,0.2178907394409179
1772808238540149200,8.790149169921875,5.190456765261292,7.109817976677418,0.0661124761971645,0.5528135895729065,0.3555090129375458,0.3180484175682068
1772808238560198100,8.8101982421875,6.078999011167883,8.469434012266992,-0.1806076558345928,0.5480071306228638,0.3492796719074249,0.1703888326883316
1772808238580247000,8.8302470703125,7.248883917540311,9.407736022120714,-0.1614771677006036,0.4159950613975525,0.2845025062561035,0.0980473309755325
1772808238600297200,8.850297119140626,8.178243327003717,9.642966335231066,0.5997778744747861,0.1471283435821533,-0.145972654223442,0.0985953584313392
1772808238620346000,8.87034619140625,8.223193644842505,9.180333626157044,1.5583805122204124,-0.2047630548477172,-0.6147285103797913,0.1398331969976425
1772808238640395300,8.890395263671875,7.522853418889642,9.036319707497954,1.5480270221188663,-0.4366805255413055,-0.8967889547348022,0.1525678038597107
1772808238660444000,8.91044384765625,6.48652767265737,8.694177418154478,1.009057800078392,-0.4294812083244324,-0.6797739863395691,-0.0722190588712692
1772808238680494000,8.930494140625,5.533303403481841,8.355570317199826,0.5359267125394195,-0.4738787710666656,-0.5153545141220093,-0.3622493743896484
1772808238700543200,8.950543212890626,4.794167875188589,7.776063040804862,0.4792701382832601,-0.4555959701538086,-0.1871989071369171,-0.4410946071147918
1772808238720592100,8.970592041015625,5.0726668366611,8.955082270747422,-0.588041186386533,-0.2796193659305572,0.4312706887722015,-0.2269558906555175
1772808238740641000,8.99064111328125,4.89297311733365,8.110579073053598,-0.2322694540107622,-0.5308013558387756,0.7115811109542847,0.1596659123897552
1772808238760690200,9.010690185546874,4.148962091958523,7.303871060746908,-0.0220652264116331,-0.5278714299201965,0.4618750512599945,-0.040888275951147
1772808238780740000,9.030739990234377,4.232014469176531,6.625999271711707,-0.3187114371344447,-0.2760585844516754,0.3116625845432281,-0.2822445034980774
1772808238800789000,9.0507890625,4.282461630865932,5.715942528611421,0.3833484522178769,-0.0682331696152687,0.3128335177898407,-0.1509671360254287
1772808238820838100,9.070838134765625,4.4154748475611205,4.538080067488551,0.6740851831685751,-0.0951716154813766,0.1375567615032196,0.0294483751058578
1772808238840887000,9.090886962890623,4.421570826348662,2.8999457812041043,0.3859530817583203,-0.7193117737770081,0.1336171329021453,0.1517883092164993
1772808238860936200,9.110936279296874,2.840468925362825,0.9269500102341176,0.4952623649241402,-1.4991228580474854,-0.646290123462677,-0.1757971793413162
1772808238880986000,9.130986083984377,-2.816815078052878,0.3538590306222439,-0.9793897339802234,-2.1405937671661377,-1.5382864475250244,-0.4001305997371673
1772808238901035000,9.151034912109376,-5.247130254119634,-2.421770635083317,-1.2715300481185317,-1.7809864282608032,0.0935520753264427,0.0291989501565694
1772808238921084200,9.171084228515625,-6.969978128832579,-3.538914715871215,-1.0752873450502751,-0.9002692103385925,1.3745378255844116,0.2427057176828384
1772808238941133000,9.191133056640624,-6.8250435881972304,-5.463363605815172,-1.098172765270993,-0.5242188572883606,0.8377816677093506,0.3957147598266601
1772808238961183000,9.211182861328124,-6.828977420514821,-7.781458762368559,-0.4604912400659173,-0.7056505680084229,-0.5338743329048157,0.2759723663330078
1772808238981232000,9.231232177734377,-7.505687764555216,-9.69517641493976,-0.0424987051692791,-0.8993889093399048,-1.3624207973480225,0.0259628668427467
1772808239001281000,9.251281005859376,-7.114483630400896,-10.417697493040562,0.3691536669204011,-1.1464675664901731,-1.011765480041504,0.0886740908026695
1772808239021330200,9.271330078125,-11.99998889607191,-10.47603511571884,1.0196258827786893,-1.1417443752288818,-0.5034947991371155,0.4717677235603332
1772808239041379300,9.29137939453125,-13.151281914699076,-10.688396594417094,-0.0792690592870116,-0.3781426846981048,0.3405024111270904,0.744845449924469
1772808239061429000,9.311428955078124,-12.70777943803072,-8.623515735954046,-1.7118110785223544,0.7311970591545105,0.5969913005828857,0.5739001631736755
1772808239081478100,9.33147802734375,-9.730758600452544,-8.120782487159968,-2.0302648876339195,1.4536792039871216,0.7300336360931396,0.3083090782165527
1772808239101527300,9.35152734375,-5.191165790313482,-6.703225134733319,-0.8172285295382141,1.480075478553772,0.4862298667430877,0.2139882743358612
1772808239121576200,9.371576171875,-2.2117560117721555,-4.425689367583394,0.7792286153592168,0.7789505124092102,-0.1000038012862205,0.2733103036880493
1772808239141625000,9.391625,0.4720306520164012,-2.718552856743336,1.1558701172843575,-0.0029117695521563,-0.4422709345817566,0.4410792589187622
1772808239161675300,9.41167529296875,0.8386702537566423,-0.7512082434028386,0.1819119068335741,-0.4446405172348022,-0.7800130248069763,0.243937000632286
1772808239181724200,9.43172412109375,-0.1498386792898178,0.5097948577433824,-0.064036345776543,-0.3564181625843048,-0.7393114566802979,0.0289832726120948
1772808239201773000,9.45177294921875,0.3709451899796724,1.377180333852768,-0.1063300846919417,0.0253612641245126,-0.2567270994186401,0.1497097164392471
1772808239221822000,9.471822021484376,1.153423016393185,2.5018857898056504,0.0496705512937158,0.2837551832199096,0.1111664697527885,0.2320945560932159
1772808239241871000,9.49187109375,1.547354529684782,2.9949802726387977,0.1089307687096297,0.312231034040451,0.3376225531101227,0.2322116643190384
1772808239261921300,9.51192138671875,2.33274970484972,2.9831022033184764,0.0632206454794853,0.2592479884624481,0.431412398815155,0.2667625844478607
1772808239281970000,9.531969970703123,2.7007144177138804,3.4383167450904843,0.4545755862813442,0.2585611641407013,0.3376734256744385,0.2176094800233841
1772808239302019000,9.55201904296875,3.6657378457546232,3.871308349138498,0.5663753345560282,0.2979736626148224,0.4171921014785766,0.2359545826911926
1772808239322068200,9.572068115234377,4.528343101850152,3.4736528468877075,0.5836836852967738,0.2281329333782196,0.6241248250007629,0.3533801436424255
1772808239342117000,9.5921171875,4.545715092411637,4.571868355321884,0.2171560194984078,0.0861392766237258,0.4439100325107574,0.2447209507226944
1772808239362167000,9.6121669921875,4.572415467810631,4.969117030337452,0.16412512492612,0.0108288852497935,0.2590941786766052,0.1160792484879493
1772808239382216200,9.63221630859375,4.997109783634543,5.322171758839488,0.1753334782913327,-0.0505610667169094,0.0991811156272888,0.0185012035071849
1772808239402265000,9.65226513671875,5.828849945867061,5.597604318478703,-0.0370948550980538,0.4244729876518249,0.6918475031852722,-0.2682910561561584
1772808239422314200,9.672314208984377,4.395881673818827,4.892611882805824,0.1816730565764009,1.118876576423645,0.7107269167900085,-0.5237964987754822
1772808239442363100,9.692363037109375,2.954681579998135,3.4347324568629265,0.1488502162417397,1.4179428815841677,0.2224152088165283,-0.5227684378623962
1772808239462413000,9.7124130859375,2.697538125765324,2.4885733037680384,0.3034296237852424,0.97323077917099,-0.4411835372447967,-0.3960772156715393
1772808239482460000,9.7324599609375,3.5365257749080654,1.222515257319808,0.4639089395549148,-0.1090391054749488,-0.7349094748497009,-0.0914238169789314
1772808239502508500,9.752508544921875,2.9591560950636864,1.6988772165387869,0.2132802009783685,-1.3334059715270996,-0.8572222590446472,-0.0835726112127304
1772808239522557700,9.7725576171875,2.0901707825422284,1.0642273141145706,-0.7060925789345055,-1.9844788312911987,-0.8860406279563904,-0.0717825070023536
