time,seconds_elapsed,accel_z,accel_y,accel_x,gyro_x,gyro_y,gyro_z
1772808278982939100,0.081939208984375,0.1655775156915187,0.0353822790265083,0.0434343420515768,0.0103146247565746,0.2974126935005188,0.1470991671085357
1772808279002988300,0.10198828125,0.0441916084259748,0.0655541299283504,0.0266622855780413,-0.0390207432210445,0.2576746046543121,0.193465918302536
1772808279023037200,0.122037109375,-0.1049631802529096,0.1319634153813123,-0.0613201045212103,0.0311091020703315,0.1783147156238556,0.1891495436429977
1772808279043086300,0.14208642578125,-0.1027034186273813,0.1836047552913427,-0.1468648693771101,0.1419517397880554,0.1428353935480117,0.1523586511611938
1772808279063134200,0.16213427734375,-0.1401519825339317,0.1899076548278331,-0.1640319302173331,0.2187122255563736,0.0911701470613479,0.1425777822732925
1772808279083183400,0.182183349609375,0.0502647908598184,0.204811209449172,-0.2906854391548782,0.2732639610767364,0.1184018179774284,0.1370270848274231
1772808279103232300,0.202232177734375,0.2730009485781192,0.2096878755748271,-0.3600351619739085,0.3017369210720062,0.2520677745342254,0.112231820821762
1772808279123281200,0.22228125,0.193044783809781,0.2653203309476375,-0.4545121656563132,0.3911786079406738,0.3353846967220306,0.1148591339588165
1772808279143329300,0.242329345703125,0.0463794738590717,0.6007903029203414,-0.7284324210364371,0.6892401576042175,0.5591592788696289,0.1378655582666397
1772808279163378200,0.262378173828125,-0.0038467385560274,1.3050029863923789,-0.9574451748061924,1.1200822591781616,0.9418366551399232,0.0673434659838676
1772808279183427300,0.28242724609375,-0.3367565046519041,1.3129448853075505,-0.8059231455393135,1.3563326597213743,1.0271801948547363,-0.0773673057556152
1772808279203475200,0.30247509765625,-1.232242870607972,1.7885270923256873,-0.6599409955471753,1.4159224033355713,0.5386646389961243,-0.468267023563385
1772808279223524400,0.3225244140625,-0.5935328791379928,0.8151344798684119,-0.1818011399354785,1.4873253107070925,0.044984582811594,-0.7140516042709351
1772808279243573200,0.3425732421875,0.0393815777957439,-0.141990303876996,-0.0208207427758723,1.4161579608917236,-0.2691133916378021,-0.7169332504272461
1772808279263622400,0.362622314453125,0.5014303495019674,-0.4310030605792999,-0.5130875426132232,1.3580398559570312,-0.3910028040409088,-0.7440349459648132
1772808279283670300,0.382670166015625,1.2371148605585098,0.9923965881347656,-0.3745231945969164,1.0996569395065308,-0.0586375407874584,-0.6785662174224854
1772808279303719200,0.40271923828125,1.3202940790265798,0.58775663382411,-0.2476958999950438,0.5833278298377991,0.1944819241762161,-0.4247196614742279
1772808279323768300,0.422768310546875,1.2441636100262403,-0.7267372344911098,0.2355670707840472,-0.0126194534823298,0.376847356557846,-0.0895945876836776
1772808279343816200,0.442816162109375,1.188463934636116,-1.4622966578632592,1.270446052274108,-0.4294076263904571,0.4515215754508972,0.2288568913936615
1772808279363865300,0.462865234375,0.598732201346755,-1.7003887901455164,1.3800525282882152,-0.704413652420044,0.2230955213308334,0.6064483523368835
1772808279383914200,0.482914306640625,0.2798112131148577,0.0003097966015338,0.3196006410591304,-0.848112165927887,1.35192240122e-05,0.7429542541503906
1772808279403963400,0.50296337890625,-0.6110790572226047,0.4930681793481111,-0.3242239169456064,-0.66010981798172,-0.3363154232501983,0.613404393196106
1772808279424011300,0.52301123046875,-0.1554524275183677,0.2145160263836383,-0.2133634953476488,-0.3074203133583069,-0.5730963945388794,0.3796739876270294
1772808279444060400,0.543060302734375,-0.3282961348205804,0.1069891331225633,-0.2422794279042631,-0.0865323171019554,-0.6667987704277039,0.3755744695663452
1772808279464109300,0.563109375,-0.4626467375993728,-0.1601888083904981,-0.2175044676098972,0.0132243866100907,-0.6088466644287109,0.362438827753067
1772808279484157400,0.583157470703125,-0.4667255313456058,-0.0093389062315225,-0.349950113550201,0.0632628425955772,-0.5248749852180481,0.2666674554347992
1772808279504206300,0.603206298828125,-0.4149865762799978,-0.0888677854984998,-0.2492084599824622,-0.0126600135117769,-0.3749282956123352,0.1660764962434768
1772808279524255200,0.623255126953125,-0.3545230474889278,-0.1054781440377235,-0.3082026468733325,0.0331798866391181,-0.1611371040344238,0.1098333448171615
1772808279544304400,0.643304443359375,-0.4173147269666195,-0.0577455020040273,-0.1918013048210181,0.1034157946705818,-0.0456008650362491,0.0755596458911895
1772808279564352300,0.663352294921875,-0.276192438095808,-0.3173620683521032,-0.0753652567815035,0.1084925234317779,0.0072760912589728,0.0652946606278419
1772808279584401400,0.6834013671875,-0.0964466963201761,-0.3077256404787302,-0.0733373494167812,0.0564938560128212,0.0266026556491851,0.0205023325979709
1772808279604450600,0.703450439453125,0.0496978046268224,-0.3986041812777519,0.0561128593008965,-0.0522892326116561,-0.0222911592572927,0.0299087390303611
1772808279624498400,0.72349853515625,0.092561963841319,-0.356389425882697,-0.029075963690225,-0.1204073503613472,-0.0608167797327041,0.0815414786338806
1772808279644547600,0.743547607421875,0.0234738145679235,-0.239481540814042,-0.1917986196735873,-0.1230076476931572,0.0271762777119874,0.0962310880422592
1772808279664596200,0.76359619140625,-0.3121878805845975,-0.0412865346342325,-0.3359449325406923,-0.0699892789125442,-0.1399516016244888,0.0175535976886749
1772808279684645400,0.783645263671875,-0.0816547853797674,0.0159241298407316,0.0484141762907616,0.0217506550252437,-0.0738730803132057,-0.0930173397064209
1772808279704693200,0.803693359375,0.0290729497492313,-0.1133212587535381,-0.1821486747315153,0.1107612326741218,0.0663003176450729,0.002618207829073
1772808279724742400,0.823742431640625,0.0039057752668857,0.0355734176844358,-0.181892800274305,0.1739907413721084,0.0553149729967117,-0.013040542602539
1772808279744791300,0.843791259765625,0.0170353059530258,-0.1484890182465315,0.1338512292887549,0.2022075951099395,-0.0871553942561149,-0.0525904148817062
1772808279764839400,0.86383935546875,0.4088789070546627,-0.180042094373703,0.0714901871801353,0.1422324925661087,-0.1785633862018585,-0.0310007277876138
1772808279784888300,0.883888427734375,0.5787368765443563,-0.0864461113095283,0.2092272723257541,-0.0255022980272769,-0.2163626104593277,-0.0095985904335975
1772808279804937500,0.9039375,0.1675871019482612,0.1250274786382913,0.0574503093165811,-0.1753191649913787,0.027196604758501,0.1021261662244796
1772808279824985600,0.923985595703125,0.3053577423036098,0.3177566206276416,0.0742783109281677,-0.0690624415874481,0.3155554831027984,0.221414104104042
1772808279845034200,0.9440341796875,0.0677291358798742,0.7253852353602648,-0.1187961373675148,0.0521166287362575,0.4464190602302551,0.2852291762828827
1772808279865083400,0.96408349609375,-0.0701817897289991,0.3250783418178558,0.2674712253712117,0.0492086634039878,0.4063591063022613,0.3477581143379211
1772808279885132300,0.98413232421875,0.7977765178322792,0.2829454194873571,0.2782420458356849,0.0244573839008808,0.4752016067504883,0.4082966446876526
1772808279905180400,1.004180419921875,1.0149012654095888,0.4583715444982051,0.0545520579912699,0.027887562289834,0.4383140802383423,0.3030627071857452
1772808279925229300,1.024229248046875,0.9442951127886772,0.5231038366496563,-0.1360273220856674,0.0342335999011993,0.3004816174507141,0.0939224436879158
1772808279945278500,1.044278564453125,0.6946013900399207,0.3290875774592161,-0.1378816081828437,0.0281919334083795,0.0631746500730514,-0.144972950220108
1772808279965326300,1.064326416015625,0.7349398301690816,0.3886649710655212,-0.0911502521461807,0.0275218896567821,-0.0487044565379619,-0.2641119956970215
1772808279985375500,1.08437548828125,0.5597919375777244,0.2715115868031978,-0.0314242438494227,-0.0115217352285981,-0.0522504113614559,-0.221967726945877
1772808280005424400,1.10442431640625,0.3950239847034216,0.0546522121638059,0.0507934361101128,-0.0754811838269233,-0.0339432992041111,-0.1615238189697265
1772808280025473300,1.124473388671875,0.1250099429816007,-0.1480938814491033,0.0662854398775845,-0.0945951342582702,0.0383961461484432,-0.1304782032966613
1772808280045521400,1.144521484375,-0.4100456127464771,-0.0523205543458461,-0.038486090260744,0.0070717148482799,0.0660105124115943,-0.1568665951490402
1772808280065570300,1.1645703125,-0.4099456595033407,0.0018231237739324,0.0052381563818082,0.1048783957958221,0.1786044985055923,-0.1506496220827102
1772808280085619500,1.184619384765625,-0.0023924480944871,-0.3150900317668915,0.3132671271886676,0.0640468522906303,0.2848147749900818,-0.0734241604804992
1772808280105667300,1.204667236328125,0.2983884878128767,-0.6601642829090356,0.4077393085654824,-0.1120521277189254,0.3949141800403595,0.0858242511749267
1772808280125716500,1.224716552734375,0.1099754554569721,-0.4066986404061317,0.3154162680465728,-0.2415709942579269,0.3682885766029358,0.2013910859823227
1772808280145765400,1.244765380859375,-0.0062310033440589,-0.5905494794130325,0.4152417931500822,-0.2542506158351898,0.2491394430398941,0.2728255689144134
1772808280165814300,1.264814208984375,-0.3022340573251247,-0.9272048617780208,0.3806197579063475,-0.1311631649732589,0.1199549436569213,0.3512769937515259
1772808280185862400,1.2848623046875,-0.5633849936336278,-0.8885217876404523,0.2734203065013513,0.0459676720201969,-0.0464369319379329,0.3287678062915802
1772808280205911300,1.304911376953125,-0.7207938159167766,-0.9044248746931552,0.3014202932568267,0.1377967447042465,-0.2543272674083709,0.3109327852725982
1772808280225960400,1.32496044921875,-0.4545698141276836,-0.9724006788104772,0.3683336923070252,0.1526325643062591,-0.3342436254024505,0.3645834028720855
1772808280246008300,1.34500830078125,-0.458289711433649,-0.3507587265193462,0.0188611696733161,0.2116251736879348,-0.3379690647125244,0.3303344249725342
1772808280266057500,1.365057373046875,-0.3053139031618833,-0.0147106623977422,-0.1655727847174741,0.3480370938777923,-0.2092321217060089,0.2795513868331909
1772808280286106400,1.3851064453125,0.2364782673448324,0.3435457264006137,-0.2762063570233061,0.3864373862743377,-0.0236159060150384,0.24424409866333
1772808280306154500,1.405154541015625,0.7993652483284472,0.5811176342010498,-0.3368888623273,0.2816207706928253,0.1012278795242309,0.1798069924116134
1772808280326203400,1.425203369140625,1.0713327622056006,0.7530255219578742,-0.3572538241596892,0.1948259025812149,0.1729276329278946,0.0735477060079574
1772808280346252500,1.44525244140625,1.2782014887064694,0.953435866099596,-0.3303278233112767,0.0831496194005012,0.1303035169839859,-0.039474431425333
1772808280366301200,1.46530126953125,1.4966080927878618,1.1509949124634264,-0.1350723685815464,-0.0830136910080909,0.0435207411646842,-0.0988542884588241
1772808280386349300,1.485349365234375,1.5273738179296257,1.489242532455921,-0.0207416953234467,-0.1754348874092102,-0.023301200941205,-0.0951080396771431
1772808280406398200,1.505398193359375,1.6004057363927364,1.7376631665289402,0.0130455695965792,-0.1977522075176239,-0.0538497231900692,-0.05613898858428
1772808280426447400,1.525447265625,1.8109399996638296,1.886366119787097,0.1412308364123571,-0.2855956852436065,-0.0657757967710495,0.0145135652273893
1772808280446495200,1.5454951171875,1.997973560360074,2.0270447565436363,0.0674781659266445,-0.419239193201065,-0.0340907089412212,0.0440474636852741
1772808280466544400,1.56554443359375,2.089942819005251,2.130598069998622,0.0621135427541099,-0.5129168629646301,0.0224224105477333,0.0377912372350692
1772808280486593500,1.585593505859375,2.406599369436502,2.236864149543643,0.1198463588065002,-0.680314838886261,0.0412238202989101,0.0507323890924453
1772808280506642400,1.605642333984375,2.586097858452797,2.3597172067523,0.1062969678736291,-0.8286592364311218,-0.016932625323534,0.0197900850325822
1772808280526690800,1.62569091796875,2.5035890865921973,2.5717063450068234,-0.0221373509329278,-0.8647518754005432,-0.0659755170345306,-0.0182068198919296
1772808280546739700,1.64573974609375,2.405418050697446,2.729105814939737,-0.1883219200063496,-0.7980008721351624,-0.0717175528407096,-0.0253720097243785
1772808280566788900,1.665788818359375,2.675366041445732,2.858805961564183,-0.2318379124593921,-0.7019493579864502,0.020804688334465,0.0247026681900024
1772808280586836700,1.685836669921875,2.9626258170008657,2.917835073637962,-0.2779874682864174,-0.5643388032913208,0.1725168079137802,0.1183587238192558
1772808280606886000,1.705885986328125,2.891317653590441,2.840681691330671,-0.4490457900092005,-0.3389173150062561,0.3030827045440674,0.1638972163200378
1772808280626934800,1.725934814453125,2.8798423198521137,2.540172558102012,-0.4149139859678223,-0.0744877830147743,0.3550371825695038,0.2062209397554397
1772808280646983000,1.74598291015625,2.2500071242332456,1.8694290135115383,-0.1872181965481489,0.0790958702564239,-0.0196283292025327,0.2235977351665496
1772808280667031800,1.76603173828125,1.3030278869271277,0.6492559354037046,0.1628056763580068,0.1151819303631782,-0.6953523755073547,0.2269904166460037
1772808280687081000,1.7860810546875,-1.3493518312066792,-0.6105272685587406,0.295316587820556,0.1849153637886047,-1.3490564823150637,0.2741821706295013
1772808280707129600,1.806129638671875,-4.605603451663256,-1.5476280859291554,-0.1462151550304144,0.3234919905662536,-1.4052037000656128,0.3275082111358642
1772808280727178000,1.826177978515625,-7.451653392028808,-2.726914442375302,-0.9852521232075988,0.3969198763370514,-0.7240502238273621,0.2865967154502868
1772808280747226600,1.8462265625,-7.597218631783127,-3.4041794976890083,-2.3159780182689427,0.2299879193305969,0.7657528519630432,-0.1807248294353485
1772808280767275800,1.86627587890625,-6.688196492427587,-4.125362020662426,-2.133570363807678,-0.1811023354530334,2.0487060546875,-0.6793841123580933
1772808280787323600,1.88632373046875,-7.186461655896902,-5.4355035389870405,-0.6088609062490985,-0.3534508347511291,2.078265190124512,-0.9328959584236144
1772808280807372800,1.906372802734375,-8.78190363240242,-7.006579720520973,1.2528501898288726,-0.2161688506603241,0.7518864274024963,-0.9220485091209412
1772808280827422000,1.926421875,-11.195396853005883,-8.21386116835177,2.4717513483047484,0.0309211891144514,-0.3398159146308899,-0.4705685377120971
1772808280847470800,1.946470947265625,-14.491193132865428,-9.884108502733708,2.1816544496275485,0.431030124425888,-0.5790958404541016,0.1170870289206504
1772808280867519000,1.96651904296875,-17.421833912062645,-12.015792029881476,0.6882105930242687,0.9479681849479676,-0.5488448143005371,0.2725890874862671
1772808280887568000,1.98656787109375,-17.93257511074543,-13.561740199899672,-0.9549245702873916,1.1817924976348877,-0.2410332262516021,0.0929364413022995
1772808280907616800,2.00661669921875,-16.67847053694129,-13.572514107370376,-2.569733583629131,1.433760404586792,0.2806421220302582,-0.2821784615516662
1772808280927664600,2.02666455078125,-13.27815355989933,-11.801022320997712,-3.539517942461371,1.8412379026412964,0.6812078952789307,-0.880451500415802
1772808280947713800,2.0467138671875,-7.671815315344929,-8.096874372828006,-3.509756133665144,2.046309232711792,1.1376177072525024,-1.5621920824050903
1772808280967762700,2.0667626953125,-1.5684557699024675,-2.495579383137822,-2.969493364682793,2.008707046508789,1.8052849769592283,-2.006762981414795
1772808280987811800,2.086811767578125,3.55677127507925,3.73631652584672,-2.144159123969823,2.0583860874176025,2.262763500213623,-1.8916988372802732
1772808281007859700,2.106859619140625,6.08329583157897,8.459887016242742,-1.2663536683939396,2.758143424987793,1.8507848978042605,-1.2535042762756348
1772808281027908900,2.126908935546875,7.84255532836616,12.547359743493796,-0.9327072585865854,3.667026281356812,0.9398303031921388,-0.4169582724571228
1772808281047958000,2.1469580078125,9.736047939032316,15.099664053416252,-0.5775666637212038,4.189691543579102,0.0530590787529945,0.331993967294693
1772808281068006000,2.167005859375,11.328768381619453,16.451370923316478,0.0381608038291335,3.86720871925354,-0.2751421630382538,1.0443310737609863
1772808281088054800,2.1870546875,11.401012949097156,17.371697131496667,-0.6840111685730517,3.0574700832366943,-0.3562856018543243,1.2650171518325806
1772808281108103700,2.207103759765625,10.660422545820474,18.08630670582056,-1.918117348834872,1.8917630910873413,-0.6168139576911926,0.6169020533561707
1772808281128152800,2.22715283203125,9.346467606687543,17.605061650735138,-1.8023636022374032,0.2904751598834991,-0.6467664837837219,-0.12722247838974
1772808281148200700,2.24720068359375,6.978561832782626,17.33947945398092,-1.3588709163106978,-1.0221413373947144,-0.3905056715011596,-0.5749454498291016
1772808281168249900,2.267249755859375,4.472577083225548,17.428147917515037,-0.7258990301012992,-1.6239367723464966,0.0916384309530258,-0.4933371841907501
1772808281188298800,2.287298828125,2.4609789021387694,17.032080561238526,-0.0381697177879512,-1.4673103094100952,0.4284405708312988,0.0348851010203361
1772808281208347000,2.307346923828125,2.263261158081889,15.614256082308293,0.3152121968418359,-1.2422934770584106,0.1576773226261139,0.5300262570381165
1772808281228395800,2.327395751953125,2.6954069589555263,13.95138015347719,0.223096661593765,-1.3478882312774658,-0.1966653615236282,0.8697342276573181
1772808281248444700,2.347444580078125,2.158821124920249,11.815340769207475,-0.6119922265447676,-1.4145092964172363,-0.2583204209804535,1.0049821138381958
1772808281268492800,2.367492919921875,1.2624439476042986,8.92924114252627,-1.3922510617345571,-1.5106359720230105,-0.0405355580151081,0.9977443814277648
1772808281288541700,2.387541748046875,-0.4071422925204038,4.777950899881124,-1.861292468807101,-1.818681597709656,0.3741554319858551,0.9012616872787476
1772808281308590800,2.4075908203125,-2.782012060219049,-1.227009646129608,-1.7479186030834912,-2.0153825283050537,0.6820345520973206,0.7950526475906372
1772808281328639700,2.4276396484375,-7.232357145631313,-9.105699533194302,-0.7887297264151275,-2.183644771575928,-0.5980766415596008,0.6994967460632324
1772808281348688000,2.44768798828125,-11.504801824873685,-16.032143640726805,-1.058172105728835,-2.2372355461120605,-1.0422441959381104,0.4367786049842834
1772808281368736800,2.46773681640625,-15.324597428917883,-19.526739322400093,-2.091000803625584,-1.921372652053833,0.1754020005464553,0.5735149383544922
1772808281388786000,2.487785888671875,-17.84351735563278,-23.561064981353283,-2.5668124354854225,-0.7336231470108032,0.9543203711509703,1.147163152694702
1772808281408833800,2.507833740234375,-16.668327913111447,-27.063835786175726,-2.0812578466378158,0.9218146204948424,0.3502835929393768,1.7409175634384155
1772808281428883000,2.527883056640625,-11.89058977919817,-28.323793762183183,-2.33002641736567,1.895977020263672,-0.7606838345527649,1.6888210773468018
1772808281448931600,2.547931640625,-7.993934807357191,-26.454576930117607,-3.016891075673699,1.8050392866134644,-1.356855392456055,0.8850817680358887
1772808281468980700,2.567980712890625,-5.729275472915172,-20.5910835408926,-4.848013154883683,1.1953179836273191,-0.4809732139110565,-0.5774366855621338
1772808281489028600,2.588028564453125,-4.669257885450125,-12.213187410116197,-3.862316356648504,0.7221144437789917,0.8400222659111023,-1.810453176498413
1772808281509077800,2.608077880859375,-4.43516972811222,-3.212936210343241,-0.0493245143350213,1.1576353311538696,1.28152596950531,-1.70354425907135
1772808281529127400,2.62812744140625,-4.026285560360551,4.08979094106555,2.2006875052690504,2.489009141921997,0.401757538318634,-0.6838057041168213
1772808281549175600,2.648175537109375,-0.519036733341217,9.740679105964302,1.9558860846064985,3.386796236038208,-0.5128400921821594,0.2268820703029632
1772808281569224400,2.668224365234375,3.874010593834519,13.717695316243171,0.2235121105268597,3.165325164794922,-0.5656489133834839,0.4036034345626831
1772808281589273300,2.6882734375,6.458418014982343,16.51444083521366,-0.9656062694299964,2.1943106651306152,0.0059934258460998,0.0695548728108406
1772808281609321500,2.708321533203125,7.0217901491343975,17.522023302042484,-0.8495916799392551,1.2993866205215454,0.2832126915454864,-0.2614705860614776
1772808281629370400,2.728370361328125,6.521700108325481,18.332174148279428,-0.6243079566299915,0.9403645992279052,0.2505170106887817,-0.2602246403694153
1772808281649419300,2.748419189453125,7.300172790750861,17.981815234732625,0.0250349994700402,0.5823259949684143,-0.0235465392470359,0.0300933923572301
1772808281669468400,2.768468505859375,7.832155514904856,17.175446245121954,-0.1564803823266178,0.0767287760972976,-0.304224818944931,0.1937374323606491
1772808281689516300,2.788516357421875,7.980241213047504,16.35890072941184,-0.7212674978431314,-0.7068125009536743,-0.4525968134403229,0.033916488289833
1772808281709565400,2.8085654296875,7.578985640478134,15.48823900811076,-1.123104012105614,-1.7193961143493652,-0.2631794214248657,-0.3184471130371094
1772808281729614600,2.828614501953125,5.71008737284243,14.81745220890045,-1.059356420142576,-2.390373706817627,0.080539233982563,-0.5934628248214722
1772808281749662500,2.848662353515625,3.4401126885965465,14.019313287496566,-0.5743295814961195,-2.5440173149108887,0.1113537549972534,-0.637618899345398
1772808281769711600,2.868711669921875,1.1241162578880786,12.13831483222246,0.1531291722025722,-2.369544744491577,-0.1618577241897583,-0.4000727534294128
1772808281789760300,2.88876025390625,-1.1156021120429038,9.738864750018717,0.2125361776780337,-2.236961603164673,-0.8285260200500488,-0.1701569706201553
1772808281809809400,2.908809326171875,-4.0492403194904325,6.785970637959242,-0.7041116342503577,-2.2040224075317383,-1.1584564447402954,-0.1727659702301025
1772808281829857300,2.928857177734375,-6.786665049964189,3.226898684722185,-1.4171794590249658,-2.202827453613281,-0.2993047535419464,-0.1626153290271759
1772808281849906400,2.948906494140625,-9.441407990097998,-0.044922260788083,-1.810663520810008,-2.009204626083374,0.5503867268562317,-0.2217682152986526
1772808281869955300,2.968955322265625,-10.259911654138564,-3.433261799788475,-1.5914622592195868,-1.368781566619873,1.0633918046951294,-0.2312653809785843
1772808281890003500,2.98900341796875,-9.278037044540048,-6.790679546302557,-0.490322241640836,-1.1007511615753174,0.516469419002533,0.0438248813152313
1772808281910052400,3.00905224609375,-10.053304208922386,-7.701438300192356,-1.2696442343719303,-1.0973799228668213,-0.6038904190063477,0.1843632161617279
1772808281930101500,3.0291015625,-11.843802309060097,-10.42033017963171,-1.5645470720261334,-1.3225756883621216,-0.9880431890487672,0.5975819826126099
1772808281950149400,3.0491494140625,-12.875410963642596,-13.15793143571615,-1.8657769207447763,-1.4877848625183103,-0.3555869162082672,0.4704332947731018
1772808281970198300,3.0691982421875,-12.300545375573634,-17.36357812244892,0.5348635402873159,-2.001220226287842,0.3162134289741516,0.1592394411563873
1772808281990247400,3.089247314453125,-13.409604349583386,-20.448792208242416,3.41978681666553,-2.34151291847229,-0.0763838216662406,0.0942776203155517
1772808282010296300,3.10929638671875,-15.823198107951878,-20.349439853608608,3.3179397226065395,-1.8146663904190063,-0.8884986042976379,0.0264492370188236
1772808282030344400,3.129344482421875,-16.229267802804706,-17.45515399786234,2.4507249268889426,-0.6252892017364502,-0.5525058507919312,-0.103979967534542
1772808282050393300,3.149393310546875,-12.305326764631271,-13.143940319764614,1.9363269592642784,0.5341134071350098,0.4683684408664703,-0.1922324299812317
1772808282070442500,3.1694423828125,-6.781344731724261,-7.872098233714699,1.5402920439526435,1.4199442863464355,0.8615428805351257,-0.2033287733793258
1772808282090490400,3.189490478515625,-1.338631699749827,-1.471034675592184,0.9059232234921306,2.1790754795074463,0.5062757134437561,-0.0478164441883564
1772808282110539500,3.20953955078125,3.6108477331817146,4.384301710662245,-0.2662421950329095,2.6018903255462646,0.2473282366991043,0.1744686663150787
1772808282130588400,3.22958837890625,6.7461185200423,8.850392062216997,-1.3656192215271292,2.7947890758514404,0.2608598172664642,0.268482357263565
1772808282150636500,3.249636474609375,8.393472470092773,11.743920377594232,-1.7516478527396917,3.082188606262207,0.1121837198734283,0.265790045261383
1772808282170685200,3.269685302734375,9.588210662692784,12.889677973926066,-1.4436036478310823,3.183391094207764,-0.4303213655948639,0.2667387127876282
1772808282190734300,3.289734375,9.59652197944224,13.245705580759047,-1.2129353088740258,2.9151201248168945,-1.015389919281006,0.319019466638565
1772808282210783500,3.309783447265625,7.996143715578317,12.934273486977816,-1.3190917174994945,2.240255832672119,-1.34653639793396,0.2561643719673157
1772808282230831400,3.329831298828125,5.483671065306663,12.606014177036284,-2.1087715842463077,1.3499608039855957,-1.145919680595398,-0.2199014723300933
1772808282250880500,3.349880615234375,2.9953087739408013,12.549603138506413,-2.7375287753701207,0.6947725415229797,-0.3851469159126282,-0.9689086079597472
1772808282270929400,3.369929443359375,2.0271783197954294,12.874716551637649,-2.1056781482756137,0.2963469922542572,0.3815580904483795,-1.4979515075683594
1772808282290977500,3.3899775390625,2.480260233452916,12.86716219073534,-0.5414607465952634,0.0796496570110321,0.618621826171875,-1.569097876548767
1772808282311026400,3.4100263671875,3.5742677688032387,12.521963436430692,1.0811930619627237,-0.1007461845874786,0.2280089855194091,-1.229250192642212
1772808282331075300,3.430075439453125,4.032783397947251,12.464704841160774,1.584636650983244,-0.1205054372549057,-0.0667627900838851,-0.7182134985923767
1772808282351123500,3.45012353515625,4.39248092546463,11.943411853325369,1.8103816351287063,-0.0820567309856414,0.1902145892381668,-0.0960925742983818
1772808282371172400,3.47017236328125,4.818545360597968,10.394625245010852,1.860932403323054,-0.1768470555543899,0.2329732179641723,0.4270438551902771
1772808282391221200,3.49022119140625,4.904022334614396,7.872253132015466,1.8847395414985717,-0.282221257686615,0.0890821665525436,0.9176275730133056
1772808282411270400,3.5102705078125,4.94851321824789,3.485369003644585,2.3233258968137203,-0.2927792370319366,-0.1055410578846931,1.4009376764297483
1772808282431318300,3.530318359375,4.406704096606374,-1.6545201884180307,2.660789526821673,-0.6993057131767273,-1.109793186187744,1.7748560905456543
1772808282451367400,3.550367431640625,-0.5774912603974341,-7.9544263883113855,1.1627867648050187,-1.501278042793274,-2.647162675857544,1.5052621364593506
1772808282471416600,3.57041650390625,-6.336258200734854,-14.420010057139397,-1.6872789870731533,-2.1887319087982178,-2.023371934890747,0.8292948007583618
1772808282491464400,3.59046435546875,-10.91289742372036,-19.058864621019364,-4.091701743122935,-2.901543378829956,-0.005696184001863,0.102210946381092
1772808282511513300,3.610513427734375,-15.97381420135498,-24.563660307419298,-3.371855729450285,-2.931362628936768,1.0220903158187866,-0.6165006756782532
1772808282531561700,3.630561767578125,-19.20372784998417,-26.9020448032856,-0.9252529239926488,-2.1164543628692627,1.060338020324707,-0.7857155203819275
1772808282551609600,3.650609619140625,-19.322371765065192,-26.050798561072348,0.2189130192335694,-0.9453558325767516,0.8503013849258423,-0.360062688589096
1772808282571658500,3.670658447265625,-17.986932139354945,-21.98682127569914,-0.5103484730381518,0.9540236592292786,0.8993166089057922,0.2359987646341323
1772808282591707400,3.690707275390625,-12.213517080461978,-16.184528497368095,-1.182333469057083,2.5454015731811523,0.9399220943450928,0.433942973613739
1772808282611756500,3.710756591796875,-4.327113842540979,-8.94725435360074,-1.8152600548200308,2.850831985473633,0.5836853981018066,-0.1973942816257476
1772808282631804400,3.730804443359375,1.9705793574780224,-0.9662018241703508,-2.125117885021865,2.434757947921753,0.4116451144218445,-1.2864123582839966
1772808282651853600,3.750853515625,5.768796751442551,6.656687839964032,-0.7825999184232205,1.9083441495895384,0.7227320671081543,-1.5013402700424194
1772808282671902500,3.77090234375,5.702241920039057,12.59604340264201,0.9949721377111972,2.2551372051239014,0.4012852013111114,-0.7541406750679016
1772808282691950600,3.79095068359375,6.97935619803071,15.615083765304089,1.2636280428223312,2.3426623344421387,-0.3443954288959503,-0.0079869292676448
1772808282711999500,3.81099951171875,8.505549281743168,16.410962925082444,0.3023889556258917,1.470089077949524,-0.4781387448310852,0.1114184632897377
1772808282732048400,3.83104833984375,8.407105858647823,15.86008494632244,-0.6612611382350325,0.1519653350114822,0.0458573326468467,-0.2015024870634079
1772808282752096500,3.851096435546875,6.947835855129361,14.508213241249322,-0.9250437382213772,-0.7834796905517578,0.3810501098632812,-0.5618671178817749
1772808282772145400,3.8711455078125,4.63470679655075,13.407967688292263,-0.771012137286365,-1.0965980291366575,0.2681982219219208,-0.5712649822235107
1772808282792194600,3.891194580078125,2.7717601307958364,12.714033822250366,-0.9367069957472384,-0.8787195682525635,-0.1324675679206848,-0.4248075783252716
1772808282812242400,3.911242431640625,2.7986004991874096,11.749195103126764,-1.1921207035779953,-0.8890676498413086,-0.263129860162735,-0.2638075053691864
1772808282832291600,3.93129150390625,3.506190842399001,11.10769518867731,-1.8427659013830124,-1.2922996282577517,0.1726231575012207,-0.2896783351898193
1772808282852340500,3.951340576171875,3.417404889965057,10.490039091151951,-1.8752832924976943,-1.7032524347305298,0.5892338156700134,-0.3352656662464142
1772808282872389600,3.9713896484375,2.281383090227842,9.870643456482886,-1.6217109747499228,-1.5824586153030396,0.4331047236919403,-0.2636796534061432
1772808282892437500,3.9914375,2.3138041813611983,8.69385359302759,-1.3389353588715194,-1.3603862524032593,0.3500059247016907,0.0777787119150161
1772808282912486700,4.011486572265625,2.7101830878049133,7.392513220795989,-1.476705268574506,-1.177232265472412,0.3710120618343353,0.4002535045146942
1772808282932535300,4.031535400390625,2.420859365457296,5.066953719711304,-1.4127593044951556,-0.9204455614089966,0.3331803679466247,0.7417902946472168
1772808282952583400,4.05158349609375,1.7265239328771829,1.7687451180130245,-1.4989352205611763,-0.6795750856399536,0.2172113955020904,0.8859900236129761
1772808282972632300,4.07163232421875,0.0877349820762872,-2.829039768853784,-1.144874529886991,-0.5519347190856934,-0.2417086213827133,0.8005998730659485
1772808282992681500,4.091681396484375,-3.099904289925098,-7.530220148265362,-1.0128247513964772,-0.578510046005249,-1.0273717641830444,0.3944176435470581
1772808283012729300,4.111729248046875,-8.298507536762953,-10.395327840322256,-1.6114410712786018,-0.7627288699150085,-0.9822242856025696,-0.3609091639518738
1772808283032778500,4.131778564453125,-12.289544673609733,-13.534826474010943,-0.5944383035451174,-0.9259461760520936,0.4811435043811798,-0.922413408756256
1772808283052827600,4.15182763671875,-13.702823910325764,-15.874377675569056,2.0189212174512443,-1.380667805671692,1.163440823554993,-1.0488688945770264
1772808283072876500,4.17187646484375,-15.321895768743753,-18.030828564226628,5.195523401001095,-1.4964892864227295,0.4197126030921936,-0.7870036959648132
1772808283092924700,4.191924560546875,-16.457791311752796,-18.594935442394014,6.469940694993734,-0.9383436441421508,-0.2829813063144684,-0.1091544851660728
1772808283112973600,4.2119736328125,-16.451431713593006,-17.559304108166693,5.796850879538059,0.2634642720222473,-0.7980274558067322,0.7990062832832336
1772808283133022500,4.2320224609375,-14.11296772274971,-13.721689938837288,3.480014783135056,1.4922852516174316,-1.235392928123474,1.4871407747268677
1772808283153070300,4.2520703125,-8.998010727369785,-7.942324447107315,0.8509910984084009,2.2489173412323,-1.2085180282592771,1.5449118614196775
1772808283173119500,4.272119384765625,-3.123776748421788,-3.173460524523258,-0.6026254093930125,2.13537073135376,-0.8296659588813782,1.1402243375778198
1772808283193168400,4.29216845703125,1.0442173762649296,1.0377893890440464,-1.3583122595146295,1.6081041097640991,-0.189575046300888,0.5103827118873596
1772808283213216500,4.312216552734375,3.281190831401944,5.41403814163208,-1.7525540077991784,1.3850979804992676,0.3246140778064728,-0.0666260346770286
1772808283233265400,4.332265380859375,5.072161225226521,8.632481717219948,-0.884753375017643,1.5150541067123413,0.1063024923205375,-0.2574686706066131
1772808283253314600,4.352314453125,7.101344747364521,10.756166062307358,-0.185314481818676,1.6014059782028198,-0.2281893491744995,-0.1420436054468155
1772808283273362400,4.372362548828125,8.406610184085368,11.665774477118251,0.1614654041975736,1.4770547151565552,-0.4895951151847839,-0.0036298022605478
1772808283293411600,4.39241162109375,8.021994780671596,12.00758066637516,0.159250943018496,1.4172121286392212,-0.6475844383239746,0.0975078269839286
1772808283313460500,4.41246044921875,7.661292752286791,12.24212124365568,-0.0018467238452285,1.2205866575241089,-0.5637089014053345,0.1689787358045578
1772808283333508600,4.432508544921875,7.810045974427461,12.20318039536476,-0.5874263058912008,0.5382357239723206,-0.4911843538284302,-0.1151589825749397
1772808283353557500,4.4525576171875,7.117212178581952,12.2371270886302,-1.047565298453346,-0.3690583705902099,-0.207939475774765,-0.6661995053291321
1772808283373606400,4.4726064453125,5.392038491269946,12.524003417825698,-0.5830828698594123,-0.9030241370201112,0.3303388953208923,-0.8862930536270142
1772808283393655600,4.492655517578125,3.866273862102628,12.419399718534946,0.4172664308454841,-0.931792140007019,0.5580594539642334,-0.6676589846611023
1772808283413703400,4.512703369140625,3.1467712550401687,12.062453243291378,1.0334207455057651,-0.6591076254844666,0.3071729242801666,-0.2903379201889038
1772808283433752600,4.532752685546875,3.6726729057148098,11.224589045220611,1.39562565273419,-0.5700514912605286,0.0411588139832019,0.1104979291558265
1772808283453801500,4.552801513671875,4.167008328519762,10.334712920361756,1.2606155631333589,-0.7148880958557129,0.1183159872889518,0.4521600604057312
1772808283473849600,4.572849609375,3.5648271557629108,8.576423145389557,0.7432762813597917,-0.756199836730957,0.2172587811946869,0.6741094589233398
1772808283493898500,4.5928984375,2.6461454999193545,6.018882688379287,-0.0255144535500556,-0.7464903593063354,0.1620821952819824,0.7277784943580627
1772808283513947400,4.612947509765625,1.3658026152700184,2.345706801578402,-0.4752087705958634,-0.7849723696708679,0.0188417751342058,0.7211282849311829
1772808283533996300,4.632996337890625,-0.3512041321992873,-2.5817075145393606,-0.5957622456252575,-1.0726484060287476,-0.030779879540205,0.4565865099430084
1772808283554045200,4.653045166015625,-3.5934219666063782,-8.036650498011708,-0.709823216830194,-2.0916144847869877,0.0696353465318679,-0.1720157116651535
1772808283574094300,4.67309423828125,-7.996200414201617,-13.132857784736157,-0.5803105556018651,-2.678086280822754,0.7461630702018738,-1.0600215196609497
1772808283594142200,4.69314208984375,-12.105241414660217,-17.014034032416344,-0.0851343711238354,-3.2173044681549072,1.1337870359420776,-1.4839396476745603
1772808283614191400,4.71319140625,-17.622521319580077,-19.81512605615854,1.4266557279005645,-2.9656660556793213,0.655912458896637,-1.3717844486236572
1772808283634240300,4.733240234375,-21.75645418471098,-21.312650094747543,2.450482934826612,-1.5894986391067505,0.0073587726801633,-0.6271697282791138
1772808283654288400,4.753288330078125,-22.35253557928801,-20.954055267775058,1.937113433466852,0.4875923693180084,-0.4847169816493988,-0.0309825967997312
1772808283674337000,4.7733369140625,-17.709173182594775,-18.73410659719705,1.3652061106815934,1.9577938318252563,-0.939716100692749,0.0046132272109389
1772808283694386200,4.79338623046875,-10.233098466014862,-13.91458450052142,1.09309378150627,2.148927927017212,-0.6254014372825623,-0.3716437816619873
1772808283714435300,4.813435302734375,-3.6963702999055386,-7.4371864752590655,0.7120002686083317,1.367414474487305,0.1775764375925064,-0.953353226184845
1772808283734483200,4.833483154296875,0.3844599205911159,-0.8143412836641073,0.5346196485288441,0.6318055987358093,0.9345803260803224,-1.3451608419418335
1772808283754532400,4.853532470703125,0.5758627824127673,5.956967207214236,1.1869546991169453,1.1884734630584717,1.2373665571212769,-0.780519425868988
1772808283774581200,4.873581298828125,2.111201880133152,10.50451536027193,1.3442679520711305,2.274075508117676,0.7056987285614014,0.2060033679008484
1772808283794629400,4.89362939453125,6.586681406801938,13.164745791906116,0.3941052624233067,2.254829406738281,0.2429688870906829,0.8734554052352905
1772808283814678300,4.91367822265625,10.151113425767422,14.15509772247076,-1.1541090989612042,1.4138067960739136,0.3396882116794586,0.920726239681244
1772808283834727200,4.93372705078125,11.904064177799224,13.791058658617734,-2.3807618944771587,0.3489829897880554,0.7821242213249207,0.5584850311279297
1772808283854775300,4.953775390625,10.40662197227478,13.02844814671278,-1.8089460493676364,-0.2071227133274078,0.6646379232406616,0.5054318308830261
1772808283874824200,4.97382421875,8.441954469189048,12.46904082453847,-1.2820458891749382,0.0048398659564554,-0.0828249081969261,0.6989750266075134
1772808283894873000,4.993873046875,8.562999015671014,11.969376315665244,-1.221448212610185,-0.1879658997058868,-0.5651577115058899,0.850746750831604
1772808283914921200,5.013921142578125,8.042905466753243,11.60608427078724,-1.688330103561282,-0.6542599201202393,-0.3074346780776977,0.7758880257606506
1772808283934970400,5.033970458984375,6.438306370323896,11.2445680034101,-2.0719480203703045,-0.983850121498108,0.367054134607315,0.5770728588104248
1772808283955019300,5.054019287109375,5.172600790575147,10.10441246486902,-1.7718046517141162,-1.2043098211288452,0.3768032491207123,0.3984758555889129
1772808283975068400,5.074068359375,4.311052934578061,8.780493765604495,-1.5426410912968218,-1.348798155784607,-0.1167091876268386,0.2357832491397857
1772808283995116300,5.0941162109375,3.2972809654593465,7.684733249107003,-1.3557067531913518,-1.2410091161727903,-0.3329145014286041,0.1626634448766708
1772808284015165400,5.11416552734375,2.2740362345963714,6.830318313729762,-1.1335798134125767,-0.8559030294418335,-0.1855826526880264,0.3334395289421081
1772808284035214000,5.134214111328125,1.6496189723730086,5.336650950568914,-1.110168688817322,-0.5216301679611206,-0.2460141479969024,0.4190479516983032
1772808284055262200,5.15426220703125,0.7724550295710563,3.18130889993608,-1.0785195319045335,-0.3069905340671539,-0.5369612574577332,0.463010162115097
1772808284075311000,5.17431103515625,-0.0562263296127319,-0.5994195990890264,-0.6312986923001707,-0.4424989223480224,-0.9278688430786132,0.3300699889659881
1772808284095360300,5.1943603515625,-2.0369103169977665,-5.696494316297769,0.3446159859806299,-1.2889739274978638,-1.2968608140945437,0.186252012848854
1772808284115408100,5.214408203125,-8.438473641335964,-8.84557267923653,-0.7044160970896483,-2.2535524368286133,-1.6812937259674072,-0.2493386268615722
1772808284135457300,5.234457275390625,-14.276058682322502,-12.565211042004822,-0.5883378677781671,-2.2022593021392822,-0.5290234088897705,-0.4642915725708008
1772808284155506400,5.25450634765625,-18.27088001388311,-16.261312461841104,0.4135807280700653,-2.108942031860352,0.6846689581871033,-0.0225102603435516
1772808284175554300,5.27455419921875,-22.631116373825076,-17.68975068924427,0.220676229513809,-1.3835773468017578,0.7457449436187744,0.2883075773715973
1772808284195603500,5.294603515625,-23.225523697710035,-17.513440182614325,-0.3355501976020634,-0.3161511421203613,0.0621984787285327,0.3737570345401764
1772808284215652400,5.31465234375,-19.83685156575441,-14.473570966935156,-1.7912892505154012,0.4151709377765655,-0.133023053407669,0.3838600814342499
1772808284235700500,5.334700439453125,-14.96602013760209,-9.486955104786157,-2.684702609589696,1.0627890825271606,0.4445033073425293,0.0549815781414508
1772808284255749000,5.3547490234375,-7.107635371941328,-4.434794465059042,-1.2708476188123226,1.276735782623291,1.4592937231063845,-0.3422020077705383
1772808284275798300,5.37479833984375,1.1429396163016556,-0.9353431600481272,0.2728850671134889,0.9730345010757446,1.9983065128326416,-0.3518415689468384
1772808284295846100,5.39484619140625,5.731056511113048,1.8326994115293025,0.1837852264247834,0.8466790318489075,1.2532950639724731,-0.3425844013690948
1772808284315895300,5.414895263671875,7.31438602502048,4.3516532405138015,-0.0951145709335803,1.3536418676376345,0.1770529299974441,-0.1851469129323959
1772808284335944200,5.434944091796875,8.383934826418757,6.865197903931141,-0.2346995672345161,1.982011675834656,-0.4384968280792236,0.0979209840297699
1772808284355992300,5.454992431640625,10.008538015478848,8.625490835419297,-0.5117749256446957,2.045294523239136,-0.284449428319931,0.2145150452852249
1772808284376041200,5.475041259765625,10.820509062880276,9.519131865769625,-0.4805813304796815,1.616424798965454,0.0610839501023292,0.149045929312706
1772808284396090400,5.49509033203125,10.660295120048522,9.435853863102198,-0.0770082747481763,1.044061541557312,-0.0557716228067874,0.0854255259037017
1772808284416139300,5.51513916015625,9.998061045128107,9.746052615696192,0.1471612767741084,0.3642480075359344,-0.5590172410011292,0.0188610907644033
1772808284436187400,5.5351875,8.476919984108209,10.242149202954767,0.0804405872844159,-0.2923867106437683,-0.9998071789741516,-0.1987078934907913
1772808284456236300,5.555236328125,5.531112030917406,11.096925957381725,0.2999160627063363,-0.2847826182842254,-0.8366346955299377,-0.2135074287652969
1772808284476285200,5.57528515625,4.5289726319253445,11.242420469987392,1.0037604243226348,-0.1502271741628646,-0.1604286432266235,0.1140391007065773
1772808284496333300,5.595333251953125,5.140996276521682,10.865016897648571,1.2671607469931243,-0.3588131666183471,0.1359525024890899,0.4599663317203522
1772808284516382200,5.61538232421875,5.363913636025786,10.036488683199885,1.3630366576880215,-0.6397960782051086,-0.2301259040832519,0.7502990365028381
1772808284536430300,5.635430419921875,4.743772151425481,9.25100699879527,0.4995147982042282,-0.5195006132125854,-0.428369790315628,0.8301066756248474
1772808284556478200,5.655478271484375,4.365118286764622,8.117155528834461,-0.2121582112111151,-0.2720612585544586,0.0693936049938201,0.9467922449111938
1772808284576527400,5.67552734375,3.777011524328589,6.499841327738761,-0.6800382463540882,-0.2479485720396042,0.4528215229511261,1.0238347053527832
1772808284596576300,5.695576171875,1.7558932352244854,3.240318138265609,-1.359048172573745,-0.1186459809541702,0.2687755823135376,0.9755959510803224
1772808284616624400,5.715624267578125,-1.3239040862172842,-2.426063363841176,-1.5671429337382317,0.1158869937062263,-0.3663867712020874,1.0073541402816772
1772808284636673300,5.73567333984375,-5.821207906681299,-10.109073442417383,-2.25934734563902,0.4509170353412628,-1.0902103185653689,0.7455732226371765
1772808284656722400,5.755722412109375,-11.335627161473036,-15.481761336529257,-4.378292241114377,0.6651976108551025,-1.313851237297058,-0.1987464278936386
1772808284676770300,5.775770263671875,-12.186987969976665,-19.393727859270573,-3.3416604976728554,0.4053216278553009,0.4633525907993316,-0.7803037762641907
1772808284696819200,5.795819091796875,-12.320935837173462,-21.669044781327248,-1.3756902414254844,-0.5962306261062622,1.7790642976760864,-0.6972226500511169
1772808284716868000,5.8158681640625,-14.934771597379443,-21.060199766767024,0.2502184407426044,-0.8282065391540527,1.5028356313705444,-0.0226336102932691
1772808284736916200,5.835916259765625,-17.321162876045705,-19.988850637948516,0.0804196175616234,0.6046872735023499,0.0157862734049558,1.1312708854675293
1772808284756965000,5.855965087890625,-14.177227721214294,-17.811053009879586,-1.800342617803812,2.2742950916290283,-0.9902187585830688,1.3519117832183838
1772808284777014300,5.87601416015625,-6.231188052976131,-14.540131643557547,-2.4905472341895103,1.9725730419158936,-0.5989446043968201,0.7437397837638855
1772808284797062100,5.896062255859375,-0.906255012729764,-9.238952403864264,-3.14424232108444,0.820139467716217,0.458618700504303,-0.527584969997406
1772808284817111300,5.916111328125,0.225040927529335,-1.884306849169731,-2.1161387520134447,0.2612007856369018,0.9026614427566528,-1.4043160676956177
1772808284837160400,5.936160400390625,-0.1927469699069857,5.057061271250248,0.5050779852893204,0.853888213634491,0.5888746976852417,-1.045019507408142
1772808284857208300,5.956208251953125,0.9047223963350056,9.925590852200983,2.172561773242056,2.0790741443634038,-0.0659909695386886,0.0255518071353435
1772808284877257500,5.976257568359375,3.990370781892538,13.158012099736927,1.8620232672996817,2.6818857192993164,-0.5341200828552246,0.694553017616272
1772808284897306000,5.99630615234375,7.5346099076569075,14.213302074158191,1.4653594064347446,2.18172287940979,-0.4499123096466064,0.8080260157585144
1772808284917355300,6.016355224609375,8.797857572859526,14.60368437053561,0.8384381985664368,1.3179090023040771,-0.0168566852807998,0.5128365159034729
1772808284937403100,6.036403076171875,8.73447611079514,13.858491441899536,0.4915762602899223,0.5806927680969238,0.4177112877368927,0.0806710943579673
1772808284957452300,6.056452392578125,8.636521932521461,13.182563188147544,0.7538413683854043,-0.1720163375139236,0.591851532459259,-0.172459676861763
1772808284977501200,6.076501220703125,7.522073666688799,12.695074270236493,0.5639189543798565,-0.6476947665214539,0.3550100028514862,-0.4086087942123413
1772808284997549300,6.09654931640625,6.569919657093286,12.290883228737115,0.287510407581646,-1.0129655599594116,0.1571196913719177,-0.5348625779151917
1772808285017598200,6.11659814453125,5.734933644807338,12.139289814734456,0.0465863946080207,-1.3619859218597412,0.0781805589795112,-0.5595308542251587
1772808285037647400,6.1366474609375,4.697392677566409,11.8876239151299,-0.1823091625228524,-1.55503511428833,-0.0154867554083466,-0.5538497567176819
1772808285057695200,6.1566953125,3.863383401358128,11.26665124040246,-0.3349284124419093,-1.5971790552139282,0.0506367236375808,-0.4367913007736206
1772808285077744000,6.176744140625,3.343942178869247,10.612471877121925,-0.5121560704493895,-1.5269222259521484,0.2659679353237152,-0.2283808887004852
1772808285097793300,6.196793212890625,3.0556156508654357,9.414417107319832,-0.7553529419921338,-1.430970311164856,0.1562705934047699,-0.0420293547213077
1772808285117841200,6.216841064453125,2.2206115184009074,8.039914468243717,-1.2751765879273411,-1.1358857154846191,-0.0977531895041465,0.114699475467205
1772808285137890300,6.236890380859375,1.4951350976258515,5.169168478038907,-1.4226374321699142,-0.8545596599578857,-0.3056383430957794,0.3126147389411926
1772808285157939200,6.256939208984375,0.9152975663632154,1.4193635250657797,-1.3186230770744385,-0.9355735182762146,-0.65090012550354,0.4585250914096832
1772808285177987300,6.2769873046875,-0.8663210617482662,-4.104118157103658,-1.939645290032029,-1.1814393997192385,-0.9335183501243592,0.3159000277519226
1772808285198036200,6.2970361328125,-4.30189698369801,-9.391739996087551,-3.3086893714413046,-1.8171117305755613,-1.1099016666412354,-0.3905718922615051
1772808285218085400,6.31708544921875,-10.282022948181629,-12.325062561714647,-3.829848796024918,-2.3966338634490967,-0.5181127786636353,-1.3825877904891968
1772808285238133200,6.33713330078125,-15.205235720956324,-15.244736541217565,-1.4057671075202525,-2.6213345527648926,0.9507349133491516,-1.3366899490356443
1772808285258182400,6.357182373046875,-20.55041016972065,-16.736754383605717,-0.1340879332546144,-2.1962170600891118,0.8242678046226501,-0.8804277181625366
1772808285278231000,6.37723095703125,-23.248916263735293,-17.35643877208829,0.9278634718172252,-0.6577042937278748,-0.1271564662456512,-0.2717712521553039
1772808285298279200,6.397279052734375,-20.4037980512619,-18.741307906877992,1.571327233685553,0.7631106376647949,-1.0773184299468994,0.4526857733726501
1772808285318328000,6.417328125,-15.356631566560267,-16.780213586103915,-0.7387589500658214,1.4700512886047363,-1.5133713483810425,0.1337762176990509
1772808285338377200,6.437377197265625,-8.462636022689939,-12.88353581790924,-1.5253813289381564,1.0359936952590942,-0.8304494023323059,-0.7841246724128723
1772808285358425300,6.45742529296875,-2.305776357728243,-7.0971122243613,0.0228684325532987,-0.0210420954972505,0.1602826416492462,-1.6554564237594604
1772808285378474200,6.47747412109375,0.6913935339093208,-0.8307032204002142,3.0982837029859422,-0.5172063708305359,0.3533219695091247,-1.7114840745925903
1772808285398523400,6.4975234375,0.9872866977751256,4.603204573827981,4.581537516421079,0.2158154100179672,-0.1698210835456848,-0.7639592885971069
1772808285418571300,6.5175712890625,2.0031986015319823,7.923853555393219,3.9373175293579696,1.5125203132629397,-0.622477114200592,0.4536799788475036
1772808285438620400,6.537620361328125,4.2491871377736325,9.91601287651658,1.6946826874583958,2.383445978164673,-0.5753856301307678,1.0310128927230835
1772808285458669300,6.55766943359375,7.112383443251252,11.02123504884243,-0.0969490928843617,2.2217283248901367,-0.1693936139345169,1.100432276725769
1772808285478717400,6.577717529296875,8.950297959080338,11.026720202255248,-1.5386998063251376,1.3956832885742188,0.062203012406826,0.6896045207977295
1772808285498766000,6.59776611328125,9.233770617312192,10.60880809391737,-2.4339805667065084,0.5626937747001648,0.4119988679885864,0.1105885878205299
1772808285518815200,6.617815185546875,8.68661838107705,10.267049835455415,-2.294750667453557,-0.1127407848834991,0.4314688146114349,-0.4786496460437774
1772808285538865200,6.637865234375,7.7513418565243475,10.471273600405452,-1.6196376756072044,-0.4829323291778564,0.3246763348579407,-0.8567658066749573
1772808285558913000,6.6579130859375,6.724812112641335,10.69871808194518,-0.6909599647976458,-0.5030871629714966,0.2032506465911865,-0.883440375328064
1772808285578962200,6.677962158203125,6.562139086219668,10.954099202680586,-0.2551347447589039,-0.495977908372879,0.1346248090267181,-0.7444199919700623
1772808285599011000,6.698010986328125,6.493398142948746,10.733979949462412,0.0299057473115622,-0.5463826060295105,0.1249150931835174,-0.4974748492240906
1772808285619059200,6.71805908203125,6.321278658267855,10.18917866026759,-0.0527743625279516,-0.6277430057525635,0.1020567342638969,-0.2074521780014038
1772808285639107800,6.73810791015625,6.068500998029112,9.178099583494662,-0.8465927173189819,-0.7332996726036072,-0.0239515211433172,-0.1396158635616302
1772808285659157000,6.758156982421875,5.514155050897598,7.972109929040074,-1.1935812776498496,-0.7530481219291687,0.089649423956871,-0.0873825773596763
1772808285679204900,6.778204833984375,3.982354648697376,6.495334079447388,-1.1332504353277384,-0.5460472106933594,0.0752561017870903,0.0791302472352981
1772808285699254000,6.79825390625,2.1511299858957527,4.527886590254306,-0.5824323700614273,-0.0350395031273365,-0.0996908769011497,0.3970622718334198
1772808285719303000,6.818302978515625,1.8936252971351144,0.8160591934978961,0.2476411741331219,-0.0303340516984462,-0.4692180156707763,0.5597226619720459
1772808285739351000,6.83835107421875,0.4741466212570667,-5.461806439501046,0.9896735198464244,-0.3152861595153808,-0.5002970099449158,0.5033170580863953
1772808285759400200,6.858400146484375,-3.9403912377148864,-12.758720520716905,1.3776272008374333,-0.7474393248558044,-0.9663501977920532,0.1032863557338714
1772808285779449000,6.878448974609375,-10.721625494801998,-15.922537603104114,-0.8870692507445812,-1.2789360284805298,-1.0085567235946655,-0.9936200380325316
1772808285799497200,6.898497314453125,-16.41801927333474,-17.87126811686754,-0.5113394568368792,-1.6226756572723389,0.3925433456897735,-1.4339443445205688
1772808285819546000,6.918546142578125,-22.114808188664917,-18.17435206902027,1.641427190349996,-1.237934947013855,1.364416480064392,-0.9400508999824524
1772808285839595000,6.938594970703125,-25.625217525541785,-17.67561227377653,2.837767265188694,0.1528645157814026,0.7006160616874695,-0.3111995458602905
1772808285859643000,6.958642822265625,-23.579098650693894,-15.156885239285227,2.636892810666561,1.994116187095642,-0.4342789351940155,0.3440347611904144
1772808285879692000,6.978692138671875,-16.55763934094906,-12.712753719311952,1.6264622609302402,3.1216368675231934,-0.6239821314811707,0.8907642364501953
1772808285899741000,6.998740966796875,-8.458891575464605,-9.143088475868105,-0.7587715182639658,3.229942560195923,-0.6474719643592834,0.6035647988319397
1772808285919789000,7.0187890625,-0.0384901819139718,-4.706880052357912,-0.5946008006304502,2.129647970199585,-1.282459378242493,-0.0836950466036796
1772808285939838000,7.038837890625,4.368320882198215,1.247284956917167,0.0892135301962494,0.8720640540122986,-1.028791427612305,-0.5911731123924255
1772808285959887000,7.05888720703125,3.93954543454051,6.45595951591432,1.7629668268725276,1.0625362396240234,-0.1146665439009666,-0.1947223097085952
1772808285979935000,7.07893505859375,4.217271073552966,9.835249487018585,3.476218021200597,1.9216340780258176,-0.4332258105278015,0.7587023377418518
1772808285999984000,7.098984130859375,7.517270650321245,12.60531391981244,2.3435990156441924,1.9535506963729856,-0.6073129177093506,0.9876707792282104
1772808286020033000,7.119032958984375,9.988518140757083,13.306876965558528,0.9430496427722276,1.216709852218628,0.1129924431443214,0.5048002004623413
1772808286040081200,7.1390810546875,10.534220762705802,13.087671904575824,1.155765633996576,0.260728657245636,0.434520810842514,0.2192908227443695
1772808286060130000,7.159130126953125,9.72656407137215,12.666976302999258,1.095012766870111,-0.3677134811878204,0.2222752273082733,0.1085349768400192
1772808286080179000,7.179178955078125,8.399754911363125,12.279004574894904,0.1785124736536294,-0.879332423210144,0.0162278190255165,-0.0268938839435577
1772808286100227000,7.19922705078125,6.009847149008512,11.915752277505398,-0.6213793558321893,-1.0857281684875488,-0.1397580355405807,-0.2176717668771743
1772808286120276000,7.21927587890625,4.376716954621672,11.200984882271287,-0.9014888212412596,-1.2063031196594238,-0.1481825113296508,-0.3310723304748535
1772808286140325000,7.2393251953125,3.38901407726109,10.741741231113672,-0.9194917301174252,-1.247654914855957,0.0980884209275245,-0.3239480257034302
1772808286160373000,7.259373046875,3.1524615756362677,9.968712201046944,-0.9032297466244548,-1.252063512802124,0.2962405085563659,-0.3239994645118713
1772808286180422100,7.279422119140625,3.06959449185729,9.027027563017606,-0.8297958962969482,-1.1588557958602903,0.278734803199768,-0.3142578303813934
1772808286200471000,7.299470947265625,3.2500667943418025,7.84581929859817,-0.911339257191494,-1.0346119403839111,0.2229399532079696,-0.3385663628578186
1772808286220519200,7.319519287109375,3.053175856497884,6.861260564482212,-0.7986340845096855,-0.8149996399879456,0.3471222817897796,-0.2418312132358551
1772808286240567800,7.33956787109375,2.5924726541817185,5.602820591822266,-0.7189836246896535,-0.5236315131187439,0.3422602713108063,-0.1277637332677841
1772808286260617000,7.359616943359375,2.1419009697794915,4.371134186053276,-0.44684835303016,-0.2180949449539184,0.2156450003385543,0.0295602213591337
1772808286280664800,7.379664794921875,1.919738228034973,1.5885773514330386,-0.0023999007485806,-0.0224639233201742,-0.0754931569099426,0.2549596726894378
1772808286300714000,7.3997138671875,2.6637375629723072,-2.008000448855757,0.2065252468254417,-0.4824583530426025,-0.2865463495254516,0.3464090526103973
1772808286320763100,7.41976318359375,0.4940519296884536,-4.874152097007632,-0.8575452692922204,-1.6445097923278809,-0.8524842262268066,-0.0558524057269096
1772808286340811000,7.43981103515625,-5.26384874920845,-7.252644731378555,-0.960238020395115,-2.256298303604126,-0.6345106959342957,-0.4030153453350067
1772808286360860200,7.459860107421875,-10.423995131880044,-10.353526341903208,1.3559554672554135,-2.1661834716796875,-0.1801104992628097,0.129473403096199
1772808286380909000,7.479908935546875,-13.064307395601272,-12.947256887191534,2.389743803964555,-1.9767959117889404,-0.382195383310318,0.5206298232078552
1772808286400957200,7.499957275390625,-15.426778869497776,-16.08714598150253,2.781895155841112,-2.452088594436645,-0.8806447982788086,0.6134029626846313
1772808286421006000,7.520006103515625,-20.44150672740936,-17.102853302598,0.450198649838753,-2.8097288608551025,-0.7118253111839294,0.4328197538852691
1772808286441055000,7.540054931640625,-24.728140091001983,-16.027905857026575,-2.1235762085378167,-1.9045324325561523,0.5322833061218262,0.1669188886880874
1772808286461102800,7.560102783203125,-23.97679331591129,-14.047400733339783,-1.9359847216978667,-0.0512465350329875,1.1486577987670898,0.0684740096330642
1772808286481152000,7.580152099609375,-16.964643101781604,-10.658153431844712,-0.8325000406891107,1.3207788467407229,1.0242230892181396,0.0049404092133045
1772808286501201000,7.600200927734375,-8.749013170191645,-5.471918668192624,-0.3070169076874852,2.070192337036133,0.7853736281394958,-0.0982812717556953
1772808286521249000,7.6202490234375,-1.2305915962696077,-0.0380734178066253,-0.43885918090716,2.277474880218506,1.0736663341522217,-0.1515533924102783
1772808286541298700,7.640298583984375,4.142107988280058,4.595326972320676,-0.9225871388494968,2.290489435195923,1.5181010961532593,-0.1752877235412597
1772808286561347800,7.660347900390625,8.044005536949633,7.946191059407591,-0.641410044208914,2.187039375305176,1.2657697200775146,-0.0062564783729612
1772808286581395700,7.680395751953125,11.132944196224212,10.24969771863818,-0.6171142457336187,1.7742936611175537,0.4671259224414825,0.1899300515651703
1772808286601444600,7.700444580078125,12.556210573947428,11.2352448792696,-0.5790437505364417,1.2537394762039185,-0.3118035793304443,0.2077857255935669
1772808286621493500,7.720493408203125,12.036177815306186,11.955163081395623,-0.8831320574261248,1.2164157629013062,-0.4005005061626434,0.0458542481064796
1772808286641541600,7.740541748046875,11.95636485840082,11.982930209243296,-0.4388184105053543,0.8351240158081055,-0.2773517370223999,0.03250203281641
1772808286661590500,7.760590576171875,10.82427221480608,11.87572421849966,-0.3757917532280087,0.1492337137460708,-0.4163577258586883,-0.0387711785733699
1772808286681639700,7.7806396484375,8.239303652644157,12.008000353091957,-0.4427257932074367,-0.1038698405027389,-0.2736703753471374,-0.0320189893245697
1772808286701687600,7.8006875,6.954152783191204,11.641319250297546,-0.2604522865198552,-0.2885856628417969,0.0435875132679939,0.1066076457500457
1772808286721736700,7.82073681640625,6.029482992848753,10.803299569404125,-0.697861999271065,-0.4786522090435028,0.4763814508914947,0.1725797802209854
1772808286741785900,7.840785888671875,5.025107797628641,9.86476316627264,-0.8868057044375688,-0.6240538954734802,0.6867235898971558,0.2183847427368164
1772808286761833700,7.860833740234375,3.941005570220947,8.894911002901196,-1.2768871912375093,-0.5595321655273438,0.6786147356033325,0.2063977122306823
1772808286781883000,7.8808828125,3.4940988380670546,7.423840671473741,-1.374741270137578,-0.4266551733016968,0.6821303963661194,0.1909275352954864
1772808286801931500,7.900931640625,2.939917141586542,5.915698208236694,-1.1623860750496386,-0.2183487117290496,0.4857408404350281,0.2220045775175094
1772808286821979600,7.920979736328125,2.036625654837489,4.430357359394431,-0.935297713471204,0.1023340821266174,0.1691369116306305,0.3079050481319427
1772808286842028500,7.941028564453125,1.7039578808039426,2.374751109755039,-1.3630568236932157,0.280355840921402,-0.0174913443624973,0.1830208003520965
1772808286862077700,7.96107763671875,2.118219649940729,-1.6770885785788296,-1.1428221274018286,-0.1382988840341568,-0.2525925934314728,-0.033696960657835
1772808286882125600,7.98112548828125,0.6954080302476883,-6.401530006590485,-1.1646909909911454,-1.369192123413086,-0.972095549106598,-0.2041082084178924
1772808286902174700,8.0011748046875,-4.060846586132049,-11.919764435756203,-0.2212337172660976,-2.0308895111083984,-0.7927874326705933,-0.2186397761106491
1772808286922223600,8.0212236328125,-10.028042341893912,-15.992568001663685,0.4311237643495201,-2.780954122543335,-1.171972632408142,0.0469138473272323
1772808286942271700,8.041271728515625,-16.837836923033,-15.984169591152668,-0.7994071147087961,-2.8599607944488525,-1.0541667938232422,-0.2265169322490692
1772808286962320600,8.061320556640625,-21.15517054531574,-17.218585129624604,1.7973448972925543,-1.9974182844161987,-0.3521935641765594,-0.0057853553444147
1772808286982369500,8.08136962890625,-22.60477080321312,-16.359092452591657,3.1702482844784856,-0.8912118077278137,-0.5790206789970398,0.7578873634338379
1772808287002417700,8.101417724609375,-21.509736847424502,-13.834739979434012,1.138019841686636,0.5021179914474487,-0.6712287664413452,1.0933502912521362
1772808287022466600,8.121466552734375,-15.846928527629377,-11.328630434453489,-0.876071106063947,1.4565460681915283,-0.198281392455101,0.7910025715827942
1772808287042515700,8.141515625,-8.673089037418364,-7.504729733178019,-1.250983665304631,1.7008662223815918,0.241036832332611,0.1853856593370437
1772808287062563600,8.1615634765625,-2.074270618098974,-2.809478159293532,-0.8278544799055904,1.3802112340927124,0.8322052955627441,-0.23422671854496
1772808287082612700,8.18161279296875,2.6406296591073275,1.4768921694487331,-0.3476705512456595,1.12604022026062,0.8998839855194092,-0.4804695546627044
1772808287102661600,8.20166162109375,6.316803558680415,5.174148020017147,0.4118775043487548,1.090814471244812,0.5053820610046387,-0.3816359937191009
1772808287122709800,8.221709716796875,8.664161634597182,7.717167199721932,0.8889349715512246,1.1753474473953247,0.0719434395432472,-0.0259784534573555
1772808287142758700,8.241758544921876,10.227515112924577,9.710232529774308,0.4259267802283167,1.198062300682068,-0.2974152863025665,0.1151173636317253
1772808287162807800,8.261807861328125,11.602435685151814,10.411309837830066,0.0317790669027715,0.7094727158546448,-0.4779030978679657,-0.0373984575271606
1772808287182855700,8.281855712890625,10.855502050328257,10.6516816054821,0.3074151862900704,0.4202405512332916,-0.2561228573322296,-0.0308283381164073
1772808287202904600,8.301904541015626,9.821322668474911,10.471134484195709,0.6960246277760714,0.2338654696941375,-0.1439374983310699,0.1390675902366638
1772808287222953500,8.321953369140624,9.31976840033233,10.219771366930008,0.1331049866318702,-0.0584791153669357,-0.0406631231307983,0.0684276223182678
1772808287243001600,8.342001708984375,8.550154147145152,9.878410583353045,-0.0777357122398912,-0.3701043426990509,-0.0001764994231052,-0.0363406985998153
1772808287263050800,8.36205078125,7.643998503136634,9.482385312652587,-0.0453121734211221,-0.5453079342842102,0.026036687195301,-0.0484551340341568
1772808287283099600,8.382099609375,6.775812816560268,9.01304872202575,-0.2760547101255506,-0.5640898942947388,0.0567320398986339,-0.0396971479058265
1772808287303147800,8.402147705078125,6.746225487548113,8.422621407687663,-0.4792187368895858,-0.6974921226501465,0.1523898392915725,-0.0569510459899902
1772808287323196700,8.42219677734375,6.64917556463778,7.903696318027377,-0.7869605978507548,-0.8453122973442078,0.229005217552185,-0.1519079804420471
1772808287343244800,8.442244873046874,5.597372263288498,6.973430899634957,-0.5832407638348639,-0.728223979473114,0.076738066971302,-0.1360818445682525
1772808287363293700,8.462293701171875,4.3731788436234,5.977521919465064,-0.2460586176494136,-0.4015595316886902,-0.1588006466627121,0.0298249721527099
1772808287383342800,8.4823427734375,3.018315555518865,3.800076173573732,-0.282513202082552,-0.231534942984581,-0.4477454721927643,0.1565048396587371
1772808287403390700,8.502390625,0.8004898684442043,0.2618593768388033,-0.2390351852860301,-0.5057010650634766,-0.7384756803512573,0.1711141914129257
1772808287423439600,8.522439697265625,-2.161753086718917,-4.365989224380255,0.3778034583766013,-1.1901909112930298,-0.7475425601005554,0.0122296940535306
1772808287443488500,8.542488525390626,-9.886540113794805,-8.35030202140808,-0.49634566664882,-1.6751855611801147,-0.9868909120559692,-0.3471118509769439
1772808287463536600,8.56253662109375,-17.15919536754489,-9.976680403447151,-2.014038998367637,-1.1614925861358645,-0.2889947891235351,-0.622735857963562
1772808287483585500,8.58258544921875,-21.46448316272497,-14.970596943998336,-1.2956165877573191,-0.2218886464834213,0.1768753081560135,-0.5985349416732788
1772808287503634700,8.602634765625,-23.391600395095345,-16.51261128169894,-1.6200275517076252,0.0594285763800144,-0.0933843106031417,-0.7340489625930786
1772808287523682600,8.6226826171875,-22.588623970532417,-17.510863610124588,-0.5283057892069221,0.6801117658615112,0.5849507451057434,-0.6066700220108032
1772808287543731000,8.64273095703125,-20.090089829242228,-16.934019999980926,1.5529337911218404,1.9183369874954224,0.9901134967803956,-0.1729016602039337
1772808287563779800,8.66277978515625,-14.717045376777648,-14.366231705200672,2.4512279079750177,2.9001457691192627,0.4825714528560638,0.0880774557590484
1772808287583828000,8.682827880859374,-7.410773100107908,-8.66849352632165,1.5476979362949728,3.0384600162506104,0.2705141007900238,-0.0390191860496997
1772808287603876900,8.702876953125,-0.3975193086504936,-3.23447934910953,0.5808859443370252,2.4002530574798584,0.6672402620315552,-0.2928466796875
1772808287623926000,8.722926025390626,2.781519892787933,2.0607529648780822,0.0098535046901553,1.697094440460205,0.7919782400131226,-0.4225519001483917
1772808287643974000,8.742973876953124,3.581324701577425,7.2090715471118685,-0.2244786905366927,1.750354290008545,0.642386257648468,-0.234824389219284
1772808287664023000,8.76302294921875,5.927665709406137,10.383033006894587,-0.4210764175876975,1.8862669467926023,0.5967544317245483,0.0689455345273017
1772808287684071700,8.78307177734375,8.639555601128935,11.783359238535166,-0.2828035267986357,1.5564004182815552,0.6280088424682617,0.2702769935131073
1772808287704119800,8.803119873046874,10.42525419203043,12.459294506549837,-0.5620739110350609,0.858361005783081,0.5337575078010559,0.2264245748519897
1772808287724168700,8.823168701171875,10.886313368177412,12.362401820027827,-0.4844799453534185,0.1085942983627319,0.2579197287559509,0.1601342260837555
1772808287744217900,8.8432177734375,9.916785614454746,11.698235315740108,-0.3699538408547639,-0.239724263548851,-0.0472641475498676,0.3049715757369995
1772808287764265700,8.863265625,8.698234584590793,11.684253552138804,-0.5677800137221812,-0.2930719256401062,-0.2532266080379486,0.4753531813621521
1772808287784315000,8.88331494140625,8.372818973642588,11.087108327722548,-1.5713079444631932,-0.626137912273407,-0.2019423395395279,0.3234750628471374
1772808287804364000,8.903364013671874,7.268390582042932,10.430433055973053,-1.8678212860539556,-1.115040898323059,-0.2469209134578704,0.1387112438678741
1772808287824412000,8.923411865234375,6.194237501719593,9.960274043047429,-1.903548140734434,-1.543732762336731,-0.3059924244880676,0.0422525405883789
1772808287844461000,8.9434609375,4.774401098445058,9.693245154616235,-1.9433534969002009,-1.586883306503296,-0.1375570148229599,0.0094943670555949
1772808287864509000,8.963509033203126,3.523379877609014,9.305439430728557,-1.4465686351165177,-1.2067068815231323,-0.1456886976957321,0.1018948704004287
1772808287884558000,8.98355810546875,4.076600620102882,8.347908988791703,-1.168928701626137,-0.9994510412216188,-0.234435886144638,0.1459211707115173
1772808287904606700,9.003606689453125,4.66201156758368,7.493562442475556,-1.217249007354677,-1.0958999395370483,-0.2623543739318847,0.0173777304589748
1772808287924655900,9.02365576171875,4.687563357469439,6.467776794958114,-0.9885708923667668,-1.152122139930725,0.0120592359453439,-0.1355932801961898
1772808287944703700,9.043703857421876,4.185608691832423,4.816706454733014,0.0401681250635534,-0.931489109992981,0.3450047671794891,0.0771862864494323
1772808287964753000,9.0637529296875,3.9263545290559527,2.1974387326061726,1.3152739127770066,-0.6695473194122314,0.4915937781333923,0.5703755617141724
1772808287984800800,9.08380078125,3.3967484709054228,-1.5213567495971918,2.572873635220528,-0.6083211898803711,0.2071039825677871,0.8690996766090393
1772808288004850000,9.103849853515625,-1.4014146113991737,-4.403645293557644,1.327811322788894,-1.069191336631775,-1.8288477659225464,0.5601956844329834
1772808288024898800,9.12389892578125,-6.40200639193058,-5.90723783840537,-0.6827636527299881,-2.153944730758667,-2.051443099975586,0.2876305878162384
1772808288044947000,9.143947021484376,-14.93513516999483,-10.032766447806358,-0.9656046619948,-2.817786693572998,-0.7606632709503174,0.4977283775806427
1772808288064996000,9.16399609375,-21.844541633486745,-11.044200913888217,-3.5551629630997774,-2.801498889923096,0.611319899559021,0.4166549444198608
1772808288085044700,9.184044677734375,-26.110873382806776,-11.779624143660069,-3.642000996336341,-1.9474302530288696,0.9896951913833618,-0.2052521705627441
1772808288105093000,9.204093017578124,-25.51227620601654,-13.608006276512144,-1.1559878984451293,-0.7970413565635681,1.088958501815796,-0.5404632091522217
1772808288125141800,9.224141845703125,-21.769086871790886,-13.421356746697423,0.3348319297974929,0.0669861510396003,0.9117136001586914,-0.5989886522293091
1772808288145191000,9.24419091796875,-16.170517507672308,-10.737240412563086,0.001241086102277,0.5709336400032043,0.6958994269371033,-0.5851726531982422
1772808288165238800,9.26423876953125,-9.77442355465591,-6.911792481845617,0.5390442600380629,0.7951083183288574,0.726169228553772,-0.5787748694419861
1772808288185288000,9.284287841796877,-3.8264199906200167,-3.207330060899257,1.3903326608926057,0.6950568556785583,0.6738317012786865,-0.3531651198863983
1772808288205336800,9.3043369140625,0.5124065015465021,-0.457720971634984,1.5313611340001223,0.3054071068763733,0.0758959576487541,-0.0057898624800145
1772808288225385000,9.324385009765624,3.0883482921659944,1.555712023663521,0.4972516755778342,-0.0151032647117972,-0.5879299640655518,0.314682275056839
1772808288245433900,9.344433837890625,4.529847076672315,2.9958026949375864,-1.4126184347197412,-0.1319266408681869,-1.008991241455078,0.4520441591739654
1772808288265483000,9.36448291015625,5.8702025314748285,4.087838053432106,-2.334777703545988,-0.0483716428279876,-0.8829233050346375,0.0969704762101173
1772808288285531000,9.38453076171875,5.3209360795646905,5.979177869978547,-3.351614028671384,-0.1457375735044479,-1.2621217966079712,-0.360160231590271
1772808288305579800,9.404579833984377,9.114587188526988,7.11669604575336,-1.4646728854753075,0.2416545301675796,-0.6910768747329712,-1.0152275562286377
1772808288325629000,9.42462890625,8.050936212995648,7.082907173398136,-0.3302135858144611,0.6345266103744507,-0.7756154537200928,-1.1821177005767822
1772808288345676800,9.4446767578125,7.069279630061984,6.852069542288779,0.6303676950603723,1.3859491348266602,-0.8972762227058411,-1.0171726942062378
1772808288365726000,9.464725830078123,6.295464418053626,6.315678938564658,1.297902506737411,2.024696350097656,-1.663870334625244,-0.818082332611084
1772808288385773800,9.48477392578125,7.772023994547128,7.214673604902624,1.584418332057446,2.244605541229248,-2.0825555324554443,-0.9415091276168824
1772808288405823000,9.504822998046874,9.45024713011384,7.185013795176148,1.0402494955472648,1.8433783054351809,-1.1493035554885864,-1.0448229312896729
1772808288425872000,9.524871826171877,8.669454480308294,6.708603320640325,0.0111477640180848,0.8319249749183655,-0.8085033893585205,-0.9347732663154602
1772808288445920000,9.544919921875,8.277992572000622,6.489795150020719,-0.1014736393704079,-0.0708615481853485,-0.7228662967681885,-0.7425347566604614
1772808288465969000,9.564968994140624,8.441113926711678,7.135524080342054,-0.1970645043125376,-0.4137369692325592,-0.0016119529027491,-0.6251220107078552
1772808288486018000,9.58501806640625,5.475898093217611,7.214823827028274,-0.9652911390662192,-0.0956704318523407,0.1312068402767181,-0.4217720329761505
1772808288506066000,9.60506591796875,4.419713215783238,6.305206059867143,-0.5934341314712539,0.3863513469696045,0.3966076970100403,-0.3595111072063446
1772808288526114800,9.62511474609375,3.3208892200618982,4.8955625493049615,0.2773627970494329,0.7492563128471375,0.4540087878704071,-0.3703321814537048
1772808288546163700,9.645163818359377,3.56277665297389,1.7910148174881937,2.968227874791622,0.736587405204773,0.3081287145614624,-0.3418692052364349
1772808288566211800,9.6652119140625,3.1014614562392238,-2.99499605472982,3.7827676036372777,-0.4694434106349945,-1.314149260520935,-0.1783270239830017
1772808288586260700,9.6852607421875,0.241025847646594,-2.555981537130475,1.2029057169646025,-3.03227162361145,-2.44368577003479,0.1320384740829467
1772808288606310000,9.705309814453123,-5.972305061599612,-0.3738344816803932,-0.1711677369140088,-3.8500282764434814,-2.1640570163726807,0.8056506514549255
1772808288626357800,9.725357666015626,-6.555117809280753,-1.0697791030228136,-2.059600579972565,-2.899214506149292,0.2194718122482299,1.8314054012298584
1772808288646407000,9.745406982421876,-9.397084279724956,-4.121388440856338,-1.7570238466896115,-1.9633197784423828,0.9860700368881226,2.020096063613892
1772808288666456000,9.7654560546875,-10.486343743765351,-6.88500442816317,-1.270864423816651,-1.687089920043945,-0.3258674740791321,1.1363816261291504
1772808288686504000,9.78550390625,-9.60850876983404,-7.896780839550495,-0.7941392573084681,-1.5254491567611694,-1.0475788116455078,0.2665994167327881
1772808288706553000,9.805552978515625,-9.519691837739945,-7.259074472165107,-0.786756891972199,-1.4714020490646362,-0.6516280174255371,0.4541589915752411
1772808288726601700,9.825601806640623,-7.485867211797833,-4.7641094215333455,-1.473789234997332,-1.388219714164734,0.7055768966674805,0.9934362769126892
1772808288746649900,9.84564990234375,-6.962882033091783,-2.73759628764838,-1.116677559254691,-1.108557939529419,1.3045748472213743,0.8157686591148376
1772808288766698800,9.86569873046875,-6.543501021245121,-1.8747157217428088,-0.4523987536989152,-0.1752158850431442,0.7245483994483948,0.4519288539886474
1772808288786748000,9.885747802734375,-4.734159104427695,-2.222658221797645,0.1006283659189939,0.7829493284225464,0.1005688309669494,0.3603692948818207
1772808288806795800,9.905795654296876,-1.299776776176691,-1.657485175703466,0.0606244184412062,1.095670223236084,0.1144822463393211,0.4168165028095245
1772808288826845000,9.925844970703125,0.8647644799560308,-1.0013748443603514,-0.0043050037175416,1.0220232009887695,0.256969004869461,0.4568349421024322
1772808288846893800,9.945893798828124,2.279287579253316,-0.0658405456542968,-0.0246946615997701,0.8247422575950623,0.4720511436462402,0.4198159277439117
1772808288866942000,9.96594189453125,3.0057436587154864,1.0220292175933718,0.3217234053667634,0.784328818321228,0.6190381646156311,0.43449267745018
1772808288886990800,9.985990966796876,2.2472148631662128,1.3502099093407391,0.9307740255016832,0.997871458530426,0.3174988627433777,0.4032343029975891
