time,seconds_elapsed,accel_z,accel_y,accel_x,gyro_x,gyro_y,gyro_z
1772635581426442000,0.27644189453125,0.0002174377441406,0.0601072311401367,0.0703105926513671,0.0382163301110267,0.0306263267993927,-0.020240006968379
1772635581446436400,0.296436279296875,0.0193589925765991,0.052947998046875,0.0750508308410644,0.0355531685054302,0.0221042186021804,-0.0197073742747306
1772635581466431000,0.316430908203125,0.0275434255599975,0.050389289855957,0.1038689613342285,0.0150468470528721,0.0197073742747306,-0.0247673764824867
1772635581486425300,0.33642529296875,-0.0019752383232116,0.0475978851318359,0.0997200012207031,0.0019973691087216,0.0170442163944244,-0.0343547500669956
1772635581506419700,0.356419677734375,0.0070710182189941,0.0590391159057617,0.0767378807067871,-0.0035952643956989,0.013315794058144,-0.0367515906691551
1772635581526414300,0.376414306640625,0.0209029912948608,0.0894641876220703,0.0924286842346191,-0.0006657897029072,0.0061252652667462,-0.0295610632747411
1772635581546408700,0.39640869140625,0.0160430669784545,0.0770273208618164,0.1028990745544433,0.0062584234401583,-0.0045273699797689,-0.0266315881162881
1772635581566403000,0.416403076171875,0.0069762468338012,0.0550289154052734,0.1134262084960937,0.0017310532275587,-0.006657897029072,-0.0239684283733367
1772635581586397700,0.436397705078125,-0.0164411067962646,0.038034439086914,0.1426892280578613,0.0022636849898844,-0.0018642111681401,-0.0218379013240337
1772635581606392000,0.45639208984375,0.0230904817581176,0.0452594757080078,0.1523637771606445,0.00093210558407,-0.0031957905739545,-0.020240006968379
1772635581626386400,0.476386474609375,0.0207676291465759,0.0666770935058593,0.1338825225830078,-0.0003994738217443,-0.0047936858609318,-0.0207726396620273
1772635581646381000,0.496381103515625,-0.0319923162460327,0.0398378372192382,0.1021251678466796,-0.0041278963908553,-0.0034621064551174,-0.0221042186021804
1772635581666375400,0.51637548828125,-0.0057527422904968,0.0043563842773437,0.1551074981689453,-0.0051931599155068,-0.0047936858609318,-0.022370534017682
1772635581686369800,0.536369873046875,0.0123427510261535,0.0182514190673828,0.2149295806884765,-0.0043942118063569,0.0037284223362803,-0.0266315881162881
1772635581706364200,0.5563642578125,0.0078943371772766,0.0326442718505859,0.2979016304016113,-0.0094542140141129,0.0042610540986061,-0.0260989554226398
1772635581726358800,0.57635888671875,-0.0092681050300598,-0.0002670288085937,0.3517558574676513,-0.019840532913804,0.0063915811479091,-0.0178431645035743
1772635581746353200,0.596353271484375,0.0510790944099426,-0.0575695037841796,0.3388998508453369,-0.0288952738046646,0.0175768472254276,-0.0237021129578351
1772635581766347500,0.616347412109375,0.0991654396057128,-0.0324783325195312,0.3243918418884277,-0.0280963256955146,0.0370179079473018,-0.0418115928769111
1772635581786342100,0.636342041015625,0.2390270829200744,-0.0479984283447265,0.3000631332397461,-0.0233026389032602,0.0639158114790916,-0.0503337010741233
1772635581806336500,0.65633642578125,0.3392764925956726,-0.0567636489868164,0.185699462890625,-0.0203731656074523,0.0876179262995719,-0.0521979108452796
1772635581826331000,0.676330810546875,0.3295921683311462,-0.0409746170043945,0.1116409301757812,-0.0123836882412433,0.1179779320955276,-0.0535294935107231
1772635581846325500,0.696325439453125,0.3231221437454223,-0.0109767913818359,0.0367727279663085,0.0003994738217443,0.1643168926239013,-0.0657800212502479
1772635581866320000,0.71631982421875,0.331399917602539,0.0424842834472656,-0.0338759422302246,0.0158457942306995,0.2162484973669052,-0.0921452939510345
1772635581886313200,0.736313232421875,0.264470100402832,0.1185102462768554,-0.0468454360961914,0.0339552760124206,0.2506032586097717,-0.1235705688595771
1772635581906306600,0.756306640625,0.2457555532455444,0.160654067993164,-0.0539536476135253,0.0624510757625103,0.2575274705886841,-0.1387505680322647
1772635581926300000,0.7762998046875,0.2787402868270874,0.0401792526245117,-0.1238760948181152,0.084288977086544,0.2351569235324859,-0.1422126740217209
1772635581946293200,0.796293212890625,0.1659767627716064,0.0399103164672851,-0.1240468025207519,0.1141163557767868,0.1952095478773117,-0.1424790024757385
1772635581966286600,0.81628662109375,0.1911987662315368,0.1504850387573242,-0.092752456665039,0.1423458456993103,0.1523326784372329,-0.1398158371448516
1772635581986279700,0.83627978515625,0.254156231880188,0.2054452896118164,-0.0216546058654785,0.1495363712310791,0.1099884584546089,-0.131027415394783
1772635582006273000,0.85627294921875,0.1626352071762085,0.1949272155761718,-0.0217466354370117,0.1647163778543472,0.0697747617959976,-0.1286305636167526
1772635582026266400,0.876266357421875,0.1227608323097229,0.1757640838623047,-0.0475544929504394,0.1559279412031173,0.0482031740248203,-0.1358211040496826
1772635582046259700,0.896259765625,0.2416152954101562,0.0814476013183593,0.0441837310791015,0.1199753060936927,0.040480013936758,-0.1486042588949203
1772635582066253000,0.916253173828125,0.1557686328887939,0.0691099166870117,0.0370492935180664,0.1074584573507309,0.019441058859229,-0.1616537421941757
1772635582086246400,0.936246337890625,0.0727448463439941,0.1435995101928711,0.0477769374847412,0.110920563340187,-0.0042610540986061,-0.1837579607963562
1772635582106239700,0.95623974609375,0.0766622424125671,0.1365766525268554,0.0345716476440429,0.0920121371746063,-0.0045273699797689,-0.1962748020887375
1772635582126233000,0.976233154296875,0.1236209273338317,0.0895748138427734,-0.0148687362670898,0.072571076452732,-0.019441058859229,-0.2042642831802368
1772635582146226200,0.99622607421875,0.0489348173141479,0.1739521026611328,-0.0412166118621826,0.0669784471392631,-0.0388821177184581,-0.2205095440149307
1772635582166219500,1.016219482421875,0.0003384351730346,0.1968059539794922,0.0171396732330322,0.0533963330090045,-0.0378168560564518,-0.2287653386592865
1772635582186212900,1.036212890625,0.0022206306457519,0.1825389862060547,0.0443100929260253,0.0323573797941207,-0.0508663319051265,-0.2303632348775863
1772635582206206200,1.056206298828125,-0.1304920315742492,0.234781265258789,0.0166122913360595,0.0427436977624893,-0.0751010775566101,-0.2173137664794922
1772635582226199600,1.076199462890625,-0.1175193190574646,0.164128303527832,0.0604898929595947,0.073370024561882,-0.0945421382784843,-0.1952095478773117
1772635582246193000,1.09619287109375,-0.3801707625389099,0.1094684600830078,0.1433331966400146,0.1002679318189621,-0.129962146282196,-0.1523326784372329
1772635582266186200,1.116186279296875,-0.4749610424041748,0.0818805694580078,0.2680814266204834,0.1047952994704246,-0.168577954173088,-0.1030642464756965
1772635582286179300,1.136179443359375,-0.4471027255058288,-0.0135459899902343,0.3767488002777099,0.0874847695231437,-0.1858884841203689,-0.0790958181023597
1772635582306172700,1.156172607421875,-0.5763091444969177,0.0245790481567382,0.3510358333587646,0.0818921327590942,-0.1917474269866943,-0.097471609711647
1772635582326166000,1.176166015625,-0.7257428169250488,0.2537364959716797,0.3868477344512939,0.0909468755125999,-0.1858884841203689,-0.1286305636167526
1772635582346159400,1.196159423828125,-0.5244850516319275,0.313323974609375,0.3308467864990234,0.0872184485197067,-0.1653821617364883,-0.1150484606623649
1772635582366152700,1.216152587890625,-0.5220368504524231,0.1763906478881836,0.1609499454498291,0.0968058258295059,-0.1637842655181884,-0.0948084518313407
1772635582386145500,1.2361455078125,-0.6057438850402832,-0.0958900451660156,0.0176966190338134,0.1154479309916496,-0.1358211040496826,-0.098536878824234
1772635582406138600,1.256138671875,-0.7017689347267151,-0.1735706329345703,-0.1086931228637695,0.0776310786604881,-0.0838894993066787,-0.0913463458418846
1772635582426131500,1.27613134765625,-0.8209030032157898,-0.1585664749145507,-0.0222241878509521,0.0254331659525632,-0.0170442163944244,-0.0540621243417263
1772635582446124500,1.29612451171875,-0.9398794174194336,-0.1187963485717773,0.0633642673492431,0.0123836882412433,0.0338221155107021,-0.0218379013240337
1772635582466117400,1.316117431640625,-0.953278660774231,0.0023574829101562,0.1448409557342529,-0.02569948323071,0.066046342253685,-0.045540016144514
1772635582486110200,1.336110107421875,-0.8521803617477417,0.089512825012207,0.237471342086792,-0.0608531795442104,0.0806937143206596,-0.0924116075038909
1772635582506103300,1.356103271484375,-0.7558833360671997,0.1943807601928711,0.2538824081420898,-0.0794952884316444,0.1129179298877716,-0.1153147742152214
1772635582526096100,1.37609619140625,-0.8625409603118896,0.4745206832885742,0.3701252937316894,-0.0893489792943,0.1555284708738327,-0.1280979365110397
1772635582546089000,1.3960888671875,-0.8571529388427734,0.8006868362426758,0.6721725463867188,-0.0920121371746063,0.2308958619832992,-0.1294295191764831
1772635582566082000,1.41608203125,-0.9505908489227296,1.1467905044555664,1.1057686805725098,-0.0757668688893318,0.3020022213459015,-0.1312937289476394
1772635582586075000,1.436074951171875,-1.05482816696167,1.5857810974121094,1.664552927017212,-0.053928967565298,0.3067958950996399,-0.1280979365110397
1772635582606068000,1.45606787109375,-1.201223850250244,2.7538304328918457,2.01973295211792,-0.0336889587342739,0.3004043102264404,-0.1118526682257652
1772635582626060800,1.476060791015625,-1.0027546882629397,4.567008018493652,1.9228724241256716,0.00093210558407,0.3661843240261078,-0.0876179262995719
1772635582646053600,1.4960537109375,-0.3406487703323364,5.736668109893799,1.4694299697875977,0.0150468470528721,0.3930822312831878,-0.092677928507328
1772635582666046700,1.516046630859375,0.5834839940071106,5.527772903442383,0.8279032707214355,-0.003328948514536,0.4612590968608856,-0.1182442530989646
1772635582686039600,1.53603955078125,1.1302151679992676,3.5586276054382324,-0.1096603870391845,-0.0344879068434238,0.536892831325531,-0.1475390046834945
1772635582706032400,1.556032470703125,1.2339420318603516,0.8963193893432617,-1.5141196250915527,-0.1524658352136612,0.5723128318786621,-0.0929442420601844
1772635582726025500,1.576025390625,0.8018547296524048,-1.0915803909301758,-2.632576704025269,-0.1463405787944793,0.6838991641998291,0.1155810952186584
1772635582746018300,1.596018310546875,0.1594941616058349,-1.3369789123535156,-1.8465936183929443,-0.0515321232378482,0.6737791895866394,0.3984085619449615
1772635582766011400,1.616011474609375,0.2898480296134949,-0.1929874420166015,-0.4296274185180664,0.0581900216639041,0.4836296439170837,0.6178528666496277
1772635582786004200,1.636004150390625,0.6704890727996826,0.326141357421875,-0.0520610809326171,0.128763735294342,0.1427453160285949,0.684431791305542
1772635582805997000,1.6559970703125,1.5552051067352295,-0.523162841796875,-0.8080177307128906,-0.155129000544548,-0.3600590825080871,0.5805686116218567
1772635582825990100,1.675990234375,1.5897680521011353,-3.052797317504883,-2.049789905548096,-0.3130543231964111,-0.3020022213459015,0.461525410413742
1772635582845983000,1.69598291015625,1.1059157848358154,-5.437179565429688,-3.509448528289795,-0.2038648128509521,-0.1350221484899521,0.4822980463504791
1772635582865976000,1.71597607421875,1.3542580604553225,-6.312408447265625,-5.079569339752197,0.5793702006340027,0.0221042186021804,0.706536054611206
1772635582885968100,1.735968017578125,2.118014335632324,-7.090221405029297,-6.542920112609863,0.5316996574401855,0.1249021515250206,0.5571328401565552
1772635582905960400,1.75596044921875,2.0719120502471924,-9.3153715133667,-7.796093463897705,0.2946785092353821,0.2287653386592865,0.3549990653991699
1772635582925952800,1.775952880859375,1.6395400762557983,-11.139595985412598,-7.6127424240112305,0.1828258484601974,0.1440768986940384,0.3105243146419525
1772635582945944800,1.79594482421875,0.978329300880432,-10.89581298828125,-5.306962490081787,-0.0054594753310084,-0.2229063957929611,0.1768337488174438
1772635582965937000,1.81593701171875,0.4943970441818237,-8.694982528686523,-2.772014617919922,-0.1908153295516967,-0.2218411266803741,-0.2892190515995025
1772635582985929200,1.83592919921875,0.238745629787445,-5.905342102050781,-1.2055797576904297,-0.2651174664497375,-0.0516652800142765,-0.709465503692627
1772635583005921500,1.855921630859375,-0.0096950531005859,-3.396883964538574,0.340616226196289,-0.2057290226221084,0.1408811062574386,-0.8306392431259155
1772635583025913600,1.87591357421875,-0.2350274920463562,-1.1465578079223633,1.8330421447753904,-0.21505007147789,0.1936116516590118,-0.7880287170410156
1772635583045906000,1.895906005859375,-0.8547108173370361,1.4750995635986328,2.877345561981201,-0.3194459080696106,0.086818978190422,-0.8354329466819763
1772635583065898000,1.91589794921875,-1.4962743520736694,4.683506965637207,3.609040260314941,-0.4179827868938446,-0.1054610908031463,-0.9171919226646424
1772635583085890300,1.935890380859375,-1.9183943271636963,8.162361145019531,3.968991279602051,-0.4739091098308563,-0.3744401335716247,-0.9147950410842896
1772635583105882400,1.95588232421875,-1.4089953899383545,10.750208854675291,4.558835983276367,-0.4701806902885437,-0.5219791531562805,-0.7084002494812012
1772635583125874700,1.975874755859375,-0.4282532930374145,11.85114288330078,5.294569969177246,-0.4557996392250061,-0.2751043140888214,-0.4151864647865295
1772635583145866800,1.99586669921875,-0.3424423038959503,12.154699325561523,4.818326950073242,-0.4672512114048004,0.1976063847541809,-0.3933485448360443
1772635583165859000,2.015859130859375,-0.6214529275894165,12.20502471923828,4.7079901695251465,-0.4049333035945892,0.438355952501297,-0.5784381031990051
1772635583185851100,2.03585107421875,-0.7391390204429626,11.13204574584961,5.288938522338867,-0.21505007147789,0.5257075428962708,-0.4130559265613556
1772635583205843500,2.055843505859375,-0.5207434892654419,8.845407485961914,5.10797929763794,-0.0390152782201767,0.4617917239665985,0.0210389550775289
1772635583225835500,2.07583544921875,-0.6544597148895264,6.663066864013672,3.972765445709229,0.0731037110090255,0.2551306188106537,0.3222422301769256
1772635583245827800,2.095827880859375,-0.6022956967353821,5.677368640899658,2.3237643241882324,0.3527353703975677,0.2181127071380615,0.1619200557470321
1772635583265820200,2.115820068359375,-0.2370439320802688,5.029853343963623,1.4063575267791748,0.3372890651226043,0.3158506453037262,0.0074568446725606
1772635583285812200,2.135812255859375,-0.0140075087547302,3.770971298217773,2.3891923427581787,0.1862879544496536,0.43010014295578,-0.3661843240261078
1772635583305804500,2.155804443359375,1.0735405683517456,1.8510208129882808,3.685553789138794,0.2837595641613006,0.3821632862091064,-0.8032087087631226
1772635583325796600,2.175796630859375,0.8108751177787781,1.5687460899353027,2.729476928710937,0.1633847951889038,-0.5203812122344971,0.1049284562468528
1772635583345789000,2.195788818359375,1.9757030010223389,2.508869171142578,-1.641843557357788,0.6986796855926514,-0.6159886121749878,1.4000226259231567
1772635583365781000,2.215781005859375,1.295135736465454,-2.8411083221435547,-2.43660044670105,0.7631281614303589,-0.5350285768508911,1.7121448516845703
1772635583385774000,2.235774169921875,-2.4918053150177,-13.65176010131836,-1.859281063079834,-0.0454068593680858,-0.5656549334526062,1.0282455682754517
1772635583405767400,2.255767333984375,-2.2398693561553955,-9.26794719696045,-5.989345073699951,0.165781632065773,0.0410126447677612,1.0828403234481812
1772635583425760500,2.275760498046875,1.5341259241104126,2.0528459548950195,-6.372749328613281,0.5836312770843506,0.3608580231666565,1.609346866607666
1772635583445753900,2.29575390625,4.11397647857666,0.8275775909423828,-3.221410751342773,0.5032038688659668,-0.2271674424409866,1.6564847230911257
1772635583465747000,2.315746826171875,4.446832656860352,-5.642723083496094,-6.703831195831299,0.1588574200868606,-0.5305012464523315,1.2708593606948853
1772635583485740300,2.335740234375,0.9162610769271852,-11.274632453918455,-10.14145278930664,-0.1426121592521667,-0.1243695169687271,0.1613874286413192
1772635583505733400,2.3557333984375,-0.43306964635849,-12.304577827453612,-6.673996925354004,-0.0808268710970878,0.2508695721626282,-0.5866938829421997
1772635583525726700,2.375726806640625,0.7631464004516602,-10.032144546508787,-4.925475597381592,0.0283626411110162,0.2450106143951416,-0.3478085398674011
1772635583545719800,2.3957197265625,1.7799601554870603,-10.328780174255373,-6.525076866149902,-0.1284974068403244,0.0330231711268425,-0.0447410680353641
1772635583565713200,2.415713134765625,1.714202642440796,-9.061090469360352,-7.629958152770996,-0.1362205743789672,0.0814926624298095,0.1099884584546089
1772635583585706200,2.435706298828125,1.8085591793060305,-7.173454284667969,-5.834935188293457,-0.3934817016124725,-0.1784316450357437,-0.6596644520759583
1772635583605699600,2.455699462890625,1.342452883720398,-6.640130996704102,-3.4346132278442383,-0.6467481255531311,-0.2322274446487426,-1.0751172304153442
1772635583625692700,2.475692626953125,0.398972749710083,-4.602452278137207,-1.6827011108398438,-0.756470263004303,-0.3057306408882141,-1.3978921175003052
1772635583645686000,2.49568603515625,0.0788864493370056,-1.9713401794433596,0.7530078887939453,-0.7394260168075562,-0.4106590747833252,-1.5017552375793457
1772635583665679000,2.51567919921875,-0.3222541809082031,0.314697265625,2.9081578254699707,-0.6182523369789124,-0.455133855342865,-1.2309119701385498
1772635583685672400,2.53567236328125,-1.5155155658721924,3.510486602783203,4.050363063812256,-0.510660707950592,-0.4846948981285095,-0.5808349251747131
1772635583705665500,2.55566552734375,-2.2888050079345703,7.684096336364746,4.558606147766113,-0.4036017060279846,-0.0934768766164779,-0.05139896646142
1772635583725659000,2.575658935546875,-2.0306198596954346,10.853507995605469,5.350985527038574,-0.2834932506084442,0.3613906502723694,-0.0146473739296197
1772635583745652000,2.59565185546875,-1.5783236026763916,11.779170989990234,6.463519096374512,-0.0813594982028007,0.4335622489452362,-0.3568632900714874
1772635583765645300,2.615645263671875,-0.4197192788124084,12.232709884643556,6.932507514953613,0.1282310932874679,0.3896201252937317,-0.3478085398674011
1772635583785638700,2.635638671875,-0.1197158992290496,12.131866455078123,5.742918968200684,0.3431480228900909,0.2247706055641174,0.1661811172962188
1772635583805631700,2.6556318359375,-0.4220297932624817,10.792919158935549,4.283416748046875,0.2134521752595901,0.1267663538455963,0.2356895506381988
1772635583825624800,2.675624755859375,-0.2946454286575317,8.830931663513184,3.785153865814209,-0.0190415848046541,0.0226368494331836,0.147805318236351
1772635583845618200,2.6956181640625,-0.6447761654853821,7.264121055603027,3.44608211517334,-0.1727058440446853,-0.0050600017420947,-0.0186421126127243
1772635583865611500,2.715611572265625,-0.781377911567688,6.412136077880859,2.9605941772460938,-0.1157142519950866,0.1725726872682571,-0.306263267993927
1772635583885604600,2.7356044921875,-0.9544925689697266,6.271622657775879,2.6451239585876465,0.0824247673153877,0.3392864465713501,-0.6996118426322937
1772635583905598200,2.75559814453125,-0.687751054763794,6.363823890686035,2.4883594512939453,0.3498059213161468,0.4727106988430023,-0.8785760998725891
1772635583925591600,2.775591552734375,-0.897578239440918,5.675145626068115,3.0621025562286377,0.75034499168396,0.0969389826059341,-0.4554001688957214
1772635583945585000,2.7955849609375,-0.8330256938934326,3.951936721801758,3.7618391513824463,1.104278802871704,-0.2450106143951416,0.7084002494812012
1772635583965578200,2.815578125,0.2720784246921539,2.452141284942627,3.90504002571106,-0.2233058661222458,-0.1864211112260818,1.8383785486221316
1772635583985571600,2.835571533203125,2.7170982360839844,0.5866498947143555,1.79278302192688,0.4805670082569122,0.3528685569763183,1.9723354578018188
1772635584005565000,2.85556494140625,2.219923973083496,-8.078153610229492,-2.948560953140259,1.018791437149048,0.6024065017700195,2.6375925540924072
1772635584025558500,2.87555859375,-1.9335880279541016,-17.31939697265625,-6.430072784423828,0.6760428547859192,-0.3273022174835205,2.071404933929444
1772635584045551900,2.8955517578125,-0.0770835876464843,-5.695291519165039,-5.863871574401856,-0.3921501338481903,-0.5302349328994751,-1.2551467418670654
1772635584065545200,2.915545166015625,1.7920279502868652,2.60538387298584,-7.029547691345215,-0.4992091059684753,-0.4500738382339477,-1.1992204189300537
1772635584085538600,2.93553857421875,4.074143409729004,-4.120023727416992,-8.347452163696289,-0.510660707950592,-0.1653821617364883,-0.5467464923858643
1772635584105532000,2.955531982421875,3.021915912628174,-10.98327350616455,-13.661136627197266,-0.2672479748725891,0.1145158261060714,-0.0082557927817106
1772635584125525200,2.975525146484375,0.9274340867996216,-12.398279190063477,-13.167414665222168,0.0185089539736509,0.4431496262550354,-0.3283674716949463
1772635584145518800,2.995518798828125,1.970368266105652,-9.836894989013672,-6.582446098327637,-0.2283658683300018,0.4727106988430023,-1.1595393419265747
1772635584165512200,3.01551220703125,1.543358564376831,-10.742176055908203,-3.1712679862976074,-0.4270375072956085,0.4277032911777496,-1.6524900197982788
1772635584185505500,3.035505615234375,0.0736182332038879,-11.333709716796877,-3.810420513153076,-0.4760396480560303,-0.164583221077919,-1.0996183156967163
1772635584205499000,3.055498779296875,0.0262054204940795,-8.58000373840332,-3.711259365081787,-0.380698561668396,-0.145674780011177,-0.43010014295578
1772635584225492200,3.0754921875,0.2845334410667419,-5.952683448791504,-2.129696846008301,-0.2802974581718445,0.1621863692998886,0.032490536570549
1772635584245485600,3.095485595703125,-0.0370338559150695,-3.724546432495117,-0.8055691719055176,-0.1996037513017654,0.2468748241662979,-0.0511326491832733
1772635584265479200,3.115479248046875,-0.5834435224533081,-0.8391151428222656,0.1579031944274902,0.0238352715969085,0.2724411487579345,-0.1398158371448516
1772635584285472500,3.135472412109375,-0.7996020317077637,2.413820266723633,1.8739612102508545,0.3881554007530212,0.3081274628639221,0.0785631835460662
1772635584305465900,3.1554658203125,-1.3717470169067385,5.687338829040527,3.722866535186768,0.5998765230178833,0.1280979365110397,0.2735064029693603
1772635584325459200,3.175459228515625,-1.9915482997894287,8.996002197265625,5.091825485229492,0.5490102171897888,-0.0753673911094665,0.2958769500255584
1772635584345452500,3.19545263671875,-1.681302547454834,11.757826805114746,6.360215187072754,0.3482080101966858,-0.163517951965332,0.2261021882295608
1772635584365446100,3.215446044921875,-0.1879081577062606,12.78506088256836,7.386813163757324,-0.0462058037519454,0.2601906061172485,-0.0308926422148942
1772635584385438500,3.2354384765625,0.9366902112960817,12.73745346069336,7.062736511230469,0.0954742431640625,0.3960117101669311,-0.7129276394844055
1772635584405431000,3.25543115234375,0.5705592036247253,11.678321838378906,4.570595741271973,0.1631184816360473,0.2540653645992279,-0.4330296218395233
1772635584425423400,3.27542333984375,0.122205376625061,9.491133689880373,3.646801471710205,0.3151848316192627,-0.1432779431343078,0.5760412216186523
1772635584445416000,3.295416015625,-0.4431537985801697,7.96949291229248,4.462312698364258,0.5918870568275452,-0.0250336937606334,1.592302680015564
1772635584465408300,3.315408203125,-0.7236173748970032,7.179161071777344,4.681206226348877,0.0078563187271356,-0.5648559927940369,1.420795202255249
1772635584485400600,3.335400634765625,-0.9467765092849731,7.134059906005859,3.371126651763916,0.0395479090511798,-0.8609992265701294,1.630119562149048
1772635584505393200,3.35539306640625,-1.002070426940918,7.407841682434082,1.9262962341308596,0.5066659450531006,-0.4561991095542907,2.076464891433716
1772635584525385500,3.375385498046875,-0.6038535237312317,5.735273361206055,2.110657215118408,0.313586950302124,-0.6756433844566345,1.651424765586853
1772635584565370400,3.415370361328125,0.5485868453979492,1.4128913879394531,2.332129001617432,0.0648479163646698,-0.7845665812492371,1.0085382461547852
1772635584585363000,3.435363037109375,0.9784539937973022,1.0879411697387695,1.4248716831207275,0.0081226341426372,-0.2314285039901733,0.3723095953464508
1772635584605355300,3.455355224609375,1.5808618068695068,-0.3142318725585937,-2.61571741104126,0.0648479163646698,0.0932105556130409,0.006657897029072
1772635584625347800,3.475347900390625,-0.4156354665756225,-9.961259841918944,-4.763274192810059,0.0246342197060585,0.2759032547473907,-0.3201116919517517
1772635584645340200,3.495340087890625,-0.8676978349685669,-12.139189720153809,-7.737500190734863,-0.101066879928112,0.2700442969799042,-0.600275993347168
1772635584665332500,3.51533251953125,1.6309343576431274,-2.1048355102539062,-10.08827018737793,-0.1503353118896484,-0.0050600017420947,-0.3997401297092438
1772635584685325000,3.535324951171875,2.1339800357818604,-2.5279407501220703,-4.878861904144287,-0.315717488527298,-0.0790958181023597,-0.7611308097839355
1772635584705317400,3.5553173828125,2.504000186920166,-8.07929801940918,-4.577717304229736,-0.5324985980987549,0.025300009176135,-1.232243537902832
1772635584725310000,3.57531005859375,0.4795582294464111,-10.11704158782959,-7.3004560470581055,-0.6965491771697998,-0.0471379123628139,-1.5185331106185913
1772635584745302300,3.59530224609375,1.409627079963684,-8.392460823059082,-5.30541467666626,-0.7141260504722595,-0.3099916875362396,-1.4681994915008545
1772635584765294800,3.615294921875,1.8123079538345337,-9.238609313964844,-4.891970157623291,-0.4078627824783325,-0.6418212652206421,-0.3637875020503998
1772635584785287200,3.635287109375,1.3461517095565796,-11.961068153381348,-7.23027229309082,-0.3764374852180481,-0.4005391001701355,0.0889495015144348
1772635584805279700,3.65527978515625,1.3940870761871338,-9.290736198425291,-7.602908611297607,-0.4113248884677887,0.0308926422148942,0.0055926335044205
1772635584825272000,3.67527197265625,1.3762109279632568,-6.617891311645508,-5.873217105865479,-0.2933469414710998,0.201068490743637,-0.2870885133743286
1772635584845264600,3.6952646484375,0.9978814125061036,-5.897716522216797,-3.8040285110473633,0.1085237190127372,0.2527337670326233,-0.3275685310363769
1772635584865257000,3.715257080078125,0.3269737958908081,-4.422365188598633,-2.31253433227539,0.5324985980987549,0.1757684797048568,-0.0189084280282259
1772635584885250000,3.73525,0.231547474861145,-1.9380407333374023,0.0198287963867187,0.592952311038971,0.1475390046834945,0.2628537714481354
1772635584905243100,3.7552431640625,0.2014697790145874,0.8607807159423828,2.798045873641968,0.3183806240558624,0.2436790317296981,0.3038664162158966
1772635584925236200,3.775236328125,-0.7936303019523621,4.259583950042725,4.3115105628967285,-0.0190415848046541,0.3083937764167785,0.1272989958524704
1772635584945229300,3.795229248046875,-1.9733331203460691,7.540882110595703,4.83127498626709,-0.1759016364812851,0.2846916913986206,-0.1169126704335212
1772635584965222400,3.815222412109375,-2.737786054611206,10.020318031311035,5.286613464355469,-0.1793637424707412,0.3304980099201202,-0.3760380148887634
1772635584985215500,3.835215576171875,-2.153483867645264,11.252151489257812,5.873153209686279,0.0118510564789175,0.2146506011486053,-0.5928191542625427
1772635585005208600,3.85520849609375,-0.8547499179840088,11.592850685119627,6.100890159606934,0.1980058550834655,0.1480716317892074,-0.6623275876045227
1772635585025201700,3.87520166015625,0.0979229509830474,11.605628967285156,5.882314682006836,0.2763027250766754,-0.2300969213247299,-0.1861547976732254
1772635585045194800,3.89519482421875,0.2965142130851745,11.088292121887209,5.251309394836426,0.5391564965248108,-0.0727042332291603,0.8855003118515015
1772635585065187800,3.915187744140625,0.0236368775367736,9.766465187072754,4.902419567108154,0.7295723557472229,0.4538022577762604,1.6647405624389648
1772635585085181200,3.93518115234375,-0.8788974285125732,7.826045036315918,4.017539024353027,-0.0576573871076107,-0.3091927468776703,1.4993584156036377
1772635585105174300,3.95517431640625,-1.4693547487258911,6.2749552726745605,2.5165557861328125,0.0193079020828008,-0.2173137664794922,1.7134764194488523
1772635585125167400,3.97516748046875,-1.025813102722168,6.222672462463379,1.5640993118286133,0.4573975205421448,-0.1243695169687271,1.156077265739441
1772635585145160400,3.995160400390625,-0.8165827393531799,6.53701114654541,1.3822932243347168,0.2118542790412902,-0.1643168926239013,0.8061381578445435
1772635585165153500,4.015153564453125,-0.2284846901893615,5.58432674407959,2.09435510635376,0.0331563279032707,-0.2074600756168365,0.2431464046239853
1772635585185146600,4.035146728515625,0.6828405857086182,4.00200891494751,3.3862380981445312,0.0121173728257417,0.0450073853135108,-0.0242347456514835
1772635585205139700,4.0551396484375,0.0153629779815673,2.1240830421447754,4.048414707183838,0.1223721504211425,0.2530000805854797,-0.0692421272397041
1772635585225132800,4.0751328125,0.3942168951034546,0.3641157150268554,0.8459987640380859,0.0456731729209423,0.2101232260465622,-0.2138516455888748
1772635585245126100,4.095126220703125,0.6217197775840759,-3.937779426574707,-3.029269218444824,-0.1021321415901184,0.081758975982666,-0.1440768986940384
1772635585265119200,4.115119140625,0.113151729106903,-13.553186416625977,-2.9079763889312744,-0.1367532014846801,-0.0042610540986061,-0.1334242522716522
1772635585285112300,4.1351123046875,-0.4231400489807129,-7.303317070007324,-7.875333786010742,-0.3370227515697479,-0.0876179262995719,-0.457530677318573
1772635585305105400,4.15510546875,1.7391047477722168,1.3180475234985352,-7.704784870147705,-0.5804354548454285,-0.0633831769227981,-0.8713855743408203
1772635585345091600,4.195091552734375,2.301513195037842,-7.859720230102539,-6.113271236419678,-0.7072018384933472,-0.1259674131870269,-1.2066771984100342
1772635585365084700,4.215084716796875,1.0667434930801392,-9.514312744140623,-8.77860164642334,-0.7825692296028137,-0.245276927947998,-1.3893699645996094
1772635585385077200,4.2350771484375,1.2003557682037354,-7.307524681091309,-4.62711238861084,-0.754073441028595,-0.3198453783988952,-1.289767861366272
1772635585405069800,4.25506982421875,1.3909862041473389,-6.054729461669922,-3.9096546173095694,-0.5948165059089661,-0.3571296036243438,-0.9832382202148438
1772635585425062700,4.275062744140625,1.4379534721374512,-9.282452583312988,-5.811286449432373,-0.367915391921997,-0.3653853833675384,-0.5451486110687256
1772635585445055200,4.29505517578125,1.3166478872299194,-9.44338321685791,-7.298357486724853,-0.2467416673898697,-0.1957421749830246,-0.1166463568806648
1772635585465047800,4.3150478515625,1.4647523164749146,-6.248064994812012,-6.534526348114014,-0.2129195481538772,0.2034653276205063,0.0410126447677612
1772635585485040400,4.335040283203125,1.537920355796814,-5.643228530883789,-5.108298301696777,-0.1748363822698593,0.4237085580825805,-0.1379516273736953
1772635585505033000,4.355032958984375,0.9588744640350342,-5.009342193603516,-4.586583137512207,0.0118510564789175,0.4282359480857849,-0.2737727165222168
1772635585525025500,4.375025634765625,0.60249263048172,-3.604275703430176,-2.319216251373291,0.3111900985240936,0.3643201291561126,-0.0529968589544296
1772635585545018000,4.39501806640625,0.4296584725379944,-2.102506637573242,0.7451319694519043,0.2235721796751022,0.0950747728347778,0.2663158774375915
1772635585565011000,4.415010986328125,-0.2967490553855896,0.329996109008789,2.696758270263672,-0.0451405420899391,0.0383494868874549,0.0913463458418846
1772635585585003500,4.43500341796875,-1.0484719276428225,3.309861660003662,3.731199264526367,-0.1378184705972671,0.0247673764824867,-0.1621863692998886
1772635585604996000,4.45499609375,-1.5592795610427856,6.248387336730957,4.81101131439209,-0.1130510941147804,-0.0250336937606334,-0.4902875423431396
1772635585624988700,4.47498876953125,-1.9414050579071045,8.781245231628418,5.662525177001953,0.0422110669314861,-0.0849547684192657,-0.8199865818023682
1772635585644981200,4.494981201171875,-1.9901869297027588,10.63462734222412,6.343991279602051,0.2214416563510894,-0.0197073742747306,-0.936366617679596
1772635585664973800,4.514973876953125,-1.256440281867981,11.555618286132812,6.935069561004639,0.7833681702613831,0.0934768766164779,-0.4082622528076172
1772635585684966400,4.53496630859375,-0.4118527173995971,11.911986351013184,6.922919273376465,0.7801723480224609,-0.2783001065254211,1.1118688583374023
1772635585704959200,4.554959228515625,0.0042080730199813,11.601278305053713,5.621522426605225,0.2424806058406829,-0.7355644702911377,2.6072325706481934
1772635585724951800,4.574951904296875,-0.0038209855556488,10.02684211730957,4.197619438171387,0.2837595641613006,-0.5480780601501465,2.6650230884552
1772635585744944400,4.5949443359375,-0.1603221744298935,8.023832321166992,3.3342580795288086,0.3524690568447113,-0.1893505901098251,1.3584773540496826
1772635585784929500,4.634929443359375,-0.5092787742614746,6.201629638671875,1.8799173831939695,0.3229080140590668,-0.0431431718170642,0.6034718155860901
1772635585804922000,4.654922119140625,-0.5299221873283386,4.73752498626709,1.7267849445343018,0.0925447717308998,0.1187768802046775,0.0418115928769111
1772635585824914700,4.674914794921875,-0.6915975213050842,2.8714404106140137,2.4361538887023926,-0.0451405420899391,0.3747064471244812,-0.5787044167518616
1772635585844907300,4.6949072265625,-0.4267668426036834,1.397552490234375,3.5383899211883545,-0.0728373900055885,0.0663126558065414,-0.1446095257997512
1772635585864900000,4.714900146484375,0.602872371673584,0.5427179336547852,3.0292763710021973,0.008655265904963,-0.0311589576303958,0.2854906320571899
1772635585884893000,4.734892822265625,2.030836343765259,-4.154088020324707,0.8122570514678955,-0.1279647797346115,-0.0372842252254486,0.162452682852745
1772635585904886000,4.754885986328125,-1.470789670944214,-8.997644424438477,-7.862916946411133,-0.5050680637359619,0.1145158261060714,-0.5502086281776428
1772635585924879400,4.77487939453125,0.3028726577758789,-3.796870231628418,-7.5340094566345215,-0.7388933897018433,0.3784348666667938,-1.604020595550537
1772635585944872400,4.79487255859375,1.2877273559570312,-1.2390222549438477,-4.990048885345459,-0.754073441028595,0.3675159215927124,-2.2248029708862305
1772635585964865500,4.814865478515625,1.5344374179840088,-5.611424446105957,-4.829648017883301,-0.678439736366272,0.0918789803981781,-2.298039674758911
1772635585984858600,4.834858642578125,1.473244309425354,-7.50489616394043,-7.029762268066406,-0.538091242313385,-0.1997369080781936,-1.1086729764938354
1772635586004851700,4.854851806640625,1.9705661535263064,-5.768502235412598,-7.727124214172363,-0.4528701603412628,-0.3012032508850097,-0.2783001065254211
1772635586024844800,4.8748447265625,2.187142372131348,-6.350519180297852,-6.686518669128418,-0.2898848354816437,-0.1278316229581833,0.2455432415008545
1772635586044838000,4.894837890625,1.3156733512878418,-8.708475112915039,-6.477113246917725,-0.1833584904670715,0.1206410974264144,0.2921485304832458
1772635586084824300,4.93482421875,1.0074937343597412,-8.4288969039917,-8.211068153381348,0.0153131633996963,0.0924116075038909,-0.0095873717218637
1772635586104817400,4.9548173828125,1.078389048576355,-7.551542282104492,-6.412250995635986,0.3625890612602234,0.0972052961587905,0.020240006968379
1772635586124810500,4.974810546875,1.2363240718841553,-7.891408920288086,-6.17886209487915,0.6129260063171387,0.1283642500638961,0.1922800689935684
1772635586144803600,4.994803466796875,0.6014376878738403,-6.403607368469238,-4.54901647567749,0.4299669861793518,0.1267663538455963,0.1475390046834945
1772635586164796700,5.014796630859375,0.4887464642524719,-3.5987844467163086,-1.4231276512145996,-0.0003994738217443,0.0814926624298095,-0.0407463312149047
1772635586184789800,5.034789794921875,0.6774256825447083,-0.817021369934082,0.9183590412139891,-0.2992058992385864,0.1288968920707702,-0.1986716538667678
1772635586204782800,5.054782958984375,-0.0298587381839752,2.074343204498291,2.558171272277832,-0.3330280184745788,0.1834916472434997,-0.2780337929725647
1772635586224776200,5.074776123046875,-0.7376915216445923,5.289616584777832,3.5474853515625,-0.1764342784881591,0.1962748020887375,-0.4247738420963287
1772635586244769300,5.094769287109375,-0.8347464203834534,8.440974235534668,4.510060787200928,0.1588574200868606,0.1451421529054641,-0.6018738746643066
1772635586264762400,5.114762451171875,-0.3685129284858703,10.999886512756348,5.522747039794922,0.3990743458271026,0.1496695280075073,-0.7608644962310791
1772635586284755500,5.13475537109375,-0.7215808033943176,12.21782684326172,6.636601448059082,0.5215796828269958,0.1374190002679824,-0.5832318067550659
1772635586304748500,5.15474853515625,-0.5744935870170593,12.407285690307615,7.182550430297852,0.5596628189086914,0.2940127253532409,0.388022243976593
1772635586324741600,5.17474169921875,0.033819805830717,11.79127311706543,6.156585693359375,0.3676490783691406,0.032490536570549,1.811746954917908
1772635586344734700,5.194734619140625,0.1813958883285522,10.211892127990724,4.490875244140625,0.5487438440322876,-0.114249512553215,2.656500816345215
1772635586364728000,5.21472802734375,-0.5529025793075562,8.261186599731445,3.9379477500915527,0.5000080466270447,-0.0940095037221908,2.67700719833374
1772635586384721400,5.234721435546875,-0.921795666217804,6.768930435180664,3.453831195831299,0.4803006947040558,-0.2237053364515304,1.968606948852539
1772635586404715300,5.25471533203125,-0.8658077120780945,6.072104454040527,2.127206802368164,0.2419479787349701,-0.5547359585762024,0.7643265724182129
1772635586424708900,5.274708984375,-0.862885594367981,6.616645336151123,1.4352176189422607,-0.0352868549525737,-0.4021369814872741,0.0916126668453216
1772635586444702500,5.294702392578125,-0.963663935661316,7.024467468261719,2.5909712314605717,-0.1665805876255035,-0.1941442787647247,-0.3448790609836578
1772635586464696000,5.314696044921875,-0.2221125662326812,6.070226669311523,3.858811378479004,-0.0786963403224945,0.1190432012081146,-0.5771065354347229
1772635586484689700,5.334689697265625,0.1413702964782714,4.107443809509277,4.842533111572266,0.1537974178791046,0.4527370035648346,-0.4799012243747711
1772635586504683500,5.35468359375,-0.050575703382492,1.1113653182983398,5.271605491638184,0.0525973848998546,0.2231727093458175,0.2719085216522217
1772635586524677000,5.374677001953125,1.2101683616638184,-2.247469902038574,2.261941432952881,-0.2603237628936767,-0.0311589576303958,-0.0684431791305542
1772635586544670700,5.394670654296875,0.6246626377105713,-6.735387802124023,-3.2549192905426025,-0.5455480813980103,-0.1653821617364883,-0.8684560656547546
1772635586564664300,5.414664306640625,0.6855829954147339,-6.753848075866699,-8.440730094909668,-0.7487471103668213,-0.1717737466096878,-1.5009562969207764
1772635586584658000,5.434657958984375,1.3360130786895752,-2.89028549194336,-8.349037170410156,-0.7633944749832153,-0.3219758868217468,-1.4319804906845093
1772635586604651800,5.45465185546875,1.7268331050872805,-4.331717491149902,-8.633163452148438,-0.4810996353626251,-0.0924116075038909,-0.8327697515487671
1772635586624645400,5.474645263671875,2.570726156234741,-7.104065895080566,-8.457627296447754,-0.1934784948825836,0.1653821617364883,-0.2314285039901733
1772635586644639000,5.494638916015625,2.249458312988281,-6.626455307006836,-9.552783966064451,0.0778973922133445,0.3874896168708801,0.0639158114790916
1772635586664632600,5.514632568359375,2.27479100227356,-7.317675590515137,-8.111104965209961,0.1748363822698593,0.4668517410755157,-0.1113200411200523
1772635586684626200,5.534626220703125,1.923274040222168,-10.622525215148926,-5.682695865631104,0.0219710599631071,0.3262369632720947,-0.4042675197124481
1772635586704620000,5.5546201171875,0.9127681851387024,-12.196847915649414,-5.150065898895264,-0.0864195004105568,0.2271674424409866,-0.337688535451889
1772635586724613600,5.574613525390625,0.765687882900238,-10.41690444946289,-5.517125129699707,0.0390152782201767,0.1259674131870269,-0.0181094799190759
1772635586744607200,5.594607177734375,0.8636184930801392,-7.885772705078125,-6.56521463394165,0.1596563756465912,-0.0402136966586113,0.0599210746586322
1772635586764600800,5.614600830078125,1.1857268810272217,-6.855432510375977,-6.504142284393311,0.0848216116428375,-0.1547295302152633,-0.0460726469755172
1772635586784594700,5.6345947265625,1.2615787982940674,-5.477743148803711,-5.173360347747803,-0.043010015040636,-0.0990695059299469,-0.0460726469755172
1772635586804588300,5.65458837890625,0.7142563462257385,-2.9487133026123047,-2.2153210639953613,-0.1466068923473358,0.0892158225178718,0.0197073742747306
1772635586824582000,5.674581787109375,-0.1119555830955505,-0.3614444732666015,0.6426174640655518,-0.2454100847244262,0.2737727165222168,-0.0319579057395458
1772635586844575500,5.694575439453125,-1.0477962493896484,1.8969621658325195,2.717459201812744,0.0067910552024841,0.3424822092056274,-0.3771032989025116
1772635586864569000,5.714569091796875,-1.9087510108947756,4.6589460372924805,4.070169448852539,0.4978775382041931,0.2367548197507858,-0.8005455136299133
1772635586884562200,5.734562255859375,-2.0532093048095703,7.551637172698975,5.219737529754639,0.6691186428070068,0.4085285663604736,0.0396810658276081
1772635586904555300,5.75455517578125,-1.4509193897247314,9.614486694335938,5.609726905822754,0.4078627824783325,-0.1318263560533523,1.8903101682662964
1772635586924548000,5.774548095703125,-0.525912880897522,10.27903175354004,5.714094161987305,0.4251733124256134,-0.474308580160141,3.256776809692383
1772635586944541200,5.794541259765625,-0.3208848834037781,10.47214412689209,5.780263900756836,0.5961480736732483,0.0154463211074471,3.2666306495666504
1772635586964534000,5.814533935546875,-0.6015201807022095,11.517851829528809,4.723128318786621,0.5314333438873291,0.1017326638102531,2.4562313556671143
1772635586984527000,5.834527099609375,-0.4255229234695434,11.771446228027344,3.284143447875977,0.5487438440322876,-0.0143810575827956,1.1600719690322876
1772635587004520000,5.85452001953125,0.0787080749869346,9.71388053894043,3.0330793857574463,0.0909468755125999,-0.011185267008841,0.2516685128211975
1772635587024513000,5.874512939453125,-0.1266936957836151,7.602559089660644,3.7876651287078857,-0.3061301112174988,-0.0175768472254276,-0.4918854236602783
1772635587044505900,5.894505859375,-0.3390569686889648,7.274947166442871,4.002415657043457,-0.1751026958227157,0.0908137187361717,-0.7813708186149597
1772635587064499000,5.9144990234375,-0.1243085265159607,7.777317047119141,3.5834555625915527,0.0579237043857574,-0.196008488535881,0.0692421272397041
1772635587084491800,5.93449169921875,-0.6727477312088013,7.787517070770264,2.8943123817443848,0.0624510757625103,-0.0889495015144348,0.1707084774971008
1772635587104484900,5.95448486328125,-0.986672341823578,6.435825824737549,2.3639817237854004,-0.2097237557172775,-0.0993358269333839,-0.2583264112472534
1772635587124477700,5.974477783203125,0.2747723162174225,3.410164833068848,2.6445119380950928,-0.5290365219116211,-0.0812263414263725,-0.8972182273864746
1772635587144470800,5.994470703125,0.7215710282325745,0.0820589065551757,3.23943829536438,-0.7277081608772278,-0.0367515906691551,-1.5014889240264893
1772635587184456700,6.034456787109375,1.0013853311538696,-7.84428596496582,-1.904388427734375,-0.8052060604095459,-0.0695084482431411,-1.7576848268508911
1772635587204449500,6.054449462890625,2.3671793937683105,-6.811229705810547,-8.217183113098145,-0.7559376358985901,-0.2412821948528289,-1.564872145652771
1772635587224442600,6.074442626953125,0.0448077917098999,-1.5729141235351562,-7.241151809692383,-0.6321007609367371,-0.3057306408882141,-1.0056087970733645
1772635587244435500,6.094435546875,-0.1617608666419983,-3.626415252685547,-6.620453357696533,-0.5095954537391663,-0.3086601197719574,-0.2977411448955536
1772635587264428500,6.114428466796875,1.6092643737792969,-7.422914505004883,-7.884845733642578,-0.4259722530841827,-0.162452682852745,0.1265000402927398
1772635587284421400,6.13442138671875,2.644992589950561,-8.252050399780273,-10.519194602966309,-0.3751059174537658,0.0870852917432785,0.0399473831057548
1772635587304414500,6.15441455078125,2.4235568046569824,-7.913785934448242,-9.320963859558104,-0.2126532346010208,0.1051947697997093,-0.2876211404800415
1772635587324407300,6.1744072265625,1.2471368312835691,-8.563286781311035,-6.629604816436768,0.0302268527448177,0.0450073853135108,-0.3387537896633148
1772635587344400400,6.194400390625,0.6184164881706238,-9.71901798248291,-5.454901695251465,0.2499374598264694,-0.0412789620459079,-0.1797632128000259
1772635587364393200,6.214393310546875,1.067612886428833,-10.483939170837402,-6.010394096374512,0.2842921912670135,-0.0908137187361717,-0.1430116295814514
1772635587384386300,6.23438623046875,0.752284586429596,-8.554265022277832,-6.763432025909424,0.1370195150375366,-0.1190432012081146,-0.1821600645780563
1772635587404379600,6.254379638671875,0.6462613940238953,-7.21590518951416,-5.684347152709961,-0.0030626326333731,-0.1102547720074653,-0.1539305746555328
1772635587424372700,6.274372802734375,0.9179767966270448,-5.924335479736328,-4.912934303283691,-0.0968058258295059,0.0221042186021804,-0.0980042442679405
1772635587444365800,6.29436572265625,0.7101212739944458,-3.684328079223633,-2.976442337036133,-0.2890858948230743,0.114249512553215,-0.2327600866556167
1772635587464359200,6.314359130859375,0.0569365620613098,-1.5190916061401367,-0.4175119400024414,-0.1849563866853714,0.0721716061234474,-0.463655948638916
1772635587484352300,6.334352294921875,-0.5385056734085083,1.0765399932861328,1.4342310428619385,0.2637858688831329,-0.1275653094053268,-0.5187833309173584
1772635587504345300,6.354345458984375,-1.1770440340042114,4.380247116088867,2.825112819671631,0.5599291324615479,-0.102531611919403,-0.4820317327976227
1772635587524338400,6.37433837890625,-1.1149598360061646,7.829593181610107,3.93192458152771,0.7482144832611084,0.0330231711268425,-0.1339568942785263
1772635587544331800,6.394331787109375,-0.5288727879524231,10.549150466918944,5.015040397644043,0.4107922613620758,0.0993358269333839,0.8748476505279541
1772635587564324900,6.414324951171875,-0.2989365458488464,11.996326446533203,5.939238548278809,0.4118575155735016,0.3478085398674011,1.961416482925415
1772635587584318000,6.43431787109375,-0.188052088022232,12.44586181640625,6.2386555671691895,0.780971348285675,0.5597959756851196,2.806170463562012
1772635587604311300,6.454311279296875,-0.0803425461053848,11.861762046813965,5.492802619934082,0.7913576364517212,0.1699095368385315,3.2376022338867188
1772635587624304400,6.474304443359375,-0.1085113361477851,10.254650115966797,4.776963233947754,0.3942806720733642,-0.3262369632720947,2.0149459838867188
1772635587644297500,6.49429736328125,-0.1067217141389846,8.195152282714844,4.59663724899292,0.0123836882412433,-0.4391548931598663,0.1824263781309127
1772635587664290600,6.51429052734375,-0.5230745077133179,7.256801605224609,4.299758434295654,-0.4486091136932373,-0.4596612155437469,-0.7321023344993591
1772635587684284000,6.534283935546875,-0.3265959024429321,7.342022895812988,3.3516759872436523,-0.3151848316192627,-0.2508695721626282,-0.5214464664459229
1772635587704277000,6.554277099609375,0.0263032093644142,7.58890962600708,2.36810040473938,0.0880173966288566,0.0207726396620273,-0.1233042553067207
1772635587724270000,6.57427001953125,-0.3157079517841339,7.113195896148682,2.4405922889709477,0.2904174625873565,-0.0053263176232576,0.6167875528335571
1772635587744263400,6.594263427734375,-0.4881187379360199,5.840685844421387,3.177323818206787,0.051798440515995,-0.1794968992471695,0.7235802412033081
1772635587764256500,6.614256591796875,1.1670836210250854,4.066710948944092,2.967247486114502,-0.3756385445594787,-0.2870885133743286,-0.2271674424409866
1772635587784249600,6.63424951171875,-0.474002480506897,1.8288311958312988,3.007231473922729,-0.7247786521911621,-0.2567285001277923,-1.606950044631958
1772635587804242700,6.65424267578125,-0.3779568076133728,-1.7573041915893557,3.3943865299224854,-0.94315767288208,-0.246342197060585,-2.3382534980773926
1772635587824236000,6.674236083984375,0.7108777761459351,-6.436862945556641,0.6144583225250244,-0.934635579586029,-0.3760380148887634,-2.3542323112487797
1772635587844229000,6.69422900390625,0.5926995873451233,-6.925049781799316,-4.697595596313477,-0.6640586256980896,-0.440752774477005,-1.7393090724945068
1772635587864222200,6.71422216796875,0.2827958762645721,-1.8490715026855469,-5.915123462677002,-0.341017484664917,-0.4029359221458435,-0.7076013088226318
1772635587884215000,6.734215087890625,1.0915672779083252,-1.8165245056152344,-7.08713436126709,-0.1950763761997223,-0.3368895947933197,0.1755021661520004
1772635587904208000,6.754207763671875,2.842026710510254,-5.8321943283081055,-9.96750831604004,-0.2350237667560577,0.3392864465713501,0.1233042553067207
1772635587924200400,6.774200439453125,2.691825151443481,-5.688131332397461,-10.57691764831543,-0.0336889587342739,0.5214464664459229,-0.316915899515152
1772635587944193000,6.794193115234375,1.9653198719024656,-4.699817657470703,-10.602741241455078,0.1878858506679535,0.4298338294029236,-0.2404832392930984
1772635587964185900,6.814185791015625,2.503528594970703,-7.570300102233887,-8.06430435180664,0.2752374708652496,0.2940127253532409,0.002130527049303
1772635588004171300,6.854171142578125,0.536209225654602,-12.392772674560549,-5.294870853424072,0.2579269409179687,0.2458095550537109,-0.0071905287913978
1772635588024163800,6.874163818359375,1.0850043296813965,-9.555290222167969,-5.170400619506836,0.1002679318189621,0.1917474269866943,-0.2130527049303054
1772635588044156700,6.89415673828125,2.0198628902435303,-8.092500686645508,-6.975241184234619,-0.1370195150375366,0.1699095368385315,-0.4106590747833252
1772635588064149200,6.914149169921875,1.8939073085784912,-8.434593200683594,-8.594554901123047,-0.3008037805557251,0.2082590162754058,-0.4628570079803467
1772635588084142000,6.93414208984375,1.2133207321166992,-6.940266609191895,-6.795842170715332,-0.3229080140590668,0.1872200667858123,-0.398674875497818
1772635588104134700,6.954134765625,0.8566357493400574,-3.7768783569335938,-2.714487314224243,-0.2520679831504822,0.2210421860218048,-0.5291696786880493
1772635588124127500,6.97412744140625,0.206856220960617,-0.9549379348754884,1.187096118927002,0.0480700172483921,-0.023169482126832,-0.5613938570022583
1772635588144120000,6.9941201171875,-0.954709768295288,2.020442008972168,3.438168525695801,0.4696480631828308,-0.1672463715076446,-0.3435474932193756
1772635588164113000,7.01411279296875,-1.8311612606048584,5.909260749816895,4.495621681213379,1.1349050998687744,-0.2370211333036422,0.1723063737154007
1772635588184105500,7.03410546875,-1.6745887994766235,9.500548362731934,5.412446022033691,1.0454230308532717,0.037550538778305,1.3094751834869385
1772635588204098300,7.054098388671875,-1.5793676376342771,11.667316436767578,5.860023498535156,0.0486026480793952,-0.0119842141866683,2.002695322036743
1772635588224091000,7.0740908203125,-1.3407214879989624,12.536357879638672,5.496697425842285,0.1231710985302925,0.1616537421941757,2.4032344818115234
1772635588244083700,7.094083740234375,-0.6099086403846741,12.420151710510254,5.205101013183594,0.6257091760635376,0.1752358525991439,3.2290799617767334
1772635588264076300,7.114076171875,0.1038309335708618,11.643463134765623,4.737586975097656,0.8198534250259399,-0.5004075169563293,2.995521068572998
1772635588284069000,7.134069091796875,-0.0408523492515087,10.394241333007812,4.499062538146973,0.2035984843969345,-0.6348970532417297,1.300953030586243
1772635588304061700,7.154061767578125,-0.5603742003440857,8.634466171264648,4.528008937835693,-0.3769701421260834,-0.0322242230176925,-0.5531380772590637
1772635588324054500,7.174054443359375,-0.9196290373802184,7.144493103027344,3.884155988693237,-0.4550006687641144,0.343813806772232,-1.0157287120819092
1772635588344047000,7.194047119140625,-1.093125581741333,6.237004280090332,2.665111541748047,-0.1615205854177475,0.1043958216905593,-0.4828307032585144
1772635588364040000,7.2140400390625,-1.060001254081726,6.574943542480469,1.772568941116333,-0.0994689837098121,-0.4271706640720367,0.2133190184831619
1772635588384032300,7.2340322265625,-0.5739021301269531,7.927300930023193,0.9273653030395508,-0.1106542497873306,-0.4902875423431396,0.4412854015827179
1772635588404024300,7.2540244140625,-0.4526448547840118,8.197014808654785,1.18644917011261,-0.3085269629955292,-0.327035903930664,-0.013315794058144
1772635588424016600,7.2740166015625,0.8327639102935791,7.1855573654174805,2.183699131011963,-0.714392364025116,0.0087884236127138,-0.9496824145317078
1772635588444008700,7.2940087890625,0.7980124354362488,4.925680160522461,3.098599910736084,-0.9490166306495668,0.3235737979412079,-1.8756628036499023
1772635588464001000,7.3140009765625,1.2810068130493164,0.5078639984130859,3.301602363586426,-0.9793766736984252,0.3656516969203949,-2.283392429351806
1772635588483993000,7.3339931640625,1.124874234199524,-6.699396133422852,0.3516037464141845,-0.8147934675216675,0.1438105702400207,-1.978726983070373
1772635588503985400,7.3539853515625,-2.0394434928894043,-14.371929168701172,-5.558615684509277,-0.5063996315002441,-0.2415485084056854,-1.051681399345398
1772635588523977500,7.3739775390625,-0.8487442135810852,-5.334910392761231,-5.9052276611328125,-0.1748363822698593,-0.4364917278289795,0.1017326638102531
1772635588543969800,7.3939697265625,1.2145729064941406,3.8770484924316406,-6.545178413391113,-0.0747016072273254,-0.2657832503318786,0.7542065978050232
1772635588563961900,7.4139619140625,4.139465808868408,-1.3860969543457031,-7.936461925506592,-0.1506016254425048,0.1334242522716522,0.657001256942749
1772635588583954200,7.4339541015625,4.262439727783203,-9.755501747131348,-10.545381546020508,0.0241015870124101,0.4993422627449035,0.0988031923770904
1772635588603946200,7.4539462890625,1.2030224800109863,-13.013405799865724,-12.181754112243652,0.5708481073379517,0.4370243549346924,-0.3187801241874695
1772635588623938600,7.4739384765625,0.2215415239334106,-11.79924774169922,-9.275310516357422,0.6696512699127197,0.0388821177184581,-0.4101264476776123
1772635588643931000,7.493930908203125,1.2496858835220337,-10.882570266723633,-6.4895920753479,0.3295659124851227,-0.1675126850605011,-0.348341166973114
1772635588663923000,7.5139228515625,2.114778518676758,-11.45384120941162,-7.039546966552734,-0.0573910735547542,-0.0274305362254381,-0.31238853931427
1772635588683915300,7.533915283203125,1.3051557540893557,-10.425987243652344,-8.7520751953125,-0.2611227333545685,0.0029294746927917,-0.3701790869235992
1772635588703907300,7.5539072265625,1.330846071243286,-8.957757949829102,-7.868877410888672,-0.3916175067424774,-0.0665789693593978,-0.3688474893569946
1772635588723899600,7.573899658203125,1.0938749313354492,-7.344005584716797,-5.315258026123047,-0.380698561668396,-0.0343547500669956,-0.2996053695678711
1772635588743891700,7.5938916015625,0.5991718769073486,-4.493179321289063,-1.9696016311645508,-0.2049300670623779,0.1451421529054641,-0.3296990692615509
1772635588763884000,7.613884033203125,0.6440699100494385,-1.4900732040405271,0.9194011688232422,0.6981470584869385,0.3339601159095764,-0.3677822351455688
1772635588783876000,7.6338759765625,0.3790556788444519,1.3050556182861328,3.08396315574646,0.9897629618644714,0.0122505305334925,-0.379766434431076
1772635588803868400,7.653868408203125,-0.4667742848396301,4.855147838592529,4.497517108917236,0.9607345461845398,0.2047969102859497,0.4751075208187103
1772635588823860500,7.673860595703125,-0.7983320355415344,8.912158966064453,5.026976108551025,0.1090563535690307,0.0431431718170642,1.7060195207595823
1772635588843852800,7.693852783203125,-0.4469366073608398,11.778868675231934,5.644113540649414,0.8523439764976501,0.5014728307723999,3.136402130126953
1772635588863844900,7.713844970703125,-0.4510838985443115,13.026416778564451,6.17658805847168,0.7998797297477722,-0.1802958548069,2.410691261291504
1772635588883838500,7.73383837890625,-0.5129064321517944,12.902952194213867,5.437520980834961,0.1671132147312164,-0.5749759674072266,0.7225149869918823
1772635588903832600,7.75383251953125,0.8928079605102539,11.771743774414062,4.962480545043945,-0.2557964026927948,-0.2929474711418152,-0.5779054760932922
1772635588923826400,7.773826416015625,1.0057529211044312,9.593695640563965,4.541679859161377,-0.3561974763870239,-0.278832733631134,-0.578970730304718
1772635588943820500,7.793820556640625,-0.2381141483783722,8.1802396774292,4.221816062927246,-0.1066595092415809,-0.2095905989408493,-0.2695116698741913
1772635588963814700,7.813814697265625,-1.0172457695007324,7.296915531158447,2.653846025466919,0.0696416050195694,-0.0886831879615783,-0.0719052851200103
1772635588983808500,7.83380859375,-0.8459891080856323,6.100200653076172,1.522839069366455,0.0880173966288566,-0.0255663245916366,0.2013348042964935
1772635589003802600,7.853802734375,-0.6563421487808228,6.201490879058838,2.1421730518341064,-0.0318247489631176,-0.0950747728347778,0.1805621683597564
1772635589023796500,7.87379638671875,-0.7683030366897583,7.817630767822266,3.0271236896514893,-0.4645880460739136,-0.2013348042964935,-0.4500738382339477
1772635589043790600,7.89379052734375,-0.2848221659660339,8.638376235961914,3.312657833099365,-0.888829231262207,-0.1139831990003585,-1.3614068031311035
1772635589063784400,7.913784423828125,0.1564320176839828,8.280994415283203,3.5040345191955566,-1.021188259124756,-0.0239684283733367,-1.7821859121322632
1772635589083778600,7.933778564453125,1.294102668762207,6.714224815368652,3.9998838901519775,-0.8587355613708496,-0.1259674131870269,-1.5912374258041382
1772635589123766500,7.9737666015625,2.1476891040802,-5.710474967956543,2.00812029838562,-0.2520679831504822,-0.1278316229581833,-0.2474074512720108
1772635589143760600,7.9937607421875,-2.897054433822632,-16.923194885253906,-7.605916976928711,-0.1756353229284286,0.169643223285675,0.2974748313426971
1772635589163754500,8.01375439453125,0.1343488991260528,-9.338053703308104,-8.647751808166504,-0.1482047885656356,0.5198485851287842,0.2745716869831085
1772635589183748600,8.03374853515625,1.8053184747695925,3.1669764518737797,-6.800124645233154,-0.0462058037519454,0.551540195941925,-0.2194442898035049
1772635589203742500,8.053742431640625,4.207937240600586,-0.9697608947753906,-8.08713436126709,0.1716405898332595,0.4498075246810913,-0.5363602042198181
1772635589223736600,8.073736572265625,3.607819557189941,-8.324058532714844,-10.855020523071287,0.3239732682704925,0.3336938023567199,-0.38189697265625
1772635589243730400,8.09373046875,0.4607481360435486,-9.667011260986328,-12.787418365478516,0.2629869282245636,0.1195758283138275,-0.2370211333036422
1772635589263724500,8.113724609375,2.010218381881714,-7.14784049987793,-8.276412963867188,0.0211721118539571,-0.0822916105389595,-0.2796316742897033
1772635589283718700,8.13371875,2.6363062858581543,-8.91033935546875,-6.168063640594482,-0.2251700758934021,-0.1656484752893448,-0.3693801164627075
1772635589303712500,8.15371240234375,1.1975173950195312,-13.750226020812988,-7.344822883605957,-0.3641869723796844,-0.1366200447082519,-0.377369612455368
1772635589323706600,8.17370654296875,0.3818327188491821,-12.216432571411133,-7.351781845092773,-0.355664849281311,-0.0593884401023387,-0.2351569235324859
1772635589343700500,8.193700439453124,1.2623817920684814,-7.387388229370117,-6.786770820617676,-0.1870869100093841,0.1454084664583206,-0.1097221449017524
1772635589363694600,8.213694580078124,2.036670207977295,-6.839522361755371,-7.5120062828063965,0.3119890689849853,0.3587274849414825,-0.2585927248001098
1772635589383687700,8.233687744140624,1.4250404834747314,-5.790186882019043,-6.116740703582764,1.0046766996383667,0.2277000844478607,-0.4151864647865295
1772635589403680800,8.2536806640625,0.7417700290679932,-2.419897079467773,-1.786620855331421,1.3120051622390747,0.07590002566576,0.0516652800142765
1772635589423673900,8.273673828125,0.0084193348884582,0.7087020874023438,1.904218673706055,-0.1207742542028427,-0.3898864388465881,1.1419625282287598
1772635589443667000,8.2936669921875,-0.9395080804824828,3.245245933532715,3.841098070144653,0.3343595862388611,-0.1701758503913879,1.269527792930603
1772635589463660000,8.313659912109374,-1.5592395067214966,6.11794376373291,4.62148904800415,0.7245123386383057,0.1126516163349151,1.7012258768081665
1772635589483653000,8.333653076171874,-1.9751713275909424,9.119574546813965,4.922218322753906,0.6129260063171387,-0.1131842508912086,2.074867010116577
1772635589503646200,8.353646240234376,-1.3179694414138794,11.201763153076172,5.683364868164063,0.2528669238090515,-0.600275993347168,1.2804467678070068
1772635589523639000,8.37363916015625,0.3587552607059479,12.093669891357422,6.529616832733154,0.0363521166145801,-0.5217128396034241,0.1315600425004959
1772635589543632100,8.393632080078126,0.928619146347046,12.441859245300291,6.260710716247559,-0.3631217181682586,-0.5067991018295288,-0.6958833932876587
1772635589563625200,8.413625244140626,0.2893535196781158,12.139610290527344,4.774774074554443,-0.6097301840782166,-0.5422191619873047,-0.8855003118515015
1772635589583618300,8.433618408203126,0.1313968896865844,10.18740463256836,3.769038677215576,-0.0672447606921196,-0.4921517372131347,0.0756337121129036
1772635589603611400,8.453611328125,-0.3400341272354126,7.540891647338867,3.433699131011963,0.0440752767026424,-0.402669608592987,0.3914843499660492
1772635589623604500,8.4736044921875,-0.6619782447814941,6.15345573425293,2.9898812770843506,-0.0504668578505516,-0.2170474380254745,0.3741738200187683
1772635589643597600,8.49359765625,-0.6883111596107483,6.340794563293457,2.7996842861175537,-0.1913479566574096,-0.1195758283138275,0.066046342253685
1772635589663590700,8.513590576171875,-0.3947461545467376,7.34425163269043,3.0785343647003174,-0.2568616569042206,-0.0612526535987854,-0.2005358636379242
1772635589683583700,8.533583740234375,-0.0408920794725418,8.61227035522461,2.964874744415283,-0.2978743016719818,-0.1187768802046775,-0.2996053695678711
1772635589703576800,8.553576904296875,-0.0166104435920715,7.92337703704834,3.325793981552124,-0.2589921951293945,-0.174170583486557,-0.2415485084056854
1772635589723569700,8.573569580078125,0.9784982800483704,4.44830846786499,3.33003568649292,-0.1953427046537399,-0.2013348042964935,-0.10359688103199
1772635589743562800,8.593562744140625,0.5663799047470093,0.1787729263305664,1.600324630737305,-0.1767005920410156,-0.1533979475498199,0.0806937143206596
1772635589763555800,8.613555908203125,0.5436403751373291,-6.164584159851074,-1.9565329551696775,-0.0882837176322937,-0.0431431718170642,0.1081242486834526
1772635589783549000,8.633548828125,1.2515777349472046,-13.698177337646484,-5.911980628967285,0.0091878976672887,0.0452736988663673,0.0663126558065414
1772635589803542000,8.6535419921875,1.0620286464691162,-7.241524696350098,-8.166494369506836,0.0384826436638832,0.1203747764229774,-0.0623179152607917
1772635589823535000,8.67353515625,-1.2096292972564695,-0.0297603607177734,-5.887789726257324,0.0336889587342739,0.1579253226518631,-0.1579253226518631
1772635589843528200,8.693528076171875,0.8456577658653259,-2.994661331176758,-6.4978437423706055,0.0603205487132072,0.0804273933172226,-0.0351536944508552
1772635589863521300,8.713521240234375,3.5043609142303467,-6.921472549438477,-9.116756439208984,0.0984037145972251,0.0969389826059341,0.0993358269333839
1772635589883513600,8.733513671875,3.1053285598754883,-5.493947982788086,-10.310075759887695,0.0880173966288566,0.2237053364515304,0.168577954173088
1772635589903506200,8.753506103515624,1.323113203048706,-5.706127166748047,-7.75648307800293,0.00093210558407,0.3898864388465881,0.1219726726412773
1772635589923498500,8.77349853515625,0.3771988749504089,-7.209038734436035,-3.897451639175415,0.0217047445476055,0.4695149064064026,-0.070840023458004
1772635589943490800,8.79349072265625,-0.4494638442993164,-5.633476257324219,-2.634765386581421,0.0411458052694797,0.4351601600646972,-0.1198421493172645
1772635589963483100,8.813483154296875,0.1421800255775451,-3.689959526062012,-1.7261574268341064,-0.0254331659525632,0.4149201512336731,-0.1107874065637588
1772635589983475700,8.833475830078125,0.7865056991577148,-2.3686399459838867,-0.7993435859680176,-0.0091878976672887,0.4554001688957214,-0.0500673875212669
1772635590003468000,8.853468017578125,0.4843571782112121,-1.2452144622802734,-0.7508790493011475,0.0478036999702453,0.4735096395015716,-0.0623179152607917
1772635590023460400,8.87346044921875,0.3772262930870056,-0.3006963729858398,-0.7138307094573975,0.1207742542028427,0.4846948981285095,-0.0268979035317897
1772635590043453000,8.893452880859375,0.2426627278327942,0.5921220779418945,-0.3772170543670654,0.1476721614599228,0.423974871635437,0.0002663158811628
1772635590063445200,8.9134453125,0.0582672953605651,1.4003949165344238,0.2778074741363525,0.0912131890654563,0.3163832724094391,-0.048469491302967
1772635590083437600,8.9334375,-0.0536563992500305,1.8073129653930664,0.9502518177032472,0.0659131780266761,0.2498043030500412,-0.0663126558065414
1772635590103430000,8.953429931640626,-0.4048902988433838,2.323580265045166,1.1828477382659912,0.0994689837098121,0.2215748131275177,-0.0378168560564518
1772635590123422200,8.973422119140626,-0.1293135285377502,2.789273262023926,1.2994203567504885,0.0845552906394004,0.1765674352645874,-0.0532631762325763
1772635590143414800,8.993414794921875,0.176546037197113,2.730083465576172,1.7780882120132446,0.0563258081674575,0.1914811134338379,-0.0506000183522701
1772635590163407000,9.013406982421875,0.1435763537883758,2.573537349700928,1.706365942955017,0.0917458236217498,0.227433755993843,0.020240006968379
1772635590183399400,9.0333994140625,0.1124971807003021,2.449389934539795,1.185774564743042,0.1133174076676368,0.222373753786087,0.0788294970989227
1772635590203391700,9.053391845703125,0.00783172249794,2.084678173065185,0.8836615085601807,0.1018658280372619,0.1869537532329559,0.0724379196763038
1772635590223384300,9.07338427734375,-0.1258436441421508,1.3266596794128418,0.6473321914672852,0.1327584683895111,0.2370211333036422,0.0692421272397041
1772635590243376600,9.093376708984374,-0.0994680821895599,0.3962287902832031,0.4151251316070556,0.1537974178791046,0.2876211404800415,0.0399473831057548
1772635590263369000,9.113368896484374,0.0991991758346557,0.1915245056152343,0.0940027236938476,0.0984037145972251,0.2388853430747985,-0.006657897029072
1772635590283361500,9.133361572265626,0.2559342086315155,0.2989215850830078,0.2068142890930175,0.0363521166145801,0.2380864024162292,-0.006657897029072
1772635590303353900,9.153353759765626,0.3989616334438324,0.2223987579345703,0.2308945655822754,0.0304931681603193,0.2261021882295608,-0.0095873717218637
1772635590323346200,9.17334619140625,0.3244627714157104,0.0264997482299804,0.0922522544860839,0.0312921144068241,0.1984053254127502,-0.0287621151655912
1772635590343338500,9.19333837890625,0.2194409668445587,0.1395406723022461,-0.0258538722991943,0.0424773842096328,0.1978726983070373,-0.0162452682852745
1772635590363331000,9.2133310546875,0.4295485317707062,0.4909553527832031,-0.2091350555419922,0.0616521276533603,0.1771000623703003,0.0042610540986061
1772635590383324000,9.233323974609377,0.6019193530082703,0.8109664916992188,-0.4956042766571045,0.0640489682555198,0.1185105666518211,0.0130494777113199
1772635590403317000,9.25331689453125,0.4294662773609161,0.7485275268554688,-0.7689633369445801,0.0435426458716392,0.0870852917432785,0.0162452682852745
1772635590423310000,9.27331005859375,0.1845185458660125,0.3927564620971679,-0.873011589050293,0.0041278963908553,0.0370179079473018,0.0234357975423336
1772635590443303200,9.29330322265625,0.1894814074039459,0.2264242172241211,-0.6332237720489502,-0.0035952643956989,0.0109189506620168,0.0215715859085321
1772635590463296300,9.313296142578125,0.3103236258029938,0.4165563583374023,-0.2904088497161865,-0.017710005864501,-0.0007989476434886,0.0149136893451213
1772635590483289300,9.333289306640625,0.3195801973342895,0.5485448837280273,-0.1159594058990478,-0.0352868549525737,0.0069242129102349,-0.0117178987711668
1772635590503282400,9.353282470703125,0.4755963683128357,0.5517158508300781,-0.2333707809448242,-0.0230363234877586,0.0247673764824867,-0.0292947478592395
1772635590523275500,9.373275634765625,0.7697675824165344,0.6896257400512695,-0.6433172225952148,-0.0161121115088462,0.0237021129578351,-0.0127831622958183
1772635590543268600,9.3932685546875,0.6968045830726624,0.6510190963745117,-0.7037968635559082,-0.019840532913804,0.0119842141866683,0.0162452682852745
1772635590563261700,9.41326171875,0.3999704420566559,0.4814109802246094,-0.6782200336456299,-0.0272973775863647,-0.0237021129578351,0.0130494777113199
1772635590583254800,9.4332548828125,0.377069890499115,0.4890203475952148,-0.7389469146728516,-0.0230363234877586,-0.0423442237079143,0.0106526352465152
1772635590603247900,9.453247802734374,0.2948072254657745,0.4807424545288086,-0.6377222537994385,-0.0259657986462116,-0.0508663319051265,0.0055926335044205
1772635590623241000,9.473240966796874,0.196528285741806,0.3404874801635742,-0.5552084445953369,-0.0225036926567554,-0.034621063619852,-0.0101200034841895
1772635590643234000,9.493234130859374,0.226563885807991,0.4521064758300781,-0.8413116931915283,-0.0243679024279117,0.0002663158811628,-0.0186421126127243
1772635590663227100,9.51322705078125,0.3310728669166565,0.7108278274536133,-1.1218318939208984,-0.010785792954266,0.0101200034841895,-0.0079894764348864
1772635590683220200,9.53322021484375,0.3659298419952392,0.6324291229248047,-0.8640608787536621,-0.0139815835282206,0.0047936858609318,0.0018642111681401
1772635590703213300,9.55321337890625,0.2629906833171844,0.573826789855957,-0.8046460151672363,-0.0368847511708736,0.0090547399595379,0.0005326317623257
1772635590723206400,9.573206298828126,0.1240419745445251,0.6589384078979492,-0.9323437213897704,-0.040080539882183,0.0069242129102349,-0.017310531809926
1772635590743199500,9.593199462890626,0.1199182868003845,0.5359430313110352,-0.6849880218505859,-0.0342215895652771,-0.0141147412359714,-0.017310531809926
1772635590763192600,9.613192626953126,0.0914468169212341,0.4212074279785156,-0.7031362056732178,-0.0201068483293056,-0.0135821104049682,-0.0059921070933341
1772635590783185700,9.633185546875,0.0206028521060943,0.396484375,-1.0157885551452637,-0.0022636849898844,0.0029294746927917,0.0054594753310084
1772635590803179000,9.653178955078126,0.1047295928001403,0.2527933120727539,-0.953603982925415,0.010785792954266,0.0159789528697729,0.0122505305334925
1772635590823172000,9.673172119140624,0.0834988057613372,0.3831462860107422,-0.8073878288269043,0.0219710599631071,0.0266315881162881,0.0165115855634212
1772635590843165200,9.693165283203124,0.1629390120506286,0.6697444915771484,-0.6872377395629883,0.0275636930018663,0.006657897029072,0.0130494777113199
1772635590863158300,9.713158203125,0.1570973098278045,0.6728677749633789,-0.7209386825561523,0.0235689561814069,0.0071905287913978,0.013315794058144
1772635590883152000,9.73315185546875,0.1351993083953857,0.4697704315185547,-0.9004206657409668,0.0225036926567554,0.0106526352465152,0.0106526352465152
1772635590903145700,9.753145751953124,0.0789473354816436,0.3576288223266601,-1.0198068618774414,0.0259657986462116,0.0250336937606334,0.0087884236127138
1772635590923139600,9.7731396484375,0.0342692881822586,0.3744697570800781,-1.0373663902282717,0.0376836955547332,0.0274305362254381,0.0114515833556652
1772635590943133700,9.7931337890625,0.1839605569839477,0.3912296295166015,-1.0059633255004885,0.0414121188223362,0.0258326400071382,0.0186421126127243
1772635590963127600,9.81312744140625,0.2795252799987793,0.3985147476196289,-0.9659996032714844,0.0312921144068241,0.0207726396620273,0.0319579057395458
1772635590983121400,9.833121337890624,0.0027904510498046,0.4116010665893554,-0.8093609809875488,0.0366184338927269,0.020240006968379,0.0298273786902427
1772635591003115300,9.853115234375,0.0240273773670196,0.3788642883300781,-0.6098871231079102,0.040080539882183,0.0234357975423336,0.0117178987711668
1772635591023109400,9.873109375,0.1194566339254379,0.4377374649047851,-0.5511138439178467,0.0153131633996963,0.0165115855634212,0.0098536871373653
1772635591043103200,9.893103271484376,0.081337496638298,0.484893798828125,-0.6174635887145996,0.0059921070933341,0.0135821104049682,0.0181094799190759
1772635591063097000,9.91309716796875,0.1327968090772628,0.4211225509643554,-0.7598998546600342,0.0123836882412433,0.0149136893451213,0.0165115855634212
1772635591083091000,9.933091064453125,0.0996604263782501,0.3377399444580078,-0.7590150833129883,0.0235689561814069,0.0210389550775289,0.0087884236127138
1772635591103084800,9.953084716796877,0.1637623757123947,0.3507766723632812,-0.7455720901489258,0.0283626411110162,0.0279631670564413,0.0095873717218637
1772635591123079000,9.973078857421877,0.1644792407751083,0.3398752212524414,-0.7322914600372314,0.0390152782201767,0.0295610632747411,0.0159789528697729
1772635591143072800,9.99307275390625,0.0994659662246704,0.3296937942504883,-0.6149532794952393,0.0424773842096328,0.032490536570549,0.022370534017682
1772635591163066600,10.013066650390623,0.0771015882492065,0.320500373840332,-0.6063539981842041,0.0294279046356678,0.0218379013240337,0.0290284305810928
1772635591203054600,10.0530546875,0.1134019643068313,0.3555860519409179,-0.5335361957550049,0.0241015870124101,0.0239684283733367,0.0367515906691551
1772635591223048400,10.07304833984375,0.1625329107046127,0.3697414398193359,-0.6136693954467773,0.0171773750334978,0.020240006968379,0.0348873808979988
1772635591243042300,10.093042236328126,0.1917209178209304,0.3826160430908203,-0.7354416847229004,0.0123836882412433,0.0226368494331836,0.025300009176135
1772635591263036200,10.1130361328125,0.1976301223039627,0.4254388809204101,-0.7247097492218018,0.019840532913804,0.0210389550775289,0.0197073742747306
1772635591283030000,10.133030029296876,0.1994786709547042,0.4214105606079101,-0.6450157165527344,0.0185089539736509,0.0069242129102349,0.0094542140141129
1772635591303024000,10.153024169921874,0.1941699534654617,0.3835992813110351,-0.603100061416626,0.0185089539736509,0.0039947382174432,0.0145142152905464
1772635591323018000,10.17301806640625,0.1582777798175811,0.3359594345092773,-0.5302300453186035,0.0422110669314861,0.0039947382174432,0.0230363234877586
1772635591343011800,10.19301171875,0.1198191046714782,0.2822856903076172,-0.4808323383331299,0.0856205523014068,0.0138484258204698,0.0243679024279117
1772635591363005700,10.213005615234374,0.1844944804906845,0.3574781417846679,-0.4672996997833252,0.0707068666815757,0.0069242129102349,0.027830010280013
1772635591382998300,10.232998291015624,0.2388875186443328,0.4228467941284179,-0.4962904453277588,-0.0557931773364543,-0.0106526352465152,0.0495347529649734
1772635591402990600,10.252990478515626,0.2732951641082763,0.3397254943847656,-0.5302064418792725,-0.1476721614599228,-0.0050600017420947,0.0399473831057548
1772635591422982700,10.272982666015626,0.1917123943567276,0.3669643402099609,-0.5646505355834961,-0.0997352972626686,0.0090547399595379,0.0010652635246515
1772635591442975000,10.29297509765625,0.1585795283317566,0.4084835052490234,-0.594038724899292,,,
1772635591462967000,10.312967041015623,0.1504392772912979,0.3640356063842773,-0.5857861042022705,,,
1772635591482959400,10.33295947265625,0.1570894122123718,0.3292951583862304,-0.5730729103088379,,,
1772635591502951400,10.352951416015625,0.1581159234046936,0.3758468627929687,-0.5893387794494629,,,
1772635591522943700,10.37294384765625,0.1808021664619445,0.3502960205078125,-0.6092867851257324,,,
1772635591542935800,10.392935791015624,0.1275343149900436,0.3240585327148437,-0.6411519050598145,,,
1772635591562928000,10.41292822265625,0.150999367237091,0.3784675598144531,-0.6905372142791748,,,
1772635591582920200,10.432920166015624,0.2398402690887451,0.4087705612182617,-0.6981608867645264,,,
1772635591602912500,10.45291259765625,0.1679050624370575,0.4031181335449219,-0.6993498802185059,,,
1772635591622904600,10.472904541015623,0.1235509514808654,0.3632106781005859,-0.7047348022460938,,,
1772635591642896600,10.492896728515625,0.1325019598007202,0.3612756729125976,-0.6516361236572266,,,
1772635591662889000,10.512888916015624,0.1208963096141815,0.3548183441162109,-0.5610299110412598,,,
1772635591682881000,10.532881103515624,0.1037794202566146,0.3296442031860351,-0.5675497055053711,,,
1772635591702873300,10.552873291015626,0.104033425450325,0.3855867385864258,-0.5732319355010986,,,
1772635591722865400,10.572865478515626,0.1174915581941604,0.3973779678344726,-0.5874660015106201,,,
1772635591742857700,10.592857666015624,0.1308572590351104,0.3613290786743164,-0.6613852977752686,,,
1772635591762849800,10.612849853515623,0.141435295343399,0.3774957656860351,-0.6727991104125977,,,
1772635591782842000,10.632842041015625,0.1193197667598724,0.4172658920288086,-0.6736483573913574,,,
1772635591802834200,10.652834228515625,0.0935938954353332,0.375894546508789,-0.670464038848877,,,
1772635591822826500,10.672826416015624,0.092907428741455,0.3591251373291015,-0.7162454128265381,,,
1772635591842818600,10.692818603515626,0.0849116146564483,0.3379278182983398,-0.7206757068634033,,,
1772635591862811000,10.712810791015626,0.0821417868137359,0.3748044967651367,-0.6691346168518066,,,
1772635591882804000,10.732803955078126,0.0874353647232055,0.4447708129882812,-0.592576265335083,,,
1772635591902797600,10.752797607421876,0.0829631686210632,0.418100357055664,-0.6436259746551514,,,
1772635591922791200,10.772791259765626,0.0858798921108245,0.3626470565795898,-0.5945994853973389,,,
1772635591942784800,10.79278466796875,0.0966009497642517,0.2451009750366211,-0.5834174156188965,,,
1772635591962778400,10.8127783203125,0.1449527144432068,0.2845525741577148,-0.6204531192779541,,,
1772635591982772000,10.83277197265625,0.1579465866088867,0.3489761352539062,-0.6608536243438721,,,
1772635592002765600,10.852765625,0.0799718648195266,0.4303131103515625,-0.6213314533233643,,,
