time,seconds_elapsed,accel_z,accel_y,accel_x,gyro_x,gyro_y,gyro_z
1772808249952703200,0.080703125,-0.5218839394658804,-0.0811132258489727,0.2454444678064435,0.2894138693809509,-0.4038256704807281,0.0904120579361915
1772808249972752100,0.100752197265625,-0.300698518320918,0.0856482389301061,0.4673679209023714,0.4752715826034546,-0.5019733309745789,0.1759276539087295
1772808249992801300,0.12080126953125,-0.7495709975898266,-0.0644052521541714,0.1280683807041496,0.5157172679901123,-0.609352707862854,0.2356707453727722
1772808250012850000,0.140849853515625,0.009873159238696,-0.0057072717308998,-0.1876112875189632,0.4547368884086609,-0.3325685560703277,0.146559864282608
1772808250032899000,0.160899169921875,0.0910702639788389,-0.2585176651954651,-0.3184961869485676,0.3936043679714203,-0.0204400401562452,0.0083526819944381
1772808250052948200,0.1809482421875,0.7267886724174022,-0.3964958108216523,-0.5417422669503837,0.1812342703342437,0.3653128445148468,-0.1092691868543624
1772808250072997000,0.2009970703125,1.198611234641075,-0.5284948820382356,-0.7186210749875753,-0.1106080934405326,0.6388154029846191,-0.2859653830528259
1772808250093045200,0.221045166015625,0.8371995966821908,-0.3040180181324481,-0.3761652627155185,-0.1976763755083084,0.4241535365581512,-0.4952992796897888
1772808250113094100,0.24109423828125,0.1642103189915418,-0.2725932445600628,0.0807377436000853,0.0057400818914175,-0.1134238243103027,-0.5685262680053711
1772808250133143300,0.261143310546875,0.0403156437754631,-0.0064350014835596,0.1332251058802008,0.2763483822345733,-0.5060808658599854,-0.502521812915802
1772808250153192000,0.28119189453125,0.1826134061664343,0.1816805092304944,-0.1489861541137099,0.4509827792644501,-0.4633657336235046,-0.4946179091930389
1772808250173241000,0.301240966796875,0.3559218083709478,0.1862526394516229,-0.2203469244942069,0.4701856672763824,-0.180485188961029,-0.478465586900711
1772808250193290200,0.321290283203125,0.9229583102494476,0.1663502536296844,-0.2736112624961883,0.2413357347249984,0.2309818714857101,-0.4334813952445984
1772808250213339100,0.341339111328125,1.140204638379812,-0.0796171420723199,-0.1932213824857026,-0.0593788214027881,0.5662785172462463,-0.4251517057418823
1772808250233388300,0.36138818359375,0.718223088645935,-0.0199327809602022,0.2667504733486101,-0.2029284834861755,0.4289398491382599,-0.3893001675605774
1772808250253437000,0.38143701171875,0.8927788605630397,0.1069341880649328,0.3567009760499,-0.1047737300395965,0.2509419322013855,-0.3054710030555725
1772808250273486000,0.401486083984375,0.8781757501929998,0.2052156985968351,0.186823132815957,-0.1023825779557228,0.265298068523407,-0.1948393136262893
1772808250293535200,0.42153515625,1.0862123514294624,0.0658417146980762,0.1963821480715647,-0.2376266866922378,0.3345555067062378,-0.1160062104463577
1772808250313584000,0.441584228515625,0.8280997599035501,0.1168897648900747,0.3806418601403012,-0.3213979601860046,0.2266329675912857,-0.0051862439140677
1772808250333633300,0.46163330078125,0.4440104261904954,0.2583639359384775,0.1875756316836923,-0.2786130905151367,0.0446463078260421,0.0558513402938842
1772808250353682000,0.481681884765625,0.4836696518838405,0.4005979854434728,-0.0755896492550615,-0.2192065268754959,0.0072176270186901,0.0020082129631191
1772808250373731000,0.50173095703125,0.4193313274860382,0.373407780700922,0.0162467950569931,-0.1610964387655258,0.053639430552721,-0.0430523231625556
1772808250393780200,0.5217802734375,0.4177840980440378,0.2901385458618402,0.348467839103192,-0.0976423323154449,0.1287580132484436,0.0584467723965644
1772808250413829000,0.5418291015625,0.751569477930665,0.330756971976161,0.3128772510882467,-0.0346927382051944,0.1956392377614975,0.1056527569890022
1772808250433878300,0.561878173828125,1.0429343507170676,0.2867503647282719,0.2128919871120713,-0.0639949664473533,0.1118380799889564,0.034394022077322
1772808250453927200,0.58192724609375,0.946912017288804,0.5546846775665879,-0.0317575720235938,0.0035207427572458,-0.011102077551186,-0.1336879730224609
1772808250473976000,0.60197607421875,1.1258300760686395,0.8928066253527999,0.0251780383696546,0.0844770222902298,-0.1518851816654205,-0.2426943629980087
1772808250494025500,0.622025390625,1.3274994803607465,1.055686572523415,0.1379427729187067,0.0440392270684242,-0.1928399503231048,-0.1444886475801468
1772808250514074400,0.642074462890625,1.2576859394222497,1.563095119652152,-0.4190572963176295,0.1110177189111709,-0.1941973119974136,-0.0424546711146831
1772808250534123500,0.66212353515625,1.1855167752683162,1.6778724224328994,-0.4113603120742365,0.4073728919029236,-0.1929825991392135,0.0426023975014686
1772808250554172400,0.68217236328125,1.862068713876605,1.628548127293587,-0.4485044496741145,0.5869531035423279,-0.1974890381097793,0.1014385521411895
1772808250574220500,0.702220458984375,2.587837980118394,1.534438934010267,-0.3173114341434091,0.6375009417533875,-0.1281487792730331,0.1462891995906829
1772808250594269400,0.72226953125,2.900558360144496,1.1263047078430652,-0.3052602550121955,0.5019093155860901,-0.0436831042170524,0.1029790341854095
1772808250614318300,0.742318359375,2.106352686536312,0.5754062708169222,-0.5524241852886974,0.2926770150661468,-0.0585039295256137,-0.0611505471169948
1772808250634367500,0.762367431640625,0.2553554017722606,-0.0469429529607295,-0.5678150119703262,0.2333474606275558,-0.0123611781746149,-0.167930394411087
1772808250654416400,0.78241650390625,-1.6830717446416616,-0.5132692558556795,-0.7512188378620892,0.4126763939857483,0.0839737877249717,-0.226642906665802
1772808250674465500,0.802465576171875,-2.9929753625571727,-1.2572025398194788,-0.7072666642151773,0.6512475609779358,0.0838267654180526,-0.1398788392543792
1772808250694514400,0.822514404296875,-3.663470485344529,-2.0484961253732443,-1.1063105520844458,0.8371789455413818,0.0861762091517448,-0.1570417881011963
1772808250714563300,0.842563232421875,-4.289760555702448,-3.344078372469544,-1.323467302235216,0.8875214457511902,0.1489867568016052,-0.2937241196632385
1772808250734612500,0.862612548828125,-4.906536363261938,-4.568773311915994,-1.4458575642377138,0.7323941588401794,0.0315894037485122,-0.5561441779136658
1772808250754661400,0.882661376953125,-6.503837703898549,-5.756210826113819,-0.919149930942431,0.8068128228187561,-0.1051977053284645,-0.5981348752975464
1772808250774710500,0.90271044921875,-7.706459927746653,-6.841428905808925,-0.4796463511845096,0.9776519536972046,-0.1037491485476493,-0.5328996181488037
1772808250794759400,0.922759521484375,-8.251386889147758,-8.08618171389997,0.0861671117050573,0.962313711643219,-0.1064058765769004,-0.4794460535049438
1772808250814808300,0.942808349609375,-8.394302491176127,-8.981655220374465,0.5976000555116683,0.7295149564743042,-0.0242772679775953,-0.3607999682426452
1772808250834857500,0.962857421875,-8.792381771796942,-8.902973897847533,0.9918282867275178,0.7004926204681396,0.0301345083862543,-0.1823575943708419
1772808250854906400,0.98290625,-7.340611184123158,-7.631356463706493,0.357695978436619,0.6827430725097656,0.2314327806234359,-0.1348060965538025
1772808250874955500,1.00295556640625,-5.040020704600215,-5.7385927518367765,0.5809956517891958,0.5674692392349243,0.0622422732412815,-0.0401698090136051
1772808250895004400,1.02300439453125,-3.011519904029369,-2.738845118665695,0.3641561143614351,0.5920981764793396,-0.5034304261207581,0.0511216036975383
1772808250915053300,1.04305322265625,0.9555185175925492,1.6697598431259393,-0.3373305051475763,0.6796159148216248,-0.09623534232378,0.1088218763470649
1772808250935102500,1.0631025390625,3.580557224336266,4.660301256534457,0.2689018974951468,0.7414694428443909,-0.168501004576683,0.1351079195737838
1772808250955151400,1.0831513671875,6.237725345790386,6.319249782788753,0.6999540761794895,0.5242342948913574,-0.4364533722400665,0.1770539134740829
1772808250975200500,1.103200439453125,6.786639331001043,7.669760720902681,0.0059299928371794,0.2066785097122192,-0.3766166865825653,-0.0833621323108673
1772808250995249400,1.12324951171875,5.918382332754135,8.635117326420545,0.3660933660343289,0.2211704552173614,-0.090566761791706,-0.2095356285572052
1772808251015298300,1.14329833984375,5.587824098220468,9.081301004996895,1.108747643038258,0.3194416761398315,-0.0238835904747247,-0.0935621038079261
1772808251035346400,1.163346435546875,6.390908659332991,9.346422013980147,1.2080620768144723,0.3675492405891418,-0.0039360667578876,0.0365140065550804
1772808251055395300,1.183395263671875,6.921144832080603,9.241917098888754,1.0687950604215264,0.210371732711792,-0.2816692292690277,0.064514547586441
1772808251075444500,1.203444580078125,7.162920036789775,9.191841693121194,0.5259672632567585,-0.0321280807256698,-0.3060728311538696,-0.0398082174360752
1772808251095493400,1.223493408203125,6.794637344017625,9.055832801741362,0.3220494589833542,-0.2545420229434967,-0.0592090301215648,-0.1035744994878768
1772808251115542500,1.24354248046875,6.230479027923941,8.928637331414222,0.8282740935571491,-0.3182807266712188,0.1179632917046547,0.0311636347323656
1772808251135591400,1.26359130859375,5.598378225460648,8.732254927614331,0.9518393176231532,-0.1684606969356537,-0.0566386915743351,0.1850821673870086
1772808251155640300,1.283640380859375,5.889338024577498,8.329532205101847,0.7697806227300316,-0.1202142462134361,-0.1324901580810547,0.3118632435798645
1772808251175689500,1.303689453125,6.040699967911839,7.847706135258078,0.4397055686034262,-0.1823225915431976,0.1051092967391014,0.3992828130722046
1772808251195738400,1.32373828125,5.893103514590859,7.006124962490796,0.4460483617588877,-0.1771360784769058,0.1517204046249389,0.4895642101764679
1772808251215787500,1.34378759765625,5.983267769640684,5.585380212199688,0.2033774137863889,-0.4376614093780517,-0.1693468391895294,0.485304445028305
1772808251235836400,1.36383642578125,4.967279878038168,3.8337855509519576,-0.1959319566186517,-0.9752175211906432,-0.5114909410476685,0.3589661717414856
1772808251255885300,1.38388525390625,0.9946604414135216,1.0991513279795646,-0.8498027654066681,-1.814835786819458,-0.9547781944274902,0.1129129454493522
1772808251275934500,1.4039345703125,-6.526901184099912,-2.587369193562865,-1.999443779043108,-2.135091543197632,-0.7414316534996033,-0.1365608274936676
1772808251295983400,1.4239833984375,-14.857095652502776,-6.589287789908052,-2.6603268777459856,-1.1761339902877808,-0.1141161695122718,-0.1556707024574279
1772808251316032500,1.444032470703125,-18.680303695338964,-11.764143665933608,-2.735604529309273,-0.0959781631827354,0.2727440893650055,0.2254912555217743
1772808251336081400,1.464081298828125,-18.290828576934334,-17.06738217624426,-3.319047391587496,0.9447812438011168,0.4402401447296142,0.7485537528991699
1772808251356130300,1.48413037109375,-15.857447583556176,-20.845378619956968,-3.704485217300057,1.9967314004898071,-0.0585664026439189,1.1250494718551636
1772808251376179500,1.504179443359375,-11.966833645445108,-22.894878369414805,-4.667410796278715,1.9534728527069087,-0.6635396480560303,0.9653491377830504
1772808251396228400,1.524228271484375,-11.223776559793947,-21.66445277736187,-6.524995642739534,1.4928433895111084,-0.7250635027885437,0.1275675296783447
1772808251416277500,1.544277587890625,-11.051696822601556,-17.030459097516534,-7.117410916024446,1.2783797979354858,0.3589451014995575,-0.8247042894363403
1772808251436326400,1.564326416015625,-9.575169979333875,-10.752052197247744,-4.454778976206481,1.1819324493408203,0.8090293407440186,-1.695497751235962
1772808251456375300,1.584375244140625,-6.291925138011575,-4.732086974328756,0.7867496585138142,1.177525281906128,0.3516485095024109,-1.7561553716659546
1772808251476423400,1.60442333984375,-3.589206979259848,1.2699632371932268,4.150369912929833,1.6324796676635742,-0.8309721350669861,-0.9935619831085204
1772808251496472300,1.624472412109375,-0.3246206611782312,6.872798442062735,4.029606521476805,2.074390411376953,-1.5749990940093994,-0.3113558292388916
1772808251516521200,1.644521240234375,4.310938952809572,10.705240177190303,2.652925953839719,1.7490100860595703,-1.195671319961548,-0.0190956108272075
1772808251536570400,1.6645703125,7.541752765148877,13.086161500012874,2.1253065394617616,0.9560847282409668,-0.4700241982936859,0.1182871311902999
1772808251556619300,1.684619384765625,8.605683142143487,14.41306593708992,1.581070775195211,0.5911505818367004,-0.1461925506591797,0.1146010756492614
1772808251576668200,1.704668212890625,8.353180791714786,11.906427984321116,3.1411519538536665,0.6276607513427734,-0.8622656464576721,0.5525113940238953
1772808251596717300,1.72471728515625,9.122132781600952,15.786843184500931,1.184551145106554,0.6451060175895691,-0.9015050530433656,0.4150591194629669
1772808251616766200,1.74476611328125,9.748570151475072,11.946284193891286,1.1521323189955204,0.129344031214714,-0.2929170429706573,0.2643046975135803
1772808251636815400,1.7648154296875,8.738181979575753,11.215258906817436,1.1713078518476336,-0.7401414513587952,0.0265206526964902,0.1378992646932602
1772808251656864300,1.7848642578125,6.719123545610905,10.824576166188717,0.3711315793972462,-1.200857162475586,0.7007942795753479,-0.0677403360605239
1772808251676913200,1.8049130859375,5.081100318485498,10.026339045107363,0.6649754095178098,-1.413727045059204,0.9479992985725404,-0.2141530066728592
1772808251696962300,1.82496240234375,3.675099548339844,9.403374904301762,1.1227889548070729,-1.258760929107666,0.8394267559051514,-0.2238606363534927
1772808251717011200,1.84501123046875,3.480832529258728,8.625994693288206,1.6406145587928591,-1.0435128211975098,0.5404627919197083,-0.0945623219013214
1772808251737060400,1.865060302734375,3.713088210472464,7.965677265644073,1.74783223997429,-0.8309901356697083,0.450630247592926,0.0924445390701294
1772808251757109500,1.885109619140625,3.666363284176588,7.309244570478796,1.5832261996634305,-0.5433311462402344,0.4167805016040802,0.2629618048667907
1772808251777158100,1.905158203125,3.942565074622631,6.312527781057358,1.0955953890636565,-0.379366785287857,0.4770988821983337,0.3438639938831329
1772808251797207300,1.925207275390625,3.9662995859533545,5.0979199358612295,0.5712058234523981,-0.3782770037651062,0.588726818561554,0.3150151968002319
1772808251817256200,1.945256103515625,3.3060686675488946,2.7372125490278005,0.249693941944465,-0.6812089681625366,0.4606395363807678,0.2520150542259216
1772808251837305300,1.965305419921875,1.0751830078929665,-0.7889999216586351,0.032653292454034,-1.3384592533111572,0.166220560669899,0.10983756929636
1772808251857354500,1.9853544921875,-4.924084879434108,-5.75671409946084,-0.8170841526314616,-2.2880184650421143,-0.3062326610088348,-0.0412850864231586
1772808251877403100,2.005403076171875,-13.124019813764097,-10.405623608887195,-2.6903563975676894,-2.172872304916382,0.369063526391983,-0.4903579950332641
1772808251897451500,2.025451416015625,-18.82780194898248,-13.316744864100215,-2.366154984714836,-1.4404916763305664,1.134872555732727,-0.4659431874752044
1772808251917500200,2.045500244140625,-21.75210534185171,-18.035235859274863,-0.9823373317394404,-1.0585631132125854,0.9664041996002196,-0.0860168486833572
1772808251937549300,2.06554931640625,-24.37642859380245,-20.07846485790014,-1.7632590878173708,-0.3280484676361084,0.7011219263076782,0.0875539928674697
1772808251957598200,2.08559814453125,-23.936856442320344,-19.75286044638157,-1.820654168948531,1.167193055152893,0.6073442697525024,0.3894481658935547
1772808251977647400,2.1056474609375,-18.03812690454125,-16.739031680887937,-1.7295006106004118,2.432435989379883,0.1881347447633743,0.4060668349266052
1772808251997696500,2.125696533203125,-9.593620997303724,-11.405986061334607,-0.8538188691802322,2.908062219619751,-0.3914330601692199,0.1441504061222076
1772808252017745200,2.1457451171875,-0.254142518851161,-6.026522389477491,-0.8022199071072041,2.191760301589966,-0.2763296365737915,-0.3895324170589447
1772808252037794300,2.165794189453125,4.538720118957758,-0.7240285600543022,-0.780722068787366,0.975264012813568,-0.0136519381776452,-0.8273729085922241
1772808252057843200,2.18584326171875,2.904886160215735,4.86816951546669,-1.1729697206452487,0.64268559217453,-0.0944068878889083,-0.9765971302986144
1772808252077892400,2.205892333984375,2.399154898649454,9.12515826690197,-1.1985756518710404,1.3231163024902344,0.170506939291954,-0.851754367351532
1772808252097941500,2.22594140625,4.498662249335647,11.36933770789504,-0.2323554152611643,1.7000919580459597,0.1323141157627105,-0.5907904505729675
1772808252117990100,2.245990234375,7.431594354340434,12.902170375752448,0.1684491621376946,1.569529414176941,0.1939303874969482,-0.3886192440986633
1772808252138039300,2.266039306640625,9.050716481640936,12.786660667043924,0.7877720603641122,1.0806680917739868,-0.1672841161489486,-0.2806132435798645
1772808252158088200,2.286088134765625,9.859696530532837,12.035607321941852,0.980218586019799,0.4737620949745178,-0.2319604009389877,-0.2043269276618957
1772808252178137300,2.306137451171875,8.973132891222834,11.359641658788918,0.821262242033705,-0.0532243438065052,-0.4689964950084686,-0.1766824573278427
1772808252198186500,2.3261865234375,7.29797206583619,10.914269881117344,0.3901897329473868,-0.4047632217407226,-0.3620454668998718,-0.0877480283379554
1772808252218235100,2.346235107421875,5.617498520994186,10.430505536687374,-0.2906012680027633,-0.5721052289009094,-0.0555550158023834,-0.0567499883472919
1772808252238284300,2.3662841796875,4.794582885730266,10.165165331995489,-0.496493989078328,-0.7094752788543701,0.0756561309099197,-0.0210469514131546
1772808252258333200,2.386333251953125,4.163675676965713,9.678163320818545,-0.6049210095169022,-0.6570158004760742,0.0650676935911178,0.0280993375927209
1772808252278382300,2.40638232421875,4.0515503499984735,9.45578430597484,-0.4274912165334448,-0.4272696673870086,-0.040471252053976,0.1458922773599624
1772808252298431500,2.426431396484375,4.942910575935244,8.932906679296494,-0.3098097898090258,-0.3274710178375244,-0.1474081873893737,0.2499896734952926
1772808252318479400,2.446479248046875,5.590390733838081,8.356704289665817,-0.2578806824661791,-0.3643993437290191,0.0155998710542917,0.3500562310218811
1772808252338528500,2.466528564453125,5.619798614630103,7.783650719454884,-0.6129778035160154,-0.3263128995895386,0.1082739606499672,0.3307103216648102
1772808252358577200,2.4865771484375,5.8018438655197615,6.274543795099854,-0.5907898640401661,-0.3672814667224884,0.0188232883810997,0.254459798336029
1772808252378626300,2.506626220703125,5.792143140238523,4.092380957558751,-0.1026846773942932,-0.6339303255081177,-0.1175493597984314,0.1530450284481048
1772808252398675200,2.52667529296875,4.365789317893982,1.1253308943748477,0.7135824232332408,-1.3609216213226318,-0.3246843814849853,0.0836122259497642
1772808252418724400,2.546724365234375,-0.3133300363570451,-3.9921027202516792,0.8979377046309411,-2.732628345489502,-0.7050415277481079,0.0045783566311001
1772808252438773500,2.5667734375,-11.658203749603032,-8.070559781876206,-1.8857368819728493,-3.3687472343444824,-0.4136351644992828,-0.5445627570152283
1772808252458822100,2.586822265625,-20.179355674147605,-11.462796912837028,-1.0427123054642229,-1.839470148086548,1.6909468173980713,-0.6532033681869507
1772808252478871300,2.606871337890625,-22.777903848850727,-16.21709805706143,2.3094828110307453,-0.7406795620918274,1.5514756441116333,-0.1671245843172073
1772808252498919700,2.626919677734375,-21.51539501931667,-19.58343794569969,3.435184292283654,-0.0474784895777702,0.4066432416439056,-0.0198708567768335
1772808252518968600,2.646968505859375,-19.49334675588608,-19.91085905125141,3.125153005211055,0.4179829359054565,0.0447880886495113,0.1471530199050903
1772808252539017700,2.667017822265625,-16.750881108635664,-17.56576424409151,2.016931066547334,1.2387080192565918,0.1151649355888366,0.3750721514225006
1772808252559067000,2.68706689453125,-11.34013148715496,-15.00255743188262,0.1362557788129896,1.4768000841140747,-0.1900463104248047,0.4207067787647247
1772808252579115500,2.707115478515625,-6.774819129347801,-10.657662433457372,-1.8208020529866216,1.639389157295227,-0.6033880114555359,0.0114038232713937
1772808252599164700,2.72716455078125,-1.9527847575902937,-5.573969175869226,-2.2138031535603107,1.2375283241271973,-0.2806204855442047,-0.4993011057376861
1772808252619213600,2.747213623046875,0.0043050037175416,0.0346159708291292,-1.776831978356838,0.8739745020866394,0.2712269723415375,-0.8118534684181213
1772808252639262700,2.7672626953125,-0.1996007813245058,4.9554199288964265,-0.235870949101448,1.320914387702942,0.1884127110242843,-0.6981350183486938
1772808252659311900,2.787311767578125,1.50934950093925,8.464363284873961,0.6854823371041566,1.937188982963562,-0.0213807374238967,-0.2905862927436828
1772808252679359700,2.80735986328125,4.694392326706647,10.857498777103425,0.1244667029503732,2.0554771423339844,-0.0434511676430702,-0.1645137667655944
1772808252699409000,2.827408935546875,7.6268340178459875,12.068200262510777,0.1682750111471861,1.7121822834014893,0.1658128648996353,-0.1670631021261215
1772808252719457500,2.84745751953125,8.86012142907083,12.55234805330038,0.7344079883147031,1.3279170989990234,-0.0092015834525227,-0.0991494134068489
1772808252739506700,2.867506591796875,9.522526768904925,12.549756283241509,1.0310918641667812,0.8531255125999451,-0.3318902552127838,0.0331629514694213
1772808252759555600,2.8875556640625,9.321686216652392,12.380157256948948,0.4114282262112945,0.3168619275093078,-0.5066116452217102,0.0069246254861354
1772808252779604700,2.907604736328125,8.149467898896336,12.27405484353304,-0.094445220304653,-0.1486649513244629,-0.5598433613777161,-0.0554539263248443
1772808252799654000,2.92765380859375,6.979828491717576,12.118296126544475,-0.595954407196492,-0.5774538516998291,-0.3634063005447387,-0.1521765887737274
1772808252819702500,2.94770263671875,5.573863961929082,11.86281914421916,-0.6645574033014476,-0.8474560976028442,-0.1753233522176742,-0.199870228767395
1772808252839751700,2.967751708984375,4.638909508937597,11.329716476124524,-0.4112283197250217,-0.9378594756126404,-0.0987461730837822,-0.1581078320741653
1772808252859800600,2.987800537109375,4.201071633902192,10.769659165608882,-0.1157030393235385,-0.9063408970832824,-0.0346879884600639,-0.028842793777585
1772808252879849700,3.007849609375,4.276732731825113,9.806956289470197,0.1006491164460778,-0.8183305859565735,0.0788392275571823,0.1280071139335632
1772808252899899000,3.02789892578125,4.489718479901552,8.54866712345779,0.1646522906053811,-0.7407134175300598,0.1300250887870788,0.2737172245979309
1772808252919947500,3.047947509765625,4.41146619644165,7.053254377934336,-0.0180063429422676,-0.6994349360466003,0.1387406289577484,0.3575078248977661
1772808252939996700,3.06799658203125,3.973706062817573,5.0473213830024,-0.2500656978663056,-0.7331259846687317,0.1416320353746414,0.3903902769088745
1772808252960045600,3.088045654296875,2.9502222625017165,1.87423787509799,-0.3937974385831504,-0.8842207789421082,-0.0311828330159187,0.4245114326477051
1772808252980094700,3.1080947265625,1.0935229667037725,-3.39296836784482,-0.4262021631035954,-1.1655120849609375,-0.3299421668052673,0.4448416829109192
1772808253000144000,3.128143798828125,-2.5356506967633963,-10.108391889894008,-1.2578148264989255,-2.089156150817871,-0.9291211366653442,0.1462493985891342
1772808253020192500,3.148192626953125,-9.229348124694823,-13.980640150231125,-3.758172676084936,-2.902876615524292,-0.3897691369056701,-0.813149631023407
1772808253040240600,3.16824072265625,-16.041915677678585,-16.10296782001257,-2.8532907052740453,-2.830993413925171,0.8757164478302002,-1.0838531255722046
1772808253060289500,3.18828955078125,-21.156194627666476,-17.231263409411905,-0.598886076734215,-1.9318864345550537,1.1974824666976929,-0.8564924597740173
1772808253080338700,3.208338623046875,-22.3751495621562,-18.0545999004364,1.9939191704027357,-0.237711027264595,0.619223952293396,-0.4220904409885406
1772808253100387600,3.2283876953125,-19.123478839749097,-19.68055041245222,4.00649832535088,0.7764489054679871,-0.3548279404640198,0.1212817877531051
1772808253120436700,3.248436767578125,-15.696507664537428,-19.1744245986104,3.379530209600925,1.216666579246521,-0.809416651725769,0.2549705505371094
1772808253140486000,3.26848583984375,-12.523168720567226,-15.31040991361141,0.4785429565198719,1.2993468046188354,-0.3129340410232544,-0.0540471151471138
1772808253160534500,3.288534423828125,-10.023114822363851,-9.328446796828509,-1.1105780002705752,1.7761245965957642,0.297603040933609,-0.3683896362781524
1772808253180583700,3.308583740234375,-5.156976520463824,-3.042176908099651,-0.4930073890715837,2.482178211212158,0.2056282311677932,-0.3359790742397308
1772808253200632600,3.328632568359375,1.3421779940545555,3.3299954865813253,0.0192586810909211,2.696725845336914,-0.1356204748153686,-0.1468489170074463
1772808253220681700,3.348681640625,6.4959139251619575,9.185069422507286,0.346061581679061,2.444469690322876,0.162570372223854,0.1848503947257995
1772808253240731000,3.36873095703125,9.093002548706531,12.752212453997137,0.7743181930944323,2.1030168533325195,0.4733051359653473,0.6044538617134094
1772808253260779500,3.388779541015625,10.974115570271014,14.577550396847723,0.2171145915094763,1.4020956754684448,0.1143789589405059,0.6614903211593628
1772808253280828700,3.40882861328125,12.223182734429836,14.115052127808331,-0.4761787116065621,0.6459736227989197,-0.0413206033408641,0.4923374950885772
1772808253300877600,3.428877685546875,11.232765337413548,12.587924393594264,0.1033643667541444,-0.0191678069531917,-0.3377396762371063,0.6477217078208923
1772808253320926700,3.4489267578125,9.683735567992924,17.249544916033745,-1.8377248384758829,-0.3769146502017975,-0.6899831891059875,0.0047279419377446
1772808253340975900,3.468975830078125,7.427901345041394,11.322294217169285,-0.4953307905178516,-0.8436817526817322,-0.8460219502449036,-0.2063771784305572
1772808253361023700,3.489023681640625,6.374461382400989,11.789445280450582,-0.5847475151360034,-1.4212497472763062,-0.638230562210083,-0.3039222657680511
1772808253381072600,3.50907275390625,3.964831851488352,11.388172172224522,-0.2070979321468621,-1.4948017597198486,-0.2178027778863906,-0.1561170518398285
1772808253401121500,3.52912158203125,2.712972426262498,10.338792883151768,-0.0882406665761023,-1.2409669160842896,0.012437186203897,-0.0060057993978261
1772808253421170700,3.549170654296875,2.9831840363830326,9.306984906604884,-0.0714216337222606,-1.040355205535889,0.0825859010219574,0.054444845765829
1772808253441219600,3.569219482421875,3.691398356711864,8.130366892585158,0.3964545289631933,-0.9404742121696472,0.1216496527194976,0.2635502815246582
1772808253461268700,3.589268798828125,3.929788010635972,7.222315644088387,0.2529001906398683,-0.7663170099258423,0.1322609931230545,0.4310500621795654
1772808253481317600,3.609317626953125,4.085427485159039,6.180296070128679,0.1354024133866652,-0.5953314900398254,0.1340111196041107,0.531028687953949
1772808253501366800,3.62936669921875,3.5582682356387374,5.121534035682678,0.0011420827072113,-0.4717444777488708,0.0863809436559677,0.6363522410392761
1772808253521415700,3.649415771484375,2.213081707417965,3.104714320555329,-0.5414039018414915,-0.339292049407959,0.0219354405999183,0.665292501449585
1772808253541464800,3.66946484375,1.838850919896364,-0.5270335773140191,-0.4486319850439205,-0.4673601984977722,0.130347192287445,0.5557492971420288
1772808253561514000,3.689513916015625,0.3576490705549717,-5.990361527293921,-0.193593065342307,-1.5384716987609863,-0.436404287815094,0.2975710332393646
1772808253581563000,3.70956298828125,-8.023996768143773,-9.954615871155262,-2.31390808012709,-2.46624755859375,-0.0603911876678466,-0.1383341550827026
1772808253601611800,3.72961181640625,-16.00654275100231,-13.117715160661936,-1.7091995808497071,-1.91435706615448,1.8528761863708496,-0.2568362951278686
1772808253621660700,3.74966064453125,-19.960753839755057,-17.359802111041546,0.228501443246752,-1.6998356580734253,1.9769967794418333,-0.0565253160893917
1772808253641709800,3.769709716796875,-23.29726090018749,-20.79838306002617,2.0542042738869783,-1.1843349933624268,0.6424922347068787,0.2549082338809967
1772808253661759000,3.789759033203125,-23.623821589517597,-21.420795996689797,2.2727228139102458,-0.2443236857652664,-0.5076782703399658,0.6440525054931641
1772808253681806800,3.809806884765625,-20.645046601748465,-19.330029001820087,-0.0499327824264764,0.7562636137008667,-0.456200897693634,0.6932450532913208
1772808253701856000,3.82985595703125,-14.72847628685236,-14.657104995077848,-1.6263734136030077,1.3799618482589722,0.0495499707758426,0.2361401617527008
1772808253721904600,3.849904541015625,-6.852548850238323,-8.43197200435698,-0.9391198290426284,1.5904061794281006,0.2956643998622894,-0.2450067549943924
1772808253741953800,3.869953857421875,-2.1904677245497703,-2.0792811397373674,0.3706075555231422,1.6796280145645142,-0.5522740483283997,-0.2328254878520965
1772808253762002700,3.890002685546875,0.4326835610121488,3.780340376490354,-0.3304819544270634,2.1067371368408203,-0.9978820085525512,-0.0545558743178844
1772808253782051800,3.9100517578125,3.708507312422991,7.623432684969901,-1.0623351436924189,2.4387094974517822,-0.5682694315910339,-0.0245136599987745
1772808253802101000,3.93010107421875,7.208963995084166,10.041226817637682,-0.7324084119953215,2.162968397140503,-0.191437765955925,-0.0435748547315597
1772808253822149600,3.950149658203125,9.585242460536955,11.39408519566059,0.0544213625499978,1.6436601877212524,-0.1277602910995483,-0.046816237270832
1772808253842198800,3.97019873046875,10.04533366843462,11.66237022163272,0.7988665050260723,1.239442229270935,-0.4298645853996277,-0.0077495798468589
1772808253862247700,3.99024755859375,9.801001764979958,11.275560523045062,1.2963507472507654,0.9420741200447084,-0.6376527547836304,0.1090882197022438
1772808253882296800,4.010296875,9.30973625113964,11.262855355250837,1.0392037858866154,0.500704288482666,-0.6364468336105347,0.1255989223718643
1772808253902346000,4.030345947265625,7.957035694026946,11.11538165152669,0.3722590490572154,0.1218826100230217,-0.4922611713409424,-0.0297577530145645
1772808253922395000,4.050394775390625,7.00598935341239,10.889411334192753,0.1123358187796082,-0.249554768204689,-0.1897708177566528,-0.1969152092933654
1772808253942443800,4.07044384765625,5.967721825462579,10.744777237808703,0.3099099987804889,-0.5424878597259521,-0.0469060726463794,-0.2377702295780182
1772808253962492700,4.09049267578125,5.224184847339988,10.771022270655632,0.3406352457813918,-0.5788872241973877,0.11089838296175,-0.1457839459180832
1772808253982540800,4.110540771484375,5.018742354249954,10.19701592976451,0.5111245719771832,-0.5524192452430725,-0.0531248450279235,-0.0443863570690155
1772808254002589700,4.130589599609375,5.32752013413012,9.803678290712831,0.3684107761312276,-0.5549795031547546,-0.0332427360117435,0.0439013168215751
1772808254022638800,4.150638916015625,5.510931997197866,9.325816448324918,0.1978558373533189,-0.5466242432594299,0.2267785817384719,0.0793205425143241
1772808254042688000,4.17068798828125,5.743102922737598,8.720882469728588,0.4702244793772697,-0.4782395362854004,0.3022412359714508,0.1690175384283065
1772808254062736600,4.190736572265625,5.833559438732266,7.727482257509231,0.6092899087835103,-0.4148396253585815,0.0263577550649642,0.2683563530445099
1772808254082785800,4.210785888671875,5.924633209842443,5.517703683289885,0.5284861507425085,-0.5732089281082153,-0.2603690922260284,0.3678920567035675
1772808254102834700,4.230834716796875,4.791464461448788,2.176579484450817,0.4008264969697221,-1.238057255744934,-0.5160642862319946,0.4069661796092987
1772808254122883800,4.2508837890625,1.0164110854506492,-3.8050533774644135,-0.2305772996727377,-2.509027004241944,-0.9551441669464112,0.2952927052974701
1772808254142933000,4.27093310546875,-9.410721175411345,-9.250047798374297,-3.0265637439042328,-3.665191650390625,-1.1768513917922974,-0.3639194965362549
1772808254162981600,4.290981689453125,-19.418450797116755,-11.252805085879563,-4.828663142247498,-2.9634881019592285,1.1921292543411257,-0.9433857202529908
1772808254183030800,4.31103076171875,-25.31208914923668,-14.46666776341796,-2.7414105852395294,-1.7207231521606443,2.180174827575684,-0.7712454795837402
1772808254203079700,4.33107958984375,-27.39042219446897,-17.98218582161069,-0.6243988497838378,-0.5343735814094543,0.8633142113685608,-0.5895546674728394
1772808254223128800,4.35112890625,-25.99086870076656,-18.85074677124023,-0.1606071799330413,0.7205108404159546,0.2555131912231445,-0.277753472328186
1772808254243178000,4.371177978515625,-21.57492974282503,-18.3117100369215,-0.3032930648587644,1.8216995000839236,0.2393049001693725,0.066236212849617
1772808254263226600,4.3912265625,-16.381029559111592,-16.314143888318537,-0.7097894606910645,2.7234342098236084,-0.5664926171302795,0.165667325258255
1772808254283275000,4.41127490234375,-10.123161589002608,-12.556983311885595,-1.2306398193255066,3.0362741947174072,-1.1333940029144287,-0.0514708831906318
1772808254303323600,4.43132373046875,-2.6566385446220635,-6.7749775347799055,-1.7223089455306528,2.425312757492065,-0.3244980573654175,-0.5986292958259583
1772808254323372800,4.451372802734375,1.299590313693881,-0.3554278873741626,-0.5984464432079345,1.7376214265823364,0.243124857544899,-0.991610050201416
1772808254343421700,4.471421630859375,1.7146289124220608,5.898503327807783,1.4935764700070022,1.9656999111175537,-0.1530336141586303,-0.6364843249320984
1772808254363470800,4.491470947265625,3.803821789842844,10.441875656485555,1.863946782708168,2.5873918533325195,-0.518531858921051,-0.0249359663575887
1772808254383520000,4.51152001953125,7.0604399055242535,12.797648509526253,1.4118721463970838,2.5969152450561523,-0.8692690134048462,0.2458039373159408
1772808254403568600,4.531568603515625,10.42019690864086,14.114281727957724,0.7488790698029101,1.8152992725372317,-0.3943534791469574,0.3039056360721588
1772808254423617800,4.55161767578125,10.392740746438502,13.772708178412913,0.698511841481924,1.087803840637207,-0.266888827085495,0.2527071535587311
1772808254443666700,4.571666748046875,9.0780136538893,12.952069840431212,0.1450812556296586,0.5523414611816406,-0.5079704523086548,0.0957160741090774
1772808254463715800,4.5917158203125,7.96823805604279,12.163439921128749,-0.4234187063975259,-0.0108549799770116,-0.5002400279045105,-0.1229732483625412
1772808254483765000,4.611764892578125,6.568357814604044,12.120362995946406,-0.7649449462018907,-0.4468725919723511,-0.2864910364151001,-0.3983769714832306
1772808254503815200,4.631815185546875,5.62735706718564,12.114391520321368,-0.5424984190799296,-0.69063800573349,0.1178883239626884,-0.5613033175468445
1772808254523864300,4.6518642578125,5.133249023395776,12.131440854799749,0.4742667770380154,-0.7357102632522583,0.2015904039144516,-0.4443229734897613
1772808254543913200,4.671913330078125,5.394312865942716,11.682146935248374,1.0785917203579098,-0.7215115427970886,-0.0340939573943614,-0.1990278959274292
1772808254563962000,4.691962158203125,5.889383032763004,11.08119062811136,1.1058702609710396,-0.755624532699585,-0.224458172917366,0.0198396183550357
1772808254584010200,4.71201025390625,6.303509192821383,10.397568897247314,1.0471342866249382,-0.8346406817436218,-0.1165778934955596,0.2319928556680679
1772808254604059100,4.73205908203125,6.181279235947132,9.50649567155838,0.9288425459824502,-0.9490247964859008,-0.0574581548571586,0.4051424860954284
1772808254624108000,4.75210791015625,5.253838227325677,8.182756420513988,0.5393118979983031,-1.0304855108261108,-0.1890689879655838,0.464444488286972
1772808254644157200,4.7721572265625,4.574513901394606,6.2831438656628125,0.0761122574902139,-1.1079461574554443,-0.0394223742187023,0.4699994921684265
1772808254664206300,4.792206298828125,2.9159494060218334,3.437739237463474,0.221209934531711,-1.42369544506073,-0.4799274802207947,0.4516957402229309
1772808254684255200,4.812255126953125,0.0916618001312017,0.0928057094693183,-0.2638866083500906,-1.9281744956970213,-0.630557119846344,0.3820689916610718
1772808254704304000,4.83230419921875,-3.569283550649881,-4.416581932020187,-1.5045722035348414,-2.546404361724853,-0.1786420941352844,0.0395456068217754
1772808254724353000,4.85235302734375,-9.690513683825731,-9.098535632914304,-2.393193652157485,-2.52725601196289,0.7266150712966919,-0.3598455488681793
1772808254744402200,4.872402099609375,-15.144644181871412,-12.548314852261544,-1.2565529898695649,-1.6855992078781128,1.276313066482544,-0.260984718799591
1772808254764451300,4.892451416015625,-19.18369277769327,-17.241911060154436,-0.2486678137671202,-1.1185433864593506,0.5275654792785645,0.1461819559335708
1772808254784500200,4.912500244140625,-22.235603144299983,-19.596687887895108,-0.8993812545027583,-0.4008899629116058,-0.1640434116125106,0.0330447666347026
1772808254804549000,4.932549072265625,-22.26471701058149,-19.135509469282628,-1.4448101010113954,0.216857299208641,0.2317673563957214,-0.1008848994970321
1772808254824598000,4.952597900390625,-20.370910511660576,-16.46529774186015,-1.5816931448772549,0.9094727039337158,0.8330262899398804,-0.3080203831195831
1772808254844647200,4.972647216796875,-16.40001950626373,-13.235047408622505,-0.0958568406682461,1.521992564201355,0.6227453351020813,-0.4771087765693664
1772808254864695000,4.992695068359375,-11.138085650765897,-8.905416614824533,1.2215461930919438,1.931571364402771,-0.0115714771673083,-0.5334222316741943
1772808254884744200,5.012744140625,-5.067212662908434,-3.9927100384950633,1.423286835989356,1.8912495374679563,-0.4378742575645447,-0.6260950565338135
1772808254904793300,5.03279345703125,-0.1058943236231803,0.5935246958315372,0.7861716394301503,1.2686618566513062,-0.3468751311302185,-0.7649938464164734
1772808254924842200,5.05284228515625,1.6782324879169463,4.75043102479279,0.3796567580930888,1.0258867740631104,0.2014697045087814,-0.6550982594490051
1772808254944891100,5.07289111328125,2.857071100595593,7.845324208557606,0.2960542727116495,1.4443998336791992,0.4917373657226562,-0.3904897272586822
1772808254964940000,5.09293994140625,6.132415544056892,9.348876421394944,0.5526734108094126,1.621214747428894,0.432104617357254,-0.0031218193471431
1772808254984989200,5.1129892578125,9.025788376611471,10.230250675368309,0.1908135906916111,1.3460344076156616,0.1013392135500907,0.2560422122478485
1772808255005038300,5.133038330078125,10.753238776683808,10.388147573429343,-0.1842915685117244,0.8873812556266785,-0.2427916675806045,0.3014238178730011
1772808255025087200,5.153087158203125,11.299165855038163,9.947490549319982,-0.3591904547780752,0.3842014372348785,-0.2552015483379364,0.2988795936107635
1772808255045136100,5.17313623046875,9.666172438773511,9.507005374646186,-0.189988026587665,0.0471794568002224,-0.43159219622612,0.2862566113471985
1772808255065185000,5.19318505859375,7.718913166606426,9.288055165207384,-0.561006866325438,-0.1757125854492187,-0.6099652647972107,0.1411684602499008
1772808255085234200,5.213234130859375,6.232375801455974,9.335985960161686,-0.9196295311529188,-0.4168168604373932,-0.3297516703605652,-0.0776073560118675
1772808255105283300,5.233283447265625,4.845613400265574,9.361111049067974,-0.6636001025766134,-0.4832377433776855,-5.24164934176e-05,-0.2318657785654068
1772808255125332200,5.253332275390625,4.053142003104091,9.519332356777786,0.0376133260142058,-0.4267652630805969,0.1326877623796463,-0.1536115705966949
1772808255145380400,5.27338037109375,3.956765449410677,9.644241761994362,0.4079946715660393,-0.1976191848516464,0.1271615028381347,0.0351897999644279
1772808255165429000,5.293428955078125,4.807134908789396,9.493125902375578,0.6441054938379674,-0.1278683841228485,-0.0001313025131821,0.2145266532897949
1772808255185478100,5.31347802734375,5.544466018009185,9.127103555750846,0.7061023696761578,-0.2280464172363281,0.0157705843448638,0.3816180229187011
1772808255205527000,5.333527099609375,5.445991030731797,8.718787543275951,0.5336687044795603,-0.2192601263523101,0.2060837298631668,0.535038948059082
1772808255225576200,5.353576171875,5.233215126013755,7.401714179861545,0.3335197146877646,-0.1641267538070678,0.2468055337667465,0.5925858616828918
1772808255245625300,5.373625244140625,4.612274015468358,4.896061146476865,0.1259217971295118,-0.4138225615024566,0.12860868871212,0.5964627861976624
1772808255265674200,5.39367431640625,2.4429800118505955,1.1646733092039825,-0.0548451409200206,-0.8008325695991516,0.048071838915348,0.507125735282898
1772808255285723100,5.41372314453125,-2.243723513919115,-5.742714800202847,0.4875572339069098,-1.0695301294326782,-0.2234503924846649,0.5257107019424438
1772808255305772000,5.43377197265625,-8.470798870879412,-13.694965598040818,-0.4265451313223689,-1.7065181732177734,-0.7124103307723999,0.2485128939151764
1772808255325821200,5.4538212890625,-15.281509982341529,-18.32004415002465,-1.5456167461067438,-1.7561688423156738,-0.0072940806858241,0.1231796965003013
1772808255345870300,5.473870361328125,-20.337625497174265,-19.556386272645,-2.7426249294653533,-0.8653467297554016,1.3082648515701294,0.2979766726493835
1772808255365919200,5.493919189453125,-22.302138101959223,-20.16397105801105,-3.1608225767463445,0.324201226234436,1.2520546913146973,0.0033353110775351
1772808255385968000,5.513968017578125,-19.939383719468115,-20.75170548000336,-1.567669587960839,1.088069200515747,0.5059520602226257,-0.066962294280529
1772808255406017000,5.53401708984375,-16.135030014705656,-18.751447023576496,-1.1644441035579889,1.5049172639846802,0.4262096881866455,-0.0760098621249198
1772808255426065200,5.554065185546875,-12.679549368846416,-15.045837770682573,-1.5690082892186938,1.633264183998108,0.5769381523132324,-0.278368204832077
1772808255446114000,5.574114013671875,-9.552613279610872,-9.654123689061402,-2.1930650475665927,1.6751883029937744,0.3188869059085846,-0.5865032076835632
1772808255466163200,5.5941630859375,-6.173402218961716,-3.3163755420297383,-2.444934945310652,1.9415972232818604,0.1563014537096023,-0.685559093952179
1772808255486212400,5.61421240234375,-1.8475860150158403,2.859499204525352,-2.3597899797275663,2.3296735286712646,0.466095358133316,-0.5955231785774231
1772808255506259700,5.634259765625,3.0201860255658626,7.747870965543389,-1.4521151633277534,2.4260072708129883,0.7193377614021301,-0.3294964432716369
1772808255526308900,5.654308837890625,6.483000667575001,11.52600009572506,-0.4609317503750324,2.3178529739379883,0.3510724008083343,-0.0165328793227672
1772808255546357500,5.674357421875,8.758577701872587,14.172660267168284,0.0672346303611993,2.0968897342681885,0.1635890901088714,0.261535108089447
1772808255566406700,5.69440673828125,9.65821066611409,14.983106881481408,0.654685120845586,1.8375771045684812,-0.0122944777831435,0.4139383733272552
1772808255586455600,5.71445556640625,10.210337183630466,14.901666615635156,0.9175413267020136,1.2377028465270996,-0.3264506459236145,0.5012022852897644
1772808255606504700,5.734504638671875,9.80276643656492,14.990388855183124,0.2691789060719311,0.3519748449325561,-0.3975748717784881,0.4493768513202667
1772808255626553900,5.754553955078125,8.357292903208732,15.127484957277774,-0.9048061290957032,-0.5246185660362244,-0.2246327400207519,0.0962425619363784
1772808255646602800,5.774602783203125,6.652194620198011,15.07745689778328,-1.1644449072755874,-1.2339651584625244,0.2004178911447525,-0.2057250291109085
1772808255666651600,5.794651611328125,4.507094562116265,14.67086230227351,-0.4529403132297098,-1.4680544137954712,0.2085258364677429,-0.2062721997499466
1772808255686700500,5.814700439453125,3.2513457282364366,13.526203607094288,-0.0033485067103058,-1.3334275484085083,-0.1099891364574432,0.0805162265896797
1772808255706748700,5.834748779296875,3.028700171411037,12.052986326766014,-0.1919743780992925,-1.1598842144012451,-0.3427736759185791,0.3366917669773102
1772808255726797600,5.854797607421875,3.371962404695153,10.530351227796077,-0.8445010788019746,-1.1450830698013306,-0.3353644907474518,0.3523852229118347
1772808255746846700,5.8748466796875,3.843031225942075,8.967894990569352,-1.204286649928987,-1.2896751165390017,0.0036379951052367,0.2559750080108642
1772808255766895900,5.894895751953125,3.4726959845542904,7.533764104482531,-1.107097683874145,-1.303560733795166,0.2678902745246887,0.203091025352478
1772808255786944500,5.914944580078125,2.7524048574626443,5.98463613538444,-0.6322715559203177,-1.1373062133789062,0.1135881692171096,0.2632051110267639
1772808255806993700,5.93499365234375,2.0733558413416144,3.9775422799795854,-0.4924503397107124,-0.9473819136619568,-0.2013183236122131,0.3088380992412567
1772808255827042600,5.95504248046875,1.8988526763945817,0.6717313865840434,-0.1279266341459006,-1.0263068675994873,-0.1699488759040832,0.3527438044548034
1772808255847091700,5.975091796875,1.1926982112050055,-4.460261499270796,0.7717306608192622,-1.5656118392944336,-0.4511651992797851,0.4363237023353576
1772808255867140900,5.995140869140625,-4.6001101149439805,-8.758416373831032,-0.1395420704746618,-2.7116713523864746,-1.8585861921310425,0.4863689243793487
1772808255887189500,6.015189453125,-11.403531069397925,-11.747462580245733,-2.404038432907313,-3.176787853240967,-1.4251646995544434,0.3362449705600738
1772808255907238700,6.03523876953125,-17.522229053747655,-13.714623069190978,-3.648613692474365,-2.821184635162353,0.2600331604480743,0.3135432600975036
1772808255927287600,6.05528759765625,-20.92473331170082,-17.07698002567291,-2.227223483886569,-2.247528553009033,0.3134571015834808,0.1801355630159378
1772808255947336700,6.075336669921875,-20.650045432949064,-20.18542768753767,-0.6856416193190962,-2.109228134155273,-0.2782949805259704,0.1910704523324966
1772808255967384600,6.095384521484375,-19.872897861647605,-20.39777513771057,-0.7853340926274657,-1.8957692384719849,-0.2085712254047393,0.1456654369831085
1772808255987433700,6.115433837890625,-16.76976233471632,-15.662556295096874,-0.5342325489073991,-1.4449387788772583,0.1709692627191543,0.3284468650817871
1772808256007483000,6.13548291015625,-11.032109494078158,-7.793417495709657,-0.1391208859205246,-0.7413525581359863,-0.2264915555715561,0.4838989377021789
1772808256027531500,6.155531494140625,-5.424474195450544,-1.274362348935008,-1.3343030228957533,0.7847270965576172,-0.5120939612388611,0.0487272515892982
1772808256047580700,6.17558056640625,0.4669371282696724,3.950789297610521,-0.7856615710161626,2.094589710235596,-0.9498493075370787,-0.2844278514385223
1772808256067629600,6.195629638671875,6.462477519506216,4.990489488711953,1.0526336877588185,1.850531220436096,-0.7467162609100342,0.2860875427722931
1772808256087678700,6.2156787109375,8.473702191105485,6.456411351335048,-0.2934999120537191,1.4481393098831177,0.0054218922741711,0.3376578092575073
1772808256107728000,6.235727783203125,8.138442062491178,6.493494589060544,-1.1854077619358896,1.2572777271270752,0.3978739380836487,-0.1484064012765884
1772808256127776500,6.255776611328125,7.541309697556495,5.890313007089495,-0.1198497106742113,1.074933409690857,0.3661984801292419,-0.2105751633644104
1772808256147825700,6.27582568359375,6.579165624344348,5.378087122806907,0.3222945928508415,1.018856644630432,-0.1640469133853912,-0.3233028948307037
1772808256167874600,6.29587451171875,6.526358163264393,6.050441609725356,0.077211944094114,0.8569687008857727,-0.2566379904747009,-0.622176468372345
1772808256187923700,6.315923828125,5.970769522595405,6.790993434557318,-0.1229660525964572,0.5930518507957458,0.0841059014201164,-1.0610407590866089
1772808256207972900,6.335972900390625,5.238295205757022,7.980533473992347,0.4794559431789442,0.6220389604568481,0.4876285493373871,-1.2953451871871948
1772808256228020700,6.356020751953125,5.060032980537415,8.856676841574906,1.4774083022773266,0.7094452381134033,0.45294389128685,-1.1553642749786377
1772808256248070000,6.37606982421875,5.23826130348742,9.605158290362358,2.0293628242276607,0.8781092762947083,0.2865142226219177,-0.7723990082740784
1772808256268118500,6.396118408203125,5.453438424128294,10.081709634673595,2.396862988319993,1.075194239616394,0.0415561646223068,-0.2438067644834518
1772808256288167700,6.416167724609375,5.756663246056437,10.34929206533432,2.0909277383893725,1.179181456565857,-0.1313935667276382,0.1728807836771011
1772808256308216600,6.436216552734375,6.633810237723589,9.97627123812437,1.1142042279437183,0.9992364645004272,0.0471790246665477,0.3027042150497436
1772808256328265700,6.456265625,7.106787815201282,8.916673921898006,0.9694481126151978,0.6328393220901489,0.323490709066391,0.3025251626968384
1772808256348315000,6.47631494140625,6.33408319478333,7.168378886717558,1.0170612929876892,0.3080093562602997,0.3077148795127868,0.3614276647567749
1772808256368363500,6.496363525390625,5.117027371913195,4.385562524378299,0.8904439878746867,-0.1876047104597091,0.0905305817723274,0.4750140011310577
1772808256388412700,6.51641259765625,2.8655180264234543,0.8420131344437599,0.6391784126993268,-0.5448833703994751,-0.1875553280115127,0.4733182787895202
1772808256408461600,6.536461669921875,-0.3055143941700458,-3.5426065561264752,0.1272928206212353,-1.5783443450927734,-0.5998532772064209,0.4096191227436065
1772808256428510700,6.5565107421875,-6.243855811369419,-7.504048765176535,-1.514512436660379,-2.237071990966797,-0.4210285246372223,0.2073254585266113
1772808256448559900,6.576559814453125,-11.945276478153469,-10.694407817530632,-1.9510183324396608,-1.6583335399627686,0.5117857456207275,0.5172872543334961
1772808256468607700,6.596607666015625,-14.301094923901555,-14.611251590919494,-1.938783704766631,-0.8708906173706055,0.4190209507942199,0.7120493054389954
1772808256488656600,6.61665673828125,-15.469886189818382,-18.81119802018404,-1.4065741861194372,-0.758988082408905,-0.834479808807373,0.6553853750228882
1772808256508706000,6.6367060546875,-16.819813775086402,-20.670709450793264,-2.2003547661833465,-0.851950466632843,-0.9439777135849,0.4259686470031738
1772808256528755200,6.656755126953125,-18.150187934100625,-19.897401019263267,-3.8243034368574618,-0.7337095737457275,0.1243545114994049,-0.2735103070735931
1772808256548804400,6.676804443359375,-18.62287909585237,-17.392696664905547,-2.966517856003344,-0.1679070889949798,1.136595368385315,-0.7954263091087341
1772808256568853200,6.696853271484375,-16.647548159933088,-12.553435264015198,-0.494589580229111,1.1672159433364868,1.0644330978393557,-0.7703026533126831
1772808256588902100,6.716902099609375,-10.21245315287113,-6.323198228153586,1.106570810455829,2.5204999446868896,0.6266871690750122,-0.3858630359172821
1772808256608951000,6.736950927734375,-2.497535777902603,-0.2504191144138574,0.9762845345064995,3.30517053604126,0.22542804479599,-0.002054703887552
1772808256629000200,6.757000244140625,4.995242820718884,4.715512271624803,-0.1320866033695638,3.169772148132324,-0.1128960400819778,-0.1481389850378036
1772808256649049300,6.77704931640625,10.429046570050716,8.330676698961854,-0.3973648487411439,2.1618432998657227,0.0484183020889759,-0.4447378814220428
1772808256669098200,6.79709814453125,10.900500883483886,11.163526381492614,0.0377098451912403,1.3808636665344238,0.2497387826442718,-0.5950080156326294
1772808256689147100,6.817147216796875,9.626156654727458,12.735506818389892,1.0934665603414178,1.0987008810043335,0.1350613385438919,-0.4402660429477691
1772808256709195300,6.8371953125,9.165804165545106,13.358542855387926,1.709369092197716,0.8025557398796082,-0.1093968525528907,-0.1522682607173919
1772808256729244200,6.857244140625,8.824654978892207,13.19853232617378,1.4316748712368308,0.4124476909637451,-0.0501561611890792,0.053262498229742
1772808256749293000,6.87729296875,7.691641713321209,13.09288233270049,0.6164720753725618,0.0689821392297744,-0.0024070460349321,0.076505921781063
1772808256769342200,6.89734228515625,6.409255632406473,12.30206162535548,0.0845049871791154,-0.246673509478569,-0.3537008762359619,-0.1150591894984245
1772808256789391400,6.917391357421875,6.073356621366739,12.078612935453652,-0.1622934159869328,-0.7084843516349792,-0.1394886672496795,-0.2329531162977218
1772808256809440300,6.937440185546875,4.794546937634051,11.71493978230357,-0.1333304659508168,-0.9956806898117064,0.2427387982606887,-0.2195803374052047
1772808256829489200,6.9574892578125,3.69983651471138,11.209516563773157,0.01326470137313,-0.895115315914154,0.3153404295444488,-0.1362036317586898
1772808256849538000,6.9775380859375,3.342151203799248,10.46001804689765,0.2829040645636618,-0.7713130712509155,0.1614450216293335,0.0558981709182262
1772808256869587200,6.997587158203125,3.419437857097387,9.645185180324315,0.0823456902533769,-0.5692840814590454,0.1732370406389236,0.2321642935276031
1772808256889636400,7.01763623046875,3.656718088474869,8.688300635075569,0.0164436236701905,-0.381090372800827,0.152786985039711,0.3695434033870697
1772808256909685200,7.037685302734375,4.168656387987733,7.291488549035787,-0.180488851760514,-0.3089314103126526,0.0722023546695709,0.4944289028644562
1772808256929733400,7.0577333984375,4.224104718965291,5.293135049447417,-0.4382503282938152,-0.3499954640865326,-0.2382447123527526,0.4694703817367553
1772808256949782000,7.077781982421875,3.453749292021989,1.6186504181355237,-0.2993064063753932,-0.959842085838318,-0.2962290942668915,0.4367209672927856
1772808256969831200,7.0978310546875,0.1933119103133678,-2.914170705911517,-0.7662913923747837,-1.6824212074279783,-0.2269351482391357,0.3396013081073761
1772808256989880000,7.117880126953125,-7.7092346531569955,-8.516272335809468,-2.2046529017686844,-2.199033498764038,-0.9461718797683716,0.0404450856149196
1772808257009929200,7.13792919921875,-15.55409241324663,-12.863417743510007,-4.6561727784276,-1.7760837078094482,-0.2176133394241333,-0.4347113966941833
1772808257029978400,7.157978271484375,-20.3498256380558,-16.71770481522083,-4.9114749887079,-0.8367356657981873,1.0500006675720217,-0.4642983973026275
1772808257050027000,7.178027099609375,-21.20959420942068,-20.321244855737685,-2.5789848115772007,0.392991155385971,0.9554013609886168,-0.3532780110836029
1772808257070076200,7.198076171875,-16.535951240754127,-22.642919039821624,-0.0913326412420719,0.787034273147583,0.5709699988365173,-0.2378847151994705
1772808257090125000,7.218125,-12.713100925314423,-22.22246075413227,1.0371920076727867,0.5620142817497253,0.4620014131069183,-0.1975385546684265
1772808257110174200,7.23817431640625,-10.918822137594224,-19.191314943134785,0.980914167068526,0.66277015209198,0.5467877388000488,-0.0868269428610801
1772808257130223400,7.258223388671875,-10.513507645022868,-13.801426907896994,0.0784727212775498,1.4394214153289795,0.1728546023368835,-0.1935185641050338
1772808257150272300,7.278272216796875,-7.961160080480575,-7.693198295113444,0.3092339261498302,1.9744248390197756,-0.0914376005530357,-0.1903649866580963
1772808257170320400,7.2983203125,-4.484889744570851,-1.8759300659686329,-0.2609120129860937,2.191858291625977,0.1257505118846893,-0.1992508918046951
1772808257190369000,7.318369140625,-1.2451397615820168,4.096352783799171,-0.9338573054045438,2.43180251121521,0.5443850159645081,-0.1176670268177986
1772808257210418200,7.338418212890625,1.3396344470515846,8.737967460042238,-0.7872152301989496,2.757282257080078,0.5418391227722168,0.1244296953082084
1772808257230467300,7.35846728515625,4.4856832330361005,12.625932344949245,-0.8204575015220791,2.8843371868133545,0.3785419166088104,0.3069511353969574
1772808257250516200,7.37851611328125,7.69904292948842,14.520391170299051,-0.670507836138457,2.4911258220672607,0.022064309567213,0.2382523864507675
1772808257270565400,7.3985654296875,9.790939220649005,15.390350296288728,0.0401914328739047,1.6239867210388184,-0.2082239389419555,0.0759311914443969
1772808257290614000,7.418614013671875,9.621856911706924,14.83957519338131,0.5772495605960488,0.6981528997421265,-0.3751483857631683,-0.0266723670065403
1772808257310663200,7.4386630859375,8.106952699249982,14.489902508533,0.5804693263601511,0.0654094517230987,-0.2930450141429901,-0.0503708571195602
1772808257330712300,7.45871240234375,6.135438691270351,14.099956265485286,0.3463357955105602,-0.3277959823608398,-0.39003986120224,-0.0890862494707107
1772808257350761200,7.47876123046875,4.374058256806433,13.44120711007118,-0.1428201788298785,-0.5934422612190247,-0.5009624361991882,-0.1713164150714874
1772808257370810400,7.498810302734375,3.744280928854644,12.80971537941694,-0.1571545552611351,-0.8745225071907043,-0.3828828334808349,-0.0992379933595657
1772808257390859000,7.51885888671875,3.0485698240071533,11.755698493671416,-0.1579662369702011,-0.9852235317230223,-0.3395639359951019,0.0846777260303497
1772808257410907400,7.538907470703125,2.6409406247526404,10.865406189227103,-0.1428572959698736,-0.8853178024291992,-0.3238087892532348,0.317177802324295
1772808257430956000,7.5589560546875,2.644975579357147,9.762681094413995,-0.363979296489805,-0.7538148760795593,-0.4940937161445617,0.3646821975708008
1772808257451005200,7.579005126953125,3.142165514810383,8.507983815413713,-0.8219395567733794,-0.701779305934906,-0.3523662090301513,0.3017967343330383
1772808257471054300,7.599054443359375,2.986054038861394,6.685452162155508,-0.6285548734847456,-0.669948160648346,-0.1799207627773285,0.3285656869411468
1772808257491103200,7.619103271484375,2.6164696158409115,4.91921405852735,-0.5801065209297463,-0.5330323576927185,-0.185342863202095,0.2056033760309219
1772808257511152400,7.63915234375,2.749020475721359,1.9963854143857955,0.049966611630842,-0.7103263735771179,-0.1034631580114364,-0.0031600813381373
1772808257531201300,7.659201171875,2.6928251257687807,-2.100603329229355,0.8077996069356799,-1.1767497062683103,0.1039812788367271,-0.218589499592781
1772808257551250200,7.679250244140625,0.5720809257864952,-7.534743178647756,1.2792664875894784,-1.9735636711120603,-0.3462578356266022,-0.5150207877159119
1772808257571299300,7.69929931640625,-4.951269823479652,-11.11491169592738,0.1723522705234587,-2.543875932693481,-0.3445260524749756,-1.0383511781692505
1772808257591348200,7.71934814453125,-10.028335771882531,-13.472825068128108,0.1848188803214579,-2.559828996658325,0.9189308881759644,-0.9236608147621156
1772808257611396400,7.739396240234375,-16.504758814632893,-15.624108783280848,0.2283689029082656,-2.127523183822632,0.5972678661346436,-0.6376773715019226
1772808257631445200,7.7594453125,-20.255451071834564,-17.213226232939956,-0.3569050472546368,-0.8700783848762512,0.2013187110424041,-0.4776095151901245
1772808257651494100,7.779494140625,-18.4235314125061,-18.032170626485343,-0.0836703629858791,0.1845485419034958,0.7032908201217651,-0.454967051744461
1772808257671543300,7.799543212890625,-13.047653197920322,-17.795843750309942,2.0441310620315374,0.265057623386383,0.986150562763214,-0.2350770831108093
1772808257691592200,7.81959228515625,-11.360641191220283,-16.153247223919628,2.716516967001557,0.477781742811203,0.2365972101688385,0.1985306292772293
1772808257711641300,7.839641357421875,-10.18051020064354,-12.16717033982873,1.0938068982116878,1.2425352334976196,-0.5319974422454834,0.5045199990272522
1772808257731690200,7.859690185546875,-6.541790125674009,-7.066728776535391,-0.6313634280994534,1.6119649410247805,-0.5430312156677246,0.475871592760086
1772808257751739100,7.8797392578125,-2.5305606801480054,-1.8471248272448777,-0.9942170815601944,1.662037014961243,0.0222828797996044,0.3546652495861053
1772808257771788300,7.899788330078125,0.6091366909831762,2.3195851028501986,-0.4653014168266207,1.7152361869812012,0.1480760276317596,0.3099532127380371
1772808257791837200,7.919837158203125,3.636360360100865,5.916645718219876,-0.16735862695463,1.726705551147461,0.1059500202536583,0.3235273063182831
1772808257811885300,7.93988525390625,5.874012445151806,9.248691123068332,-0.2703893778402358,1.635727047920227,0.0873137339949607,0.2629597783088684
1772808257831934200,7.959934326171875,6.684138741469383,11.640684459525346,0.0834310012720525,1.5725555419921875,-0.0074284952133893,0.2775237560272217
1772808257851983400,7.9799833984375,7.475587225323915,13.389779705172776,0.5268622393351048,1.4789085388183594,-0.212071418762207,0.3704245388507843
1772808257872032500,8.000032470703125,8.481976098453998,13.748855009138584,0.4060528898485004,1.095115303993225,-0.4306252002716064,0.2960430085659027
1772808257892081200,8.0200810546875,8.637788006934523,13.383736917877195,0.2648218799062073,0.3667124509811401,-0.6228746175765991,0.1596837490797042
1772808257912130300,8.04013037109375,7.400182732510566,13.25157534957528,-0.3159825966924429,-0.3374450504779815,-0.5506139993667603,-0.0214393436908721
1772808257932179200,8.06017919921875,5.420476065725088,13.278072895878552,-0.5920514814738184,-0.6352308392524719,-0.3420073091983795,-0.0940682291984558
1772808257952228400,8.080228271484375,4.330834324368834,12.722074505364894,-0.6005109745223075,-0.7291561365127563,-0.3322538435459137,-0.0941808745265007
1772808257972277500,8.100277587890625,3.7829280548959967,11.865181781697272,-0.5671236687052995,-0.7743292450904846,-0.4084424972534179,-0.039604052901268
1772808257992326100,8.120326171875,3.571351881356537,10.75435287540555,-0.6153812113959342,-0.7999207973480225,-0.3022791445255279,0.0205119736492633
1772808258012375300,8.140375244140625,3.664147361692786,9.753789931949973,-0.5177157869357616,-0.8888968229293823,-0.1463551074266433,0.0602888613939285
1772808258032423200,8.160423095703125,3.372290905997157,8.741482190164923,-0.2365495790153741,-0.8245503902435303,-0.0573246665298938,0.1108820959925651
1772808258052472300,8.180472412109374,2.9418185912936923,7.604238739678263,0.0567258766327053,-0.634871244430542,-0.0608131550252437,0.2092277854681015
1772808258072521200,8.200521240234375,3.095247988551855,5.751060019221901,0.2652865017432719,-0.5577116012573242,-0.1721161901950836,0.261555939912796
1772808258092570400,8.2205703125,2.853014518681168,3.08716229725182,0.3730023782378062,-0.8639032244682312,-0.2666116952896118,0.2944894731044769
1772808258112619500,8.24061962890625,1.1904770280241963,-0.5752677391290665,-0.0323040406249463,-1.1936678886413574,-0.2342970520257949,0.2356593608856201
1772808258132668200,8.260668212890625,-1.670116401478648,-5.589806796470284,-0.6437969393454491,-1.6672778129577637,-0.4773752987384796,0.1211108937859535
1772808258152717300,8.28071728515625,-6.037995969650149,-8.915774927231668,-2.4730349583745,-2.1444005966186523,-0.0822664573788642,-0.3332368433475494
1772808258172766200,8.30076611328125,-9.949090970253945,-11.421334437114,-1.4026726486362515,-1.9123382568359373,0.8574270606040955,-0.6030253767967224
1772808258192815400,8.3208154296875,-13.564462902861832,-15.170678786838051,0.1858933046199381,-1.698390007019043,0.2452393770217895,-0.3772412538528442
1772808258212863200,8.34086328125,-15.841977627223727,-17.14735178501606,-0.6199715348608792,-1.4093540906906128,-0.1040904894471168,-0.3613439202308655
1772808258232912400,8.360912353515625,-16.077047781336308,-18.037160105335712,-0.8746787018574774,-1.2682534456253052,0.7363597750663757,-0.4594044089317322
1772808258252961300,8.380961181640625,-16.81506044307947,-18.58829176659584,0.750936294593662,-0.7644928097724915,0.9355950355529784,-0.2494139224290847
1772808258273010200,8.40101025390625,-17.491866648709774,-17.62231089169979,1.150295678152889,0.6004402041435242,0.0186293646693229,-0.0017133802175521
1772808258293059300,8.421059326171875,-13.417400702548026,-14.643963773953914,0.3634213703460991,1.658616304397583,-0.3933117091655731,-0.0150637356564402
1772808258313108200,8.441108154296876,-7.339006671535968,-9.809918646407128,0.3791046041030436,1.888126373291016,-0.1415627300739288,-0.170224979519844
1772808258333157400,8.461157470703125,-1.977905754843354,-4.52937361394167,0.5507711573846638,1.4742329120635986,0.1701176166534423,-0.2962001264095306
1772808258353206300,8.481206298828125,-0.1981798086106777,0.5384703326076269,1.443537012335658,1.4827417135238647,0.0586787015199661,0.0878157168626785
1772808258373255200,8.501255126953126,1.352239369341731,4.859126377311348,0.5718400297027081,1.879879117012024,-0.0713637769222259,0.4375619888305664
1772808258393304300,8.52130419921875,4.080730267253518,8.015634597989916,-0.5086059402197599,1.922988057136536,-0.153775006532669,0.4178376197814941
1772808258413352200,8.541352294921875,7.065991694432497,10.355877288943528,-1.099747540307045,1.46288001537323,0.1755834072828292,0.1959360390901565
1772808258433401300,8.5614013671875,7.889927320393919,12.13281565028429,-0.8068520969524979,1.154680252075195,0.4004778265953064,0.0448186509311199
1772808258453450200,8.5814501953125,7.995901723515987,12.926140449404716,0.0715904144179075,1.1290055513381958,0.2003418058156967,0.1061030477285385
1772808258473499400,8.60149951171875,8.451676821780204,12.800239110541344,0.395571024126932,0.921241283416748,-0.1416891515254974,0.1959022134542465
1772808258493548300,8.62154833984375,8.371296878641843,12.42455520160198,-0.062610550757125,0.4174953699111938,-0.4256470799446106,0.0965429320931434
1772808258513597000,8.641596923828125,7.266470427635312,12.05894143577814,-0.5981057400114834,-0.0883581489324569,-0.3790071904659271,-0.0720021054148674
1772808258533645800,8.661645751953126,5.745872387450933,12.034487378001211,-0.901894479432702,-0.5136613845825195,-0.1803391575813293,-0.1708079427480697
1772808258553695000,8.681695068359375,4.237495530936122,11.749065339267252,-0.9904692733339964,-0.798578143119812,-0.0317973867058754,-0.2194807976484298
1772808258573743900,8.701743896484375,3.233211813391745,11.566290020537377,-0.8115281259395182,-0.7907829880714417,0.1047926247119903,-0.2051053196191787
1772808258593792000,8.7217919921875,3.3328052833050488,10.779715280199053,-0.1746433040700852,-0.6814017295837402,0.1780193150043487,-0.0513220690190792
1772808258613841000,8.7418408203125,3.9754719034463166,10.092314030796288,0.1109191660478711,-0.6035515069961548,0.1543644815683365,0.0832015126943588
1772808258633889800,8.761889892578125,4.5646629539877175,8.995344138509035,0.1297715313602238,-0.6080752611160278,0.0501326508820056,0.1189322024583816
1772808258653939000,8.78193896484375,4.532402606374025,7.951719467440247,0.3429705568611622,-0.6582686305046082,0.0980353057384491,0.1569724828004837
1772808258673987800,8.80198779296875,3.569007656317949,5.961751518881321,0.547490236017853,-0.6587686538696289,0.0120258834213018,0.2831095159053802
1772808258694037000,8.822037109375,2.224306865787506,2.053412538987398,0.4251435939613729,-0.7314455509185791,-0.2579881250858307,0.4568763375282287
1772808258714086000,8.8420859375,0.6444213548541069,-3.174025172668695,-0.4732773641418665,-1.026603102684021,-0.4941655099391937,0.4525450468063354
1772808258734135000,8.862135009765625,-2.160222223889828,-7.014309437990188,-2.2297388277083634,-2.0085957050323486,-0.5252119898796082,-0.0209650341421365
1772808258754184000,8.882183837890626,-5.702348303022981,-11.093175664937496,-1.5089577251426876,-2.597726821899414,0.516507089138031,-0.514691174030304
1772808258774231800,8.902231689453124,-11.33615790734887,-14.366044658195973,-0.1524478388749063,-2.9930310249328613,0.2463958114385604,-0.4675731956958771
1772808258794281000,8.922281005859375,-16.197918724817036,-15.810863527035712,-0.0505287755582481,-2.485634088516236,-0.2971285879611969,-0.4219329953193664
1772808258814329900,8.942329833984376,-17.759361401087045,-15.965339802998304,0.1098798861280083,-1.503213882446289,-0.2003189474344253,-0.3998187780380249
1772808258834379000,8.96237890625,-16.690678861129282,-17.579886292946338,2.192061423482001,-0.98683899641037,-0.3399236500263214,-0.0594993121922016
1772808258854428000,8.982427978515625,-14.457500122100114,-17.92322977477312,3.1980776639074087,-0.8337423205375671,-0.9330044984817504,0.6978142857551575
1772808258874476800,9.002476806640624,-13.89711080315113,-12.592570173573494,2.329082999035716,0.4340221583843231,-1.8319802284240725,1.3861008882522583
1772808258894526000,9.02252587890625,-8.231568674477934,-6.333902577519416,-0.7137469661451876,1.920478582382202,-1.877133846282959,1.279428005218506
1772808258914574800,9.042574951171876,-0.5375017798364162,-1.662561456054449,-2.860318704214692,1.87180495262146,-1.4108519554138184,0.4518438279628753
1772808258934624000,9.0626240234375,3.140101275756955,0.7705313680320978,-0.9372286815337836,0.8187471032142639,-1.306615114212036,0.2739228308200836
1772808258954671900,9.082671875,3.456156353163719,3.153023301172256,-0.355747547782585,0.4050614237785339,-0.8474483489990234,0.4111009836196899
1772808258974721000,9.102720947265626,2.9792531266748905,5.856671434250473,-1.377141901538521,0.6881253719329834,-0.2128923386335373,-0.0730093345046043
1772808258994770000,9.12277001953125,4.428693810096383,7.1479802418112754,-0.5173834862414747,0.7538430094718933,0.0100702000781893,-0.5969342589378357
1772808259014818800,9.14281884765625,6.070715751469135,8.11678552647829,0.9527274255692958,0.4873257279396057,0.1965788900852203,-0.7424221038818359
1772808259034868000,9.162867919921876,6.32451515597105,8.934089167079328,2.0261209196969867,0.4085334837436676,-0.0661742612719535,-0.6923877596855164
1772808259054916900,9.182916748046877,6.392303328561782,9.293200711402296,2.6894734772533178,0.4296073317527771,-0.2872994244098663,-0.4365275502204895
1772808259074966000,9.202966064453124,6.573003010061383,9.548694060340525,2.728060105279088,0.4721662998199463,-0.4370709359645843,-0.2513893544673919
1772808259095015000,9.223014892578124,7.180189151498675,9.678726215398312,2.434007893104851,0.2036084830760955,-0.3695158362388611,-0.1477257907390594
1772808259115063000,9.24306298828125,6.919012496227025,9.872290639168025,1.8476890369988976,-0.1256457865238189,-0.0876380950212478,-0.1408504545688629
1772808259135112000,9.26311181640625,6.499300060468912,9.822076701712607,1.5247240340732038,-0.3544270694255829,0.1593707948923111,-0.1770090609788894
1772808259155160800,9.283160888671874,5.928651213312149,9.588398294219374,1.4522576405383645,-0.5435964465141296,0.1077563390135765,-0.2049403935670852
1772808259175210000,9.3032099609375,5.704289500218629,9.382916638162731,1.4630870775885878,-0.6243327260017395,0.1906093657016754,-0.104849562048912
1772808259195259000,9.3232587890625,4.952887195548415,8.741175900694728,1.1695230873227118,-0.6250854134559631,0.094522476196289,-0.0147536061704158
1772808259215308000,9.34330810546875,4.256352207097411,7.252063716620206,1.5844205240145324,-0.5822115540504456,0.0393855050206184,0.1214792430400848
1772808259235357000,9.36335693359375,3.795456697079539,5.0913312051206825,1.2915598597124218,-1.0926049947738647,0.1342059522867202,0.5058586597442627
1772808259255405800,9.38340576171875,1.9636919360518452,1.985142135837674,0.9030926031760872,-1.8267431259155276,0.1591819524765014,0.9012168645858764
1772808259275455000,9.403455078125,-1.61358436691761,-1.6692542316913603,0.3247423878617584,-2.58259916305542,-0.275369644165039,1.1256163120269775
1772808259295502800,9.4235029296875,-7.059857721722126,-4.279018212413788,-0.9947468775879592,-2.8946330547332764,-0.7907351851463318,0.8787886500358582
1772808259315552000,9.443552001953124,-10.77279687911272,-4.856327686503529,-2.608274326686561,-2.2189791202545166,-0.1557768881320953,0.5531227588653564
1772808259335601000,9.463600830078123,-10.425614257514477,-3.5033956587225195,-2.84721255440414,-1.0488876104354858,1.1821907758712769,0.3579065203666687
1772808259355650000,9.483650146484376,-10.599324810779096,-6.840796453124284,-2.1401585100263354,-0.4482792019844055,1.1810832023620603,0.6706249713897705
1772808259375698700,9.50369873046875,-8.802370666369795,-8.44273129878044,-1.5367755602642892,-0.3361992537975311,0.3911496102809906,0.5238358378410339
1772808259395747800,9.523747802734375,-6.44545974920988,-10.29179264704585,-1.5077011492103338,-0.7097782492637634,-0.4397200644016266,0.1860521733760833
1772808259415797000,9.543796875,-4.535891617533564,-8.257858715510368,-2.116843977673352,-1.4446313381195068,-0.1735956817865371,-0.3189237415790558
1772808259435846000,9.563845947265625,-5.595450355315208,-6.20633009057343,-1.8517749911382797,-1.644650936126709,0.5891701579093933,-0.5740968585014343
1772808259455895000,9.58389501953125,-7.331383337050676,-4.496083046497405,-0.7299551005590706,-0.9575573801994324,0.5842915773391724,-0.4864414930343628
1772808259475943000,9.60394287109375,-6.3931467936486,-2.7226500629290937,0.0955960708402097,0.0812466219067573,0.1891435831785202,-0.316391259431839
1772808259495992000,9.623991943359377,-3.647183367410302,-1.794607581283152,0.6667602471079677,0.8340157270431519,-0.1248906925320625,-0.0474995821714401
1772808259516040400,9.64404052734375,-0.2272632797539234,-0.8407207565456628,0.4176189706102013,1.051881194114685,0.1791615486145019,0.1362058371305465
1772808259536089600,9.664089599609374,1.6543775650769472,0.0841015940099954,0.1188696866609156,0.9901006817817688,0.5117817521095276,0.1259147673845291
1772808259556138800,9.684138671875,2.3739468076348302,0.6262631823509931,0.3268642388539388,0.9211819171905518,0.3301156759262085,0.0754826888442039
1772808259576187600,9.704187744140626,2.864437245449424,1.1094675548106432,0.4404925177300348,0.9009447693824768,0.077392041683197,0.0368030816316604
1772808259596236800,9.72423681640625,3.0920541609466072,1.640500430893898,0.3723590388329699,0.8450708985328674,0.1088417097926139,0.0477467402815818
1772808259616284700,9.74428466796875,3.156197839555144,1.9888550188809635,0.1863232570024207,0.7623607516288757,0.2278511375188827,0.0720215439796447
1772808259636333800,9.764333740234376,3.0984663660764693,2.1137182468682525,0.2525030810810625,0.7292727828025818,0.2363597005605697,0.0613930635154247
1772808259656382500,9.784382568359376,3.320615079295635,2.911616929775476,-0.2873133323732763,0.6398807168006897,0.1493151634931564,-0.1896324753761291
1772808259676431600,9.804431640625,4.054564144861698,2.51995920663476,-0.3075934654664248,0.482392817735672,0.264687716960907,-0.3683279454708099
1772808259696480800,9.824480712890624,3.1959330530941483,2.3148984063386915,0.1078085962792858,0.0048995334655046,0.0118822865188121,-0.5319603085517883
1772808259716529700,9.84452978515625,3.282136003297567,2.052874194326997,0.004903316670563,-0.5264568328857422,0.3141098022460937,-0.4128165543079376
1772808259736578800,9.864578857421876,1.646274338120222,1.6215514002740383,0.2275646373206749,-0.8012709021568298,0.1239444315433502,-0.1324504315853119
1772808259756627500,9.88462744140625,-0.1273901161164045,1.251700435271859,0.2213638647180981,-0.8944899439811707,-0.4435658454895019,0.0686637684702873
1772808259776676600,9.904676513671877,-1.0497872853517531,0.9810662158250808,-0.4677672954834997,-0.7139573097229004,-0.456091970205307,0.1692954301834106
1772808259796724500,9.924724365234376,-1.568119085294008,0.9587743045181036,-0.8783585594139993,-0.3424976468086242,-0.1162138879299163,0.1181691065430641
1772808259816773600,9.944773681640624,-1.6397124953866005,0.0803571467846632,-0.3341073418499902,-0.1844918578863144,-0.1123862639069557,0.0862511917948722
