time,seconds_elapsed,accel_z,accel_y,accel_x,gyro_x,gyro_y,gyro_z
1.7726356283700273e+18,0.31502734375,-0.0567115545272827,0.0345010757446289,0.1038517951965332,-0.0259657986462116,-0.0135821104049682,0.0007989476434886
1.7726356283900209e+18,0.335020751953125,-0.0622869729995727,0.1173515319824218,0.2109022140502929,-0.0262321140617132,-0.0303600095212459,0.0010652635246515
1.7726356284100147e+18,0.3550146484375,-0.0033734440803527,0.1175727844238281,0.2992095947265625,-0.0233026389032602,-0.0314252749085426,-0.0074568446725606
1.7726356284300083e+18,0.37500830078125,-0.0236089825630188,0.0369834899902343,0.3158037662506103,-0.0271642208099365,-0.0476705431938171,-0.0082557927817106
1.7726356284500022e+18,0.395002197265625,-0.0413694977760314,-0.0275945663452148,0.2977950572967529,-0.0380831696093082,-0.0617852844297885,0.0
1.7726356284699958e+18,0.414995849609375,-0.0324854850769043,-0.0132417678833007,0.2511296272277832,-0.0444747507572174,-0.0639158114790916,-0.0023968429304659
1.7726356284899896e+18,0.43498974609375,-0.0345311760902404,-0.0127143859863281,0.2310879230499267,-0.0420779101550579,-0.0508663319051265,-0.0063915811479091
1.7726356285099832e+18,0.454983154296875,-0.0242376923561096,-0.0109462738037109,0.2748589515686035,-0.0374173820018768,-0.040480013936758,-0.0026631588116288
1.772635628529977e+18,0.47497705078125,0.004568874835968,-0.0027809143066406,0.2996954917907715,-0.017710005864501,-0.0380831696093082,-0.0007989476434886
1.7726356285499707e+18,0.494970703125,-0.0025902986526489,0.0545873641967773,0.3517513275146484,-0.0057257916778326,-0.023169482126832,-0.0013315794058144
1.7726356285699645e+18,0.514964599609375,0.0267631411552429,0.0896358489990234,0.3433806896209717,-0.0106526352465152,0.0045273699797689,0.0002663158811628
1.7726356285899581e+18,0.534958251953125,0.1075881719589233,0.045074462890625,0.1830501556396484,-0.0089215822517871,0.0306263267993927,0.0010652635246515
1.7726356286099517e+18,0.55495166015625,0.1076008379459381,0.0214195251464843,-0.0015037059783935,0.0025300008710473,0.0391484349966049,-0.0098536871373653
1.7726356286299456e+18,0.574945556640625,0.1385225355625152,0.0135259628295898,-0.1469538211822509,0.0219710599631071,0.0508663319051265,-0.032490536570549
1.7726356286499392e+18,0.594939208984375,0.2280125021934509,0.0920133590698242,-0.2887177467346191,0.0246342197060585,0.0788294970989227,-0.0527305454015731
1.772635628669933e+18,0.61493310546875,0.2647784948348999,0.2510766983032226,-0.3417329788208008,0.0011984214652329,0.1267663538455963,-0.0671116039156913
1.7726356286899267e+18,0.6349267578125,0.3111555576324463,0.4129867553710937,-0.4448175430297851,-0.0193079020828008,0.1728390008211136,-0.0870852917432785
1.7726356287099205e+18,0.65492041015625,0.3279713094234466,0.4784784317016601,-0.5356264114379883,-0.0190415848046541,0.2151832282543182,-0.1129179298877716
1.772635628729914e+18,0.6749140625,0.3431253135204315,0.352121353149414,-0.5927081108093262,-0.0075900023803114,0.2348906099796295,-0.1376853138208389
1.7726356287499077e+18,0.69490771484375,0.3439543545246124,0.2030878067016601,-0.5366957187652588,0.0081226341426372,0.2300969213247299,-0.1568600535392761
1.7726356287699016e+18,0.714901611328125,0.2756468951702118,0.2077350616455078,-0.3687682151794433,0.011584741063416,0.2002695500850677,-0.1557947844266891
1.7726356287898952e+18,0.734895263671875,0.2540455758571625,0.2357454299926757,-0.2133474349975586,-0.013715268112719,0.1491369009017944,-0.1395495235919952
1.772635628809889e+18,0.754888916015625,0.1555729806423187,0.1806011199951172,-0.1697771549224853,-0.0323573797941207,0.0998684540390968,-0.1198421493172645
1.7726356288298826e+18,0.774882568359375,0.076709508895874,0.1713953018188476,-0.2023835182189941,-0.0491352789103984,0.0367515906691551,-0.1038631945848465
1.7726356288498765e+18,0.79487646484375,0.100776582956314,0.1138563156127929,-0.1951963901519775,-0.0728373900055885,-0.0388821177184581,-0.1027979329228401
1.7726356288698698e+18,0.814869873046875,0.0245311558246612,0.1006135940551757,-0.0949513912200927,-0.1005342453718185,-0.1078579351305961,-0.1137168779969215
1.7726356288898627e+18,0.834862548828125,-0.0011198818683624,0.1153955459594726,-0.0276017189025878,-0.1295626759529113,-0.157392680644989,-0.120108462870121
1.7726356289098552e+18,0.854855224609375,-0.0749289393424987,0.0149002075195312,0.0355973243713378,-0.1396826803684234,-0.2063948065042495,-0.1070589870214462
1.7726356289298478e+18,0.874847900390625,-0.1566960662603378,0.0098037719726562,0.095247745513916,-0.1274321526288986,-0.2633863985538482,-0.081758975982666
1.7726356289498404e+18,0.89484033203125,-0.1625354439020156,0.0289306640625,0.1822524070739746,-0.1186437234282493,-0.2964095771312713,-0.0588558092713356
1.772635628969833e+18,0.9148330078125,-0.1872488409280777,0.0483913421630859,0.1438322067260742,-0.1202416196465492,-0.3177148401737213,-0.0585894957184791
1.7726356289898255e+18,0.934825439453125,-0.236501470208168,0.1390066146850586,0.1450285911560058,-0.1258342564105987,-0.3310306370258331,-0.065247394144535
1.772635629009818e+18,0.954818115234375,-0.2363619059324264,0.1804933547973632,0.3342957496643066,-0.1095889881253242,-0.3278348445892334,-0.0628505498170852
1.7726356290298107e+18,0.974810791015625,-0.3176892697811126,0.059823989868164,0.2952616214752197,-0.1090563535690307,-0.3262369632720947,-0.0599210746586322
1.7726356290498033e+18,0.99480322265625,-0.2846856117248535,-0.0370817184448242,0.3131821155548095,-0.1111868768930435,-0.3110569417476654,-0.0529968589544296
1.7726356290697958e+18,1.0147958984375,-0.2398586720228195,0.0057601928710937,0.2954676151275635,-0.0989363491535186,-0.2961432635784149,-0.0615189671516418
1.7726356290897884e+18,1.034788330078125,-0.2378991991281509,0.0390310287475585,0.3537492752075195,-0.0712395012378692,-0.2966758906841278,-0.0663126558065414
1.7726356291097812e+18,1.05478125,-0.2373992055654525,0.009134292602539,0.3998754024505615,-0.0374173820018768,-0.2846916913986206,-0.0575242303311824
1.7726356291297736e+18,1.074773681640625,-0.178604394197464,0.0537099838256835,0.3851923942565918,-0.016911057755351,-0.2532663941383362,-0.0521979108452796
1.7726356291497664e+18,1.094766357421875,-0.1044343709945678,0.0580606460571289,0.308814525604248,-0.0291615892201662,-0.2122537642717361,-0.0452736988663673
1.772635629169759e+18,1.114759033203125,-0.0166184902191162,0.0758190155029296,0.2207379341125488,-0.0424773842096328,-0.1747032105922699,-0.0532631762325763
1.7726356291897516e+18,1.13475146484375,0.0094055831432342,0.0126228332519531,0.2175734043121338,-0.032091062515974,-0.147805318236351,-0.0657800212502479
1.7726356292097441e+18,1.154744140625,-0.0296805799007415,-0.0928335189819336,0.1456069946289062,0.003328948514536,-0.1219726726412773,-0.0663126558065414
1.7726356292297367e+18,1.17473681640625,-0.0935420393943786,-0.1491518020629882,0.1526765823364257,0.0158457942306995,-0.0897484496235847,-0.0495347529649734
1.7726356292497293e+18,1.194729248046875,-0.1092792451381683,-0.1100749969482421,0.2353296279907226,0.022770008072257,-0.0508663319051265,-0.0162452682852745
1.7726356292697219e+18,1.214721923828125,-0.0649963915348053,-0.0101203918457031,0.286968469619751,0.0331563279032707,-0.0189084280282259,0.0077231605537235
1.7726356292897144e+18,1.23471435546875,-0.0398884713649749,0.0843353271484375,0.2751941680908203,0.0427436977624893,0.0087884236127138,0.0170442163944244
1.772635629309707e+18,1.25470703125,0.0198056399822235,0.0774564743041992,0.1794335842132568,0.043010015040636,0.0207726396620273,0.0042610540986061
1.7726356293296996e+18,1.274699462890625,-0.021138310432434,-0.0100841522216796,0.0819590091705322,0.0451405420899391,0.0300936941057443,-0.0074568446725606
1.7726356293496922e+18,1.294692138671875,-0.1379504799842834,0.0044202804565429,0.0565216541290283,0.0480700172483921,0.043409489095211,-0.017310531809926
1.7726356293696847e+18,1.314684814453125,-0.1645074486732483,0.0534029006958007,0.1092405319213867,0.0600542314350605,0.0647147595882415,-0.017310531809926
1.772635629389677e+18,1.334677001953125,-0.1626812815666198,0.0976524353027343,0.1479473114013672,0.0773647651076316,0.0838894993066787,-0.0055926335044205
1.7726356294096694e+18,1.35466943359375,-0.1753010749816894,0.080108642578125,0.132535696029663,0.0776310786604881,0.0993358269333839,0.0141147412359714
1.7726356294296617e+18,1.37466162109375,-0.1577613353729248,0.034825325012207,0.1384317874908447,0.0747016072273254,0.1038631945848465,0.020240006968379
1.772635629449654e+18,1.394654052734375,-0.2098456621170044,0.0148658752441406,0.183807373046875,0.0755005553364753,0.0996021404862403,0.0034621064551174
1.772635629469646e+18,1.41464599609375,-0.2386027574539184,0.0498380661010742,0.2898149490356445,0.0741689726710319,0.0988031923770904,-0.0183757953345775
1.7726356295096307e+18,1.454630615234375,-0.2787210941314697,0.1558713912963867,0.46523118019104,0.0776310786604881,0.1027979329228401,-0.0287621151655912
1.772635629529623e+18,1.474623046875,-0.2982274889945984,0.1194953918457031,0.5636088848114014,0.0824247673153877,0.1097221449017524,-0.0311589576303958
1.7726356295496154e+18,1.494615478515625,-0.4623582661151886,0.0594892501831054,0.7276289463043213,0.0797616094350814,0.1091895103454589,-0.040480013936758
1.7726356295696077e+18,1.514607666015625,-0.7160802483558655,0.3884105682373047,0.9642007350921632,0.0717721283435821,0.1091895103454589,-0.0564589649438858
1.772635629609592e+18,1.554592041015625,-0.297606348991394,1.862196445465088,1.6294007301330566,0.0656468644738197,0.1137168779969215,-0.0796284452080726
1.7726356296295844e+18,1.57458447265625,-0.3951976895332336,2.690335273742676,1.612121820449829,0.0629837065935134,0.1137168779969215,-0.1123853027820587
1.7726356296495767e+18,1.59457666015625,-0.2737423181533813,3.4947400093078613,1.3839657306671145,0.0651142299175262,0.1454084664583206,-0.1280979365110397
1.772635629669569e+18,1.614569091796875,-0.1174946725368499,4.04800271987915,0.9938082695007324,0.0880173966288566,0.1683116406202316,-0.129962146282196
1.7726356296895613e+18,1.634561279296875,-0.0464472472667694,4.066803455352783,0.1084375381469726,0.1183774098753929,0.1736379563808441,-0.1246358305215835
1.7726356297295457e+18,1.674545654296875,0.4573316574096679,2.541348934173584,-1.634227991104126,0.1306279450654983,0.2018674314022064,-0.1392832100391388
1.772635629749538e+18,1.6945380859375,0.7432953715324402,1.9157743453979488,-1.9672536849975584,0.0917458236217498,0.2426137626171112,-0.1581916362047195
1.7726356297895227e+18,1.734522705078125,0.4998871684074402,1.3125405311584473,0.6902282238006592,-0.0062584234401583,0.2082590162754058,-0.168577954173088
1.772635629829507e+18,1.774507080078125,-0.4968833923339844,0.7757625579833984,0.7356400489807129,-0.0611194930970668,0.2031990140676498,-0.1462074220180511
1.7726356298494994e+18,1.79449951171875,0.7018521428108215,-0.000701904296875,-1.2132768630981443,-0.0688426569104194,0.3025348484516144,-0.0527305454015731
1.7726356298694917e+18,1.81449169921875,1.1189391613006592,-1.843223571777344,-2.884063243865967,-0.048868965357542,0.3198453783988952,0.1166463568806648
1.772635629889484e+18,1.834484130859375,0.9947972297668456,-3.595745086669922,-3.962701320648194,0.0081226341426372,0.255929559469223,0.2958769500255584
1.7726356299094764e+18,1.854476318359375,0.908522129058838,-5.483957290649414,-4.255958557128906,0.072571076452732,0.1155810952186584,0.5001412034034729
1.7726356299294687e+18,1.87446875,0.5278218984603882,-6.941028594970703,-4.545457363128662,0.1399489939212799,-0.0625842288136482,0.6482128500938416
1.772635629949461e+18,1.8944609375,1.1550540924072266,-7.338404655456543,-4.76341724395752,0.1375521570444107,-0.2990727424621582,0.6977475881576538
1.7726356299694533e+18,1.914453369140625,1.6373637914657593,-8.568191528320312,-5.235630512237549,0.0496679134666919,-0.4261054098606109,0.621048629283905
1.7726356299894456e+18,1.934445556640625,1.5103294849395752,-10.38563346862793,-5.750751972198486,-0.0312921144068241,-0.488955944776535,0.4644548892974853
1.7726356300294303e+18,1.97443017578125,0.9387315511703492,-8.55715274810791,-5.560534954071045,0.0251668505370616,-0.4695149064064026,0.3366232812404632
1.7726356300494226e+18,1.994422607421875,0.4828103184700012,-7.055548667907715,-4.147411823272705,0.155129000544548,-0.3717769682407379,0.3368895947933197
1.772635630069415e+18,2.014414794921875,-0.1322762966156005,-5.218216896057129,-1.7910442352294922,0.3442132771015167,-0.1576589941978454,0.6141244173049927
1.7726356300894072e+18,2.0344072265625,-0.9949914813041688,-2.716054916381836,1.0115067958831787,0.4741754233837127,-0.1632516384124755,0.9829719066619872
1.7726356301093996e+18,2.054399658203125,-1.645833969116211,0.0960302352905273,2.960916042327881,0.3431480228900909,-0.2801643013954162,1.0863025188446045
1.7726356301293919e+18,2.074391845703125,-1.7291247844696045,2.7804436683654785,4.312898635864258,0.161254271864891,-0.2785664200782776,0.8556729555130005
1.7726356301493842e+18,2.09438427734375,-1.5002477169036863,5.331747055053711,5.551124572753906,0.0512658059597015,-0.3384874761104584,0.4103927612304687
1.7726356301693765e+18,2.11437646484375,-1.058225154876709,8.041463851928711,6.261597156524658,-0.0824247673153877,-0.2809632420539856,0.1094558238983154
1.7726356301893688e+18,2.134368896484375,-0.3237570822238922,10.247156143188477,6.343134880065918,-0.1146489903330802,-0.1731053292751312,0.0266315881162881
1.7726356302093612e+18,2.154361083984375,0.1123228371143341,11.675190925598145,6.067859649658203,-0.1322258412837982,-0.0996021404862403,-0.032490536570549
1.7726356302293535e+18,2.174353515625,0.0425255559384822,12.166548728942873,5.053872108459473,-0.2331595569849014,0.032490536570549,-0.1997369080781936
1.7726356302493458e+18,2.194345703125,-0.3115892708301544,11.289618492126465,4.294681549072266,-0.3335606455802917,0.1280979365110397,-0.2804306149482727
1.772635630269338e+18,2.214338134765625,0.0947322994470596,9.511527061462402,4.61698055267334,-0.4470112025737762,0.1304947882890701,-0.2537990212440491
1.7726356302893304e+18,2.234330322265625,0.1177289709448814,8.304118156433105,4.5638508796691895,-0.5908218026161194,0.0221042186021804,-0.4090611934661865
1.7726356303093228e+18,2.25432275390625,-0.2438810467720031,7.585735321044922,3.7758944034576416,-0.722914457321167,-0.0471379123628139,-0.7062697410583496
1.772635630329315e+18,2.274315185546875,-0.1300886869430542,6.606637954711914,2.542243242263794,-0.8251797556877136,-0.0684431791305542,-0.9555413722991944
1.7726356303493074e+18,2.294307373046875,-0.2351096421480178,5.532795906066895,1.875959396362305,-0.7844334244728088,-0.1073253005743026,-0.9880319237709044
1.7726356303692997e+18,2.3142998046875,-1.081039309501648,4.214346885681152,2.640749216079712,-0.5367596745491028,-0.1403484642505645,-0.805871844291687
1.7726356303892933e+18,2.334293212890625,-0.2216966450214386,2.4400854110717773,3.5565226078033447,-0.2280995547771453,-0.1944105923175811,-0.5219791531562805
1.772635630409287e+18,2.354286865234375,1.3771954774856567,2.1019458770751958,2.6459407806396484,-0.0832237154245376,-0.1323589980602264,-0.2253032326698303
1.7726356304292805e+18,2.374280517578125,2.650970697402954,1.9664959907531736,-1.3103160858154297,-0.1524658352136612,0.1089231967926025,-0.1331579387187957
1.7726356304492739e+18,2.39427392578125,1.3603854179382324,-3.704561233520508,-3.582547664642334,-0.3340932726860046,0.3339601159095764,-0.2865558862686157
1.7726356304692675e+18,2.414267333984375,-2.483379364013672,-12.499564170837402,-3.6640098094940186,-0.2992058992385864,0.3600590825080871,-0.3912180364131927
1.772635630489261e+18,2.434260986328125,-1.5742623805999756,-8.33057689666748,-6.005693912506104,-0.0496679134666919,0.2407495528459549,-0.2913495600223541
1.7726356305092544e+18,2.45425439453125,2.3074936866760254,-1.3662328720092771,-5.599701881408691,0.1942774355411529,-0.0005326317623257,-0.1563274264335632
1.772635630529248e+18,2.474248046875,4.074179649353027,-4.07853889465332,-6.019881248474121,0.3079943060874939,-0.1094558238983154,-0.0415452793240547
1.7726356305492416e+18,2.49424169921875,2.3103904724121094,-7.309551239013672,-7.990865230560303,0.2483395636081695,-0.0905473977327346,0.0439421199262142
1.7726356305692352e+18,2.514235107421875,1.1422910690307615,-8.2687349319458,-8.180566787719727,0.144476369023323,-0.0386158041656017,0.0527305454015731
1.7726356305892288e+18,2.534228759765625,1.548959255218506,-9.46261215209961,-5.304950714111328,0.1431447863578796,0.0836231857538223,-0.1004010885953903
1.7726356306092221e+18,2.55422216796875,1.3445467948913574,-11.538190841674805,-4.949827194213867,0.0816258192062377,0.3161169588565826,-0.4897549152374267
1.7726356306292157e+18,2.5742158203125,0.5874464511871338,-12.666253089904783,-5.740551948547363,0.1514005810022354,0.4261054098606109,-0.8000128865242004
1.7726356306492093e+18,2.594209228515625,1.1028218269348145,-10.041427612304688,-6.406328201293945,0.2382195591926574,0.0063915811479091,-0.4998749196529388
1.7726356306692027e+18,2.61420263671875,1.9516785144805908,-7.113515853881836,-6.466794013977051,0.4118575155735016,-0.5826991200447083,0.6237117648124695
1.7726356306891963e+18,2.6341962890625,1.7052563428878784,-5.415629386901856,-4.882040023803711,0.5311670303344727,-0.6727139353752136,1.6016236543655396
1.77263563070919e+18,2.65418994140625,0.759654700756073,-3.448854446411133,-1.796855926513672,0.2222405970096588,-0.1424790024757385,1.572595238685608
1.7726356307291835e+18,2.67418359375,-0.2724806666374206,-1.30120849609375,1.5547316074371338,0.2179795503616333,0.4000064432621002,1.4271868467330933
1.772635630749177e+18,2.694177001953125,-0.7840723991394043,1.2231206893920898,3.916377067565918,0.7801723480224609,0.4356927871704101,1.7270585298538208
1.7726356307691704e+18,2.71417041015625,-1.1450189352035522,4.856471538543701,5.0371503829956055,0.774846076965332,-0.2567285001277923,1.4705963134765625
1.772635630789164e+18,2.7341640625,-1.696056604385376,8.852683067321777,5.725655555725098,0.133823737502098,-0.6998781561851501,0.6741786599159241
1.7726356308091576e+18,2.75415771484375,-2.4041152000427246,12.033791542053224,6.32576847076416,-0.0723047628998756,-0.4029359221458435,0.2065279632806778
1.772635630829151e+18,2.77415087890625,-1.8667081594467163,12.988139152526855,6.499904632568359,-0.0685763359069824,-0.2266348153352737,-0.0451405420899391
1.7726356308491446e+18,2.79414453125,-0.8209434747695923,12.13541316986084,6.01963996887207,-0.0142478998750448,0.157392680644989,-0.2280995547771453
1.7726356308691382e+18,2.81413818359375,-0.1190321743488311,10.401580810546877,5.437941074371338,0.0209057964384555,0.4788359403610229,-0.2510027289390564
1.7726356308891325e+18,2.834132568359375,-0.2574809193611145,9.554539680480955,5.092408180236816,-0.0201068483293056,0.4945485889911651,0.011584741063416
1.772635630929121e+18,2.87412109375,-0.7990335822105408,8.22663688659668,4.2243266105651855,-0.0544615983963012,0.3022685348987579,0.0387489609420299
1.7726356309491154e+18,2.894115478515625,-0.7233142256736755,6.914634704589844,3.106318473815918,-0.2858901023864746,0.040480013936758,-0.4669848978519439
1.7726356309691098e+18,2.91410986328125,-0.4551858305931091,6.478613376617432,1.8655717372894287,-0.6392912864685059,-0.1105210930109024,-1.1105371713638306
1.772635630989104e+18,2.934104248046875,-0.4261193871498108,6.8860578536987305,1.51513671875,-0.8339681625366211,-0.1930790096521377,-1.448225736618042
1.7726356310090982e+18,2.95409814453125,0.918861985206604,6.227415084838867,2.076796531677246,-0.75034499168396,-0.3928159177303314,-1.4503562450408936
1.7726356310290926e+18,2.974092529296875,1.442731261253357,3.963582992553711,2.5858712196350098,-0.448076456785202,-0.6024065017700195,-1.023718237876892
1.772635631049087e+18,2.9940869140625,0.0458202362060546,1.5856070518493652,2.610781669616699,-0.2334258705377578,-0.7243791818618774,-0.2982738018035888
1.7726356310690813e+18,3.014081298828125,0.7075450420379639,-2.4714975357055664,0.78564453125,-0.34714275598526,-0.4293012022972107,0.251402199268341
1.7726356310890755e+18,3.034075439453125,-1.27003812789917,-8.926844596862793,-3.519761323928833,-0.4872249066829681,0.1382179409265518,0.2143842875957489
1.7726356311090698e+18,3.05406982421875,-3.255004644393921,-12.390975952148438,-4.172726631164551,-0.2898848354816437,0.4961465001106262,-0.2572611272335052
1.7726356311290642e+18,3.074064208984375,-0.592931866645813,-4.150104522705078,-4.921234607696533,0.1572595238685608,0.4801675379276275,-0.4942822754383087
1.7726356311490586e+18,3.09405859375,3.899238109588623,0.641179084777832,-5.821601867675781,0.3956122398376465,0.3110569417476654,-0.1989379674196243
1.772635631169053e+18,3.114052978515625,3.6005117893218994,-3.18679428100586,-5.987899303436279,0.4020038247108459,0.306263267993927,0.246342197060585
1.772635631189047e+18,3.134047119140625,2.939069986343384,-6.558008193969727,-9.624261856079102,0.286156415939331,0.4327633082866668,0.3600590825080871
1.7726356312090414e+18,3.15404150390625,0.6971544027328491,-10.207674980163574,-10.164506912231444,0.165781632065773,0.3954790830612182,0.1818937510251999
1.7726356312290358e+18,3.174035888671875,1.203917384147644,-10.299638748168944,-8.406881332397461,0.03715106472373,0.3312969505786896,-0.0580568611621856
1.7726356312490301e+18,3.194030029296875,1.329273700714111,-8.4168062210083,-6.565185070037842,-0.0978710874915123,0.3701790869235992,-0.1826926916837692
1.7726356312690243e+18,3.214024169921875,1.0409117937088013,-9.265132904052734,-6.377830028533936,0.0376836955547332,0.3182474672794342,-0.2543316781520843
1.7726356312890186e+18,3.2340185546875,1.350952386856079,-8.758810997009277,-7.11540412902832,0.433429092168808,0.3219758868217468,-0.3310306370258331
1.772635631309013e+18,3.254012939453125,1.9624296426773071,-6.412506103515625,-7.025445461273193,0.6462154984474182,0.2271674424409866,-0.1246358305215835
1.7726356313290074e+18,3.27400732421875,1.806207299232483,-6.1265869140625,-5.490407466888428,0.7391597032546997,-0.3832285404205322,0.5539370179176331
1.7726356313490017e+18,3.294001708984375,0.9145464301109314,-4.470088005065918,-4.1203131675720215,0.6691186428070068,-0.1105210930109024,1.651957392692566
1.7726356313689958e+18,3.313995849609375,0.1061804294586181,-1.8024168014526367,-1.394516944885254,0.3655185401439667,0.5448822975158691,2.133989095687866
1.7726356313889876e+18,3.333987548828125,-0.2593475580215454,0.2020883560180664,1.7715394496917725,0.4190480411052704,0.7416897416114807,2.027995347976685
1.7726356314089797e+18,3.353979736328125,-0.6759257316589355,2.5470871925354004,3.867591381072998,1.005475640296936,0.7648591995239258,2.4152188301086426
1.7726356314289718e+18,3.3739716796875,-1.1343258619308472,6.041603088378906,4.907916069030762,0.5205143690109253,0.1427453160285949,2.0588879585266118
1.7726356314489638e+18,3.3939638671875,-1.853665828704834,9.46635913848877,5.6793317794799805,0.0669784471392631,-0.2703106105327606,1.063399314880371
1.7726356314689556e+18,3.41395556640625,-2.5948586463928223,11.599567413330078,6.877152442932129,-0.0848216116428375,-0.3486074805259704,-0.0274305362254381
1.7726356314889477e+18,3.43394775390625,-2.217195987701416,12.328636169433594,7.87342643737793,-0.0968058258295059,-0.4737759530544281,-0.4069306552410126
1.7726356315089398e+18,3.453939697265625,-0.4543332457542419,11.846839904785156,8.01343822479248,-0.0912131890654563,-0.3219758868217468,-0.4990759491920471
1.7726356315289316e+18,3.473931640625,-0.0019080638885498,10.660799026489258,7.099184036254883,-0.1527321636676788,0.045540016144514,-0.5177180767059326
1.7726356315489236e+18,3.493923583984375,-0.5157984495162964,9.32788372039795,5.873047828674316,-0.2667153477668762,0.2024000734090805,-0.4103927612304687
1.7726356315689157e+18,3.513915771484375,-1.1717487573623655,8.169243812561035,4.852750778198242,-0.1008005589246749,0.1699095368385315,-0.2655169367790222
1.7726356315889078e+18,3.53390771484375,-0.9005608558654785,7.201155662536621,2.795008659362793,-0.1452753096818924,-0.1286305636167526,-0.5613938570022583
1.7726356316088998e+18,3.55389990234375,-0.8227450847625732,6.077484130859375,1.3815784454345703,-0.5191828012466431,-0.3680485486984253,-1.002413034439087
1.7726356316288916e+18,3.5738916015625,-0.8687494993209839,6.0672454833984375,1.282494306564331,-0.796151340007782,-0.388022243976593,-1.3986910581588743
1.7726356316488837e+18,3.5938837890625,-1.4072660207748413,6.680672645568848,1.9647740125656128,-0.8890955448150635,-0.4418180584907532,-1.648495316505432
1.7726356316688758e+18,3.613875732421875,-0.0976930260658264,6.131750106811523,2.8365678787231445,-0.8483492136001587,-0.5629917979240417,-1.578986883163452
1.7726356316888676e+18,3.63386767578125,0.4310632348060608,4.148586273193359,3.7895874977111816,-0.6004091501235962,-0.6482128500938416,-1.086036205291748
1.7726356317088596e+18,3.653859619140625,0.6513216495513916,-0.0130863189697265,4.987967491149902,-0.2557964026927948,-0.5358275771141052,-0.3595264256000519
1.7726356317288517e+18,3.673851806640625,0.2521149516105652,-7.547880172729492,0.5353407859802246,-0.116779513657093,-0.158457949757576,0.0862863436341285
1.7726356317488438e+18,3.69384375,-1.4975132942199707,-13.130146026611328,-7.232597351074219,-0.1687111109495163,0.2266348153352737,0.035420011729002
1.7726356317688358e+18,3.7138359375,1.0565502643585205,-5.477494239807129,-5.00422477722168,0.0118510564789175,0.3627222180366516,-0.2500706017017364
1.7726356317888276e+18,3.73382763671875,1.4801373481750488,-0.2049169540405273,-4.3827104568481445,0.2952111661434173,0.3187801241874695,-0.3648527562618255
1.7726356318288118e+18,3.773811767578125,2.3047008514404297,-8.28766918182373,-8.764012336730957,0.5562007427215576,0.300137996673584,-0.2423474490642547
1.7726356318488036e+18,3.793803466796875,2.0195703506469727,-9.251327514648438,-10.470850944519045,0.577772319316864,0.3099916875362396,-0.0716389715671539
1.7726356318687956e+18,3.813795654296875,2.3543286323547363,-8.797734260559082,-9.594965934753418,0.3860248625278473,0.2953443229198456,0.1627189964056015
1.772635631888789e+18,3.8337890625,2.0879783630371094,-9.615874290466309,-7.941718578338623,0.0997352972626686,0.2226400822401046,0.2426137626171112
1.772635631908782e+18,3.853781982421875,1.4998633861541748,-11.255308151245115,-7.286935806274414,-0.1458079516887664,0.0719052851200103,0.0841558203101158
1.7726356319287754e+18,3.873775390625,1.437985897064209,-10.107007026672363,-7.579184055328369,-0.3636543452739715,0.0942758247256279,-0.206661120057106
1.7726356319487685e+18,3.8937685546875,2.026244640350342,-7.333971977233887,-6.700552940368652,-0.2781669497489929,0.0796284452080726,-0.4966791272163391
1.7726356319687619e+18,3.913761962890625,1.8248851299285889,-5.414003372192383,-5.804882049560547,0.0283626411110162,0.0258326400071382,-0.6396907567977905
1.7726356319887552e+18,3.933755126953125,0.7687481641769409,-3.75051212310791,-3.5341219902038574,0.4909533262252807,-0.1502021551132202,-0.5755085945129395
1.7726356320087483e+18,3.953748291015625,-0.0280895829200744,-1.6505956649780271,-0.4976239204406738,0.8584692478179932,-0.3496727645397186,0.246342197060585
1.7726356320287416e+18,3.97374169921875,-0.7055418491363525,0.7140750885009766,2.266519546508789,0.4366248846054077,-0.0551273860037326,1.9185396432876587
1.7726356320487347e+18,3.993734619140625,-1.208301067352295,3.451969623565674,3.952021598815918,0.3362238109111786,0.0085221081972122,2.19124698638916
1.772635632068728e+18,4.01372802734375,-1.652145266532898,6.686138153076172,4.795589447021484,0.5764407515525818,0.4687159657478332,2.134521722793579
1.7726356320887212e+18,4.03372119140625,-1.7432260513305664,10.081363677978516,5.768680095672607,0.5239765048027039,0.3787011802196502,1.7158732414245603
1.7726356321087145e+18,4.053714599609375,-2.0106663703918457,12.979031562805176,6.991197109222412,0.3407511711120605,0.0593884401023387,1.0045435428619385
1.7726356321287076e+18,4.07370751953125,-1.1880298852920532,14.42988395690918,7.478781700134277,0.1127847731113433,0.1070589870214462,0.3699127733707428
1.772635632148701e+18,4.093700927734375,-0.4544634222984314,13.5454683303833,6.482394218444824,-0.1846900582313537,-0.0061252652667462,0.0093210563063621
1.772635632168694e+18,4.113694091796875,-0.1902578771114349,10.799235343933104,5.340415000915527,-0.1074584573507309,-0.0697747617959976,-0.3779022395610809
1.7726356321886874e+18,4.133687255859375,-0.1614251583814621,8.0054349899292,5.29994010925293,-0.0563258081674575,-0.0748347640037536,-0.6817686557769775
1.7726356322086804e+18,4.153680419921875,-0.91677987575531,6.718011856079102,4.233598709106445,-0.1455416232347488,0.0303600095212459,-0.5275717377662659
1.7726356322286738e+18,4.173673828125,-0.9450526237487792,6.178557872772217,2.1759095191955566,-0.127698466181755,-0.0471379123628139,-0.3193127512931824
1.7726356322486671e+18,4.193667236328125,-0.6179448366165161,6.243946075439453,1.160646915435791,-0.2677806317806244,-0.2141179740428924,-0.4527370035648346
1.7726356322686602e+18,4.21366015625,-0.7059218883514404,6.92234992980957,1.822187185287476,-0.6145238876342773,-0.2484727203845977,-1.031175136566162
1.7726356322886536e+18,4.233653564453125,-1.0620005130767822,7.242751121520996,3.5173239707946777,-0.8648608326911926,-0.262054830789566,-1.5536868572235107
1.77263563232864e+18,4.273639892578125,0.9518468379974364,3.451004981994629,3.8135948181152335,-0.8113313317298889,-0.2825611531734466,-1.783251166343689
1.772635632348633e+18,4.293633056640625,0.3590136468410492,0.4069709777832031,3.6163384914398193,-0.5364933609962463,-0.3549990653991699,-1.6285215616226196
1.7726356323686264e+18,4.31362646484375,0.6142988204956055,-3.687699317932129,0.5563919544219971,-0.3037332594394684,-0.4303664565086365,-1.041295051574707
1.7726356323886195e+18,4.33361962890625,1.006230115890503,-5.545866012573242,-5.358345985412598,-0.2083921730518341,-0.3683148622512817,-0.2865558862686157
1.7726356324086126e+18,4.353612548828125,0.2760055661201477,-5.628749847412109,-5.842525482177734,-0.313586950302124,0.1059937179088592,0.2047969102859497
1.772635632428606e+18,4.37360595703125,-1.3218165636062622,-6.299829483032227,-4.4409284591674805,-0.3103911578655243,0.4793685972690582,0.197073757648468
1.772635632448599e+18,4.39359912109375,0.6669840812683105,-5.836587905883789,-6.775218963623047,0.0398142226040363,0.5387570261955261,-0.0127831622958183
1.772635632468592e+18,4.413592041015625,3.143200159072876,-5.934170722961426,-8.296768188476562,0.4773712158203125,0.4932170212268829,0.0018642111681401
1.7726356324885852e+18,4.433585205078125,3.2458336353302,-6.018388748168945,-7.375423431396484,0.6235786080360413,0.224504292011261,0.0556600205600261
1.7726356325085783e+18,4.453578369140625,1.7290735244750977,-7.558996200561523,-6.857107639312744,0.367915391921997,0.098536878824234,0.1161137223243713
1.7726356325485647e+18,4.493564697265625,1.2866790294647217,-11.76520824432373,-6.291611194610596,0.0776310786604881,0.1510011106729507,0.2151832282543182
1.7726356325685578e+18,4.513557861328125,1.2464275360107422,-10.02867317199707,-7.398493766784668,-0.0672447606921196,0.2063948065042495,0.2063948065042495
1.772635632588551e+18,4.533551025390625,1.3218753337860107,-7.876421928405762,-8.137569427490234,-0.2110553383827209,0.1994705945253372,0.0242347456514835
1.7726356326085443e+18,4.553544189453125,2.1851344108581543,-5.616663932800293,-7.698825359344482,-0.3961448669433594,0.2439453452825546,-0.3195790648460388
1.7726356326485304e+18,4.593530517578125,0.9965681433677672,-5.073735237121582,-2.783581256866455,-0.205462709069252,0.1387505680322647,-0.6657897233963013
1.7726356326685235e+18,4.6135234375,0.0797626376152038,-3.372403144836426,0.0150094032287597,0.2326269149780273,-0.0695084482431411,-0.7360970973968506
1.7726356326885169e+18,4.633516845703125,-0.4695885777473449,-0.4585866928100586,2.0749123096466064,0.5016059875488281,-0.1027979329228401,-0.3901527523994446
1.77263563270851e+18,4.653510009765625,-0.9667995572090148,2.3126654624938965,3.754140138626098,0.4749743640422821,-0.4165180325508117,0.4181159436702728
1.7726356327484961e+18,4.69349609375,-1.2892117500305176,8.088400840759277,4.999491691589356,0.4214448928833008,-0.4751075208187103,1.5632742643356323
1.7726356327684895e+18,4.713489501953125,-1.4668211936950684,10.19469165802002,5.694928169250488,0.2776342928409576,-0.202133759856224,1.8080185651779173
1.7726356327884826e+18,4.733482666015625,-1.580757975578308,11.3855619430542,6.519236564636231,0.1908153295516967,0.2743053436279297,1.2428961992263794
1.7726356328084756e+18,4.7534755859375,-0.4385963976383209,11.913190841674805,6.550478935241699,0.5024049282073975,0.1510011106729507,1.111602544784546
1.7726356328284687e+18,4.77346875,0.2249615788459777,11.26707935333252,5.891191482543945,0.5828322768211365,-0.3685811758041382,1.3134698867797852
1.772635632848462e+18,4.793462158203125,-0.3072246015071869,9.933300971984863,5.584322929382324,0.2022669166326522,-0.6082654595375061,1.0080056190490725
1.7726356328684552e+18,4.813455078125,-0.4544916152954101,8.919063568115234,5.382120132446289,0.0299605373293161,-0.2221074402332306,0.5291696786880493
1.7726356328884477e+18,4.83344775390625,-0.6037063002586365,8.483879089355469,4.471036911010742,0.072571076452732,0.2545979917049408,0.0037284223362803
1.7726356329084406e+18,4.853440673828125,-0.5341058373451233,7.891017913818359,3.1444077491760254,0.1085237190127372,0.438355952501297,-0.3206443190574646
1.7726356329284334e+18,4.873433349609375,-0.8605372905731201,7.090976715087891,2.370893955230713,0.0605868622660636,0.3997401297092438,-0.2990727424621582
1.7726356329484262e+18,4.89342626953125,-1.3815501928329468,6.474410057067871,2.406815528869629,-0.1569932103157043,0.2282327115535736,-0.1890842765569687
1.772635632968419e+18,4.913419189453125,-0.988600730895996,5.563090801239014,2.942087888717652,-0.2624543011188507,0.0037284223362803,-0.1099884584546089
1.7726356329884116e+18,4.93341162109375,-0.5085741281509399,4.407220363616943,3.515798807144165,-0.3737743496894836,-0.1858884841203689,-0.3078611493110657
1.7726356330084045e+18,4.953404541015625,1.99654233455658,2.4204602241516118,3.2600197792053223,-0.6115944385528564,-0.2689790427684784,-0.7827023863792419
1.7726356330283973e+18,4.973397216796875,2.773094892501831,-1.378129959106445,-0.205012559890747,-0.7679218649864197,-0.2889527380466461,-1.0554097890853882
1.7726356330483901e+18,4.99339013671875,1.5017013549804688,-8.204390525817871,-7.130149364471436,-0.7159902453422546,-0.2687127292156219,-1.0471540689468384
1.772635633068383e+18,5.013383056640625,0.3684558272361755,-13.356687545776367,-7.681889533996582,-0.5335638523101807,-0.2426137626171112,-0.9142624139785768
1.7726356330883758e+18,5.033375732421875,-1.7987897396087646,-8.951872825622559,-5.070462226867676,-0.3071953654289245,-0.2215748131275177,-0.6165212392807007
1.7726356331083684e+18,5.053368408203125,0.5082829594612122,-2.988960266113281,-5.568630218505859,-0.1790974289178848,-0.1315600425004959,0.1352884620428085
1.7726356331283612e+18,5.073361328125,3.880506038665772,-4.906124114990234,-6.9455976486206055,-0.3727090656757355,0.1374190002679824,0.0751010775566101
1.772635633148354e+18,5.09335400390625,3.886502504348755,-8.58934497833252,-10.907711029052734,-0.4246406853199005,0.3036001026630401,-0.2540653645992279
1.772635633168347e+18,5.113346923828125,1.9259201288223269,-10.080577850341797,-10.847148895263672,-0.1700426936149597,0.3510043323040008,-0.5675191283226013
1.7726356331883397e+18,5.133339599609375,1.368492603302002,-11.53746509552002,-7.70245361328125,0.1426121592521667,0.3368895947933197,-0.6711159944534302
1.7726356332083325e+18,5.15333251953125,1.53390371799469,-11.937173843383787,-6.680152893066406,0.3620564341545105,0.2271674424409866,-0.5483443737030029
1.772635633228325e+18,5.1733251953125,1.5494961738586426,-10.461605072021484,-6.420007705688477,0.3215764164924621,0.0961400344967842,-0.240216925740242
1.772635633248318e+18,5.19331787109375,1.879250645637512,-8.034875869750977,-6.118039131164551,0.1593900620937347,0.0452736988663673,0.0980042442679405
1.7726356332683108e+18,5.213310791015625,1.8841526508331297,-6.165635108947754,-5.305047988891602,0.0131826363503932,0.0170442163944244,0.2910832464694977
1.7726356332883036e+18,5.2333037109375,0.856123685836792,-4.045718193054199,-3.102842330932617,-0.0523310713469982,0.0585894957184791,0.1920137554407119
1.7726356333082964e+18,5.25329638671875,-0.3451570272445678,-1.0756216049194336,-0.7640166282653809,0.0864195004105568,0.2330264002084732,-0.2045305967330932
1.7726356333282893e+18,5.273289306640625,-1.6051886081695557,1.5812091827392578,1.7639691829681396,0.2488721907138824,0.4354264736175537,-0.6250433921813965
1.7726356333682747e+18,5.313274658203125,-1.7468791007995603,6.6610107421875,4.38272762298584,0.6289049386978149,0.3347590565681457,-0.6559360027313232
1.772635633388268e+18,5.33326806640625,-1.453516721725464,9.60151481628418,5.747065544128418,0.9673924446105956,-0.1078579351305961,0.1579253226518631
1.7726356334082614e+18,5.353261474609375,-1.064650535583496,12.035348892211914,7.123033046722412,0.6134586334228516,-0.4330296218395233,1.708150029182434
1.7726356334282545e+18,5.37325439453125,-0.5356048941612244,12.936142921447754,8.21265983581543,0.0259657986462116,-0.5315665006637573,2.1132164001464844
1.7726356334482478e+18,5.393247802734375,-0.309269905090332,12.113061904907228,7.975123882293701,-0.0648479163646698,-0.0471379123628139,1.378717303276062
1.7726356334682412e+18,5.4132412109375,-0.4667375385761261,10.419322967529297,6.3728742599487305,0.6470144391059875,0.5129243731498718,1.3475583791732788
1.7726356334882345e+18,5.433234375,-0.5540863275527954,9.20987606048584,5.165175437927246,0.9617998003959656,0.1616537421941757,1.5243921279907229
1.7726356335082278e+18,5.453227783203125,-0.6994171142578125,8.50490951538086,4.372726440429688,0.2605900764465332,-0.3323622345924377,1.055942416191101
1.7726356335282212e+18,5.47322119140625,-0.4665227234363556,7.89081335067749,3.1189372539520264,-0.0744352862238884,-0.1946769058704376,0.1057274043560028
1.7726356335482143e+18,5.49321435546875,-0.2057123631238937,6.907018184661865,2.0472159385681152,-0.0565921254456043,-0.0471379123628139,-0.6655234098434448
1.7726356335682076e+18,5.51320751953125,-0.4179099798202514,6.218028545379639,2.27473783493042,-0.0632500201463699,-0.0085221081972122,-0.6471475958824158
1.772635633588201e+18,5.533200927734375,-0.825191855430603,6.084081649780273,3.1774728298187256,-0.1428784728050232,0.0167779009789228,-0.2687127292156219
1.7726356336081943e+18,5.5531943359375,-0.4481955170631408,5.807343482971191,3.294543743133545,-0.1668469011783599,0.1270326822996139,-0.1070589870214462
1.7726356336281876e+18,5.573187744140625,-0.363164484500885,4.31698751449585,3.8107681274414062,-0.1162468791007995,0.1523326784372329,-0.3182474672794342
1.772635633668174e+18,5.613174072265625,1.860478758811951,-1.9475765228271484,1.4094792604446411,-0.2834932506084442,0.0338221155107021,-0.7741802930831909
1.7726356336881674e+18,5.63316748046875,1.89705228805542,-5.112523078918457,-7.889154434204102,-0.550341784954071,-0.1099884584546089,-0.8748476505279541
1.7726356337081608e+18,5.653160888671875,0.5542043447494507,-11.69760799407959,-8.129450798034668,-0.7556713223457336,-0.2055958658456802,-0.8266444802284241
1.772635633728154e+18,5.673154052734375,-1.483597755432129,-11.562253952026367,-5.940201759338379,-0.7737807631492615,-0.2026663869619369,-0.7672560811042786
1.7726356337481475e+18,5.6931474609375,0.9102548956871032,-4.812498092651367,-7.546055793762207,-0.6297038793563843,-0.1174453049898147,-0.6428865194320679
1.7726356337681405e+18,5.713140625,3.644533395767212,-4.1138458251953125,-7.371789455413818,-0.4707133173942566,0.0165115855634212,-0.371244341135025
1.772635633788134e+18,5.7331337890625,3.6823861598968506,-7.629678726196289,-10.207094192504885,-0.3370227515697479,0.2277000844478607,-0.0924116075038909
1.7726356338081272e+18,5.753127197265625,1.9945201873779297,-10.69765281677246,-10.587326049804688,-0.1756353229284286,0.2972085177898407,-0.0593884401023387
1.7726356338281206e+18,5.77312060546875,1.598397970199585,-11.38650608062744,-8.405311584472656,0.0651142299175262,0.227433755993843,-0.168577954173088
1.772635633848114e+18,5.793114013671875,1.8424243927001955,-10.320509910583496,-7.415014266967773,0.3117227256298065,0.169643223285675,-0.1118526682257652
1.772635633868107e+18,5.81310693359375,1.5170929431915283,-9.512645721435549,-7.544768810272217,0.4347606897354126,0.0833568722009658,0.0215715859085321
1.7726356338880993e+18,5.833099365234375,1.5641019344329834,-8.625555038452148,-7.6108479499816895,0.3593932688236236,-0.0607200190424919,0.1078579351305961
1.7726356339080914e+18,5.85309130859375,1.5477545261383057,-7.037705421447754,-7.037899971008301,0.2328932434320449,-0.1110537201166153,0.2000032216310501
1.7726356339280837e+18,5.873083740234375,1.157454013824463,-4.536277770996094,-5.124274253845215,0.1074584573507309,-0.1219726726412773,0.2466085106134414
1.7726356339480758e+18,5.89307568359375,0.3708418011665344,-2.1511363983154297,-2.1128580570220947,-0.0749679207801818,-0.1312937289476394,0.0886831879615783
1.7726356339680678e+18,5.91306787109375,-0.6123887300491333,-0.1829309463500976,1.168250322341919,-0.2067942768335342,-0.0452736988663673,-0.2519348263740539
1.7726356339880602e+18,5.93306005859375,-1.5012847185134888,2.6730403900146484,3.685720682144165,-0.0573910735547542,0.1012000367045402,-0.5299686193466187
1.7726356340080522e+18,5.95305224609375,-1.4496712684631348,6.221218109130859,5.036371231079102,0.1588574200868606,0.1882853209972381,-0.7166560292243958
1.7726356340280445e+18,5.97304443359375,-0.8709567189216614,9.887481689453123,5.9546217918396,0.3905522525310516,0.2055958658456802,-0.9145287275314332
1.772635634068029e+18,6.01302880859375,-0.6074912548065186,14.20200538635254,7.486113548278809,0.6659228801727295,-0.0910800322890281,-0.272707462310791
1.772635634088021e+18,6.03302099609375,-0.440898060798645,13.44188404083252,6.526787757873535,0.6715154647827148,-0.0039947382174432,1.6213310956954956
1.7726356341080133e+18,6.053013427734375,-0.4657236933708191,10.923125267028809,4.567461490631104,0.0936100333929061,-0.1973400712013244,2.1627511978149414
1.7726356341280054e+18,6.07300537109375,-0.4481601417064667,8.359113693237305,4.069431304931641,-0.2595248222351074,-0.0162452682852745,1.1278477907180786
1.7726356341479977e+18,6.092997802734375,-0.7341775894165039,6.991700649261475,4.148386955261231,0.7162565588951111,-0.1712411046028137,1.214666724205017
1.7726356341679898e+18,6.11298974609375,-0.7241985201835632,6.420905590057373,3.6573894023895264,0.2049300670623779,-0.4348938465118408,1.1169288158416748
1.772635634187982e+18,6.132982177734375,-0.6593165993690491,6.452613830566406,3.0958597660064697,-0.150068998336792,-0.2055958658456802,0.1869537532329559
1.7726356342079741e+18,6.15297412109375,-0.5085650086402893,7.100286483764648,3.155123472213745,-0.1564605832099914,0.0431431718170642,-0.7009434103965759
1.7726356342279665e+18,6.172966552734375,-0.5313246846199036,7.882137775421143,3.759087562561035,-0.0648479163646698,0.1249021515250206,-0.56911700963974
1.7726356342479585e+18,6.19295849609375,-0.3581248223781585,8.550542831420898,4.240571975708008,-0.1735047996044159,0.0521979108452796,-0.034621063619852
1.7726356342679506e+18,6.21295068359375,1.0773799419403076,7.921947956085205,3.519094228744507,-0.3340932726860046,-0.05139896646142,0.1992042809724807
1.772635634287943e+18,6.23294287109375,0.5072474479675293,5.094801902770996,3.2312862873077397,-0.4033353924751282,-0.1768337488174438,-0.0623179152607917
1.772635634307935e+18,6.25293505859375,-0.0803610384464263,0.3890504837036133,2.743885040283203,-0.5024049282073975,-0.2479400783777237,-0.6340981125831604
1.7726356343279273e+18,6.27292724609375,0.2099826037883758,-8.546171188354492,-3.289252281188965,-0.6574007272720337,-0.2311621904373169,-1.1526151895523071
1.7726356343479194e+18,6.29291943359375,-0.2527937293052673,-15.57226276397705,-10.420183181762695,-0.8206523656845093,-0.3046653568744659,-1.4229257106781006
1.7726356343679117e+18,6.31291162109375,0.9983295202255248,-8.224528312683105,-8.540138244628906,-0.8571376800537109,-0.3701790869235992,-1.438372015953064
1.7726356343879043e+18,6.332904296875,1.5521109104156494,-3.113065719604492,-5.719290256500244,-0.6004091501235962,-0.1816274374723434,-1.2026824951171875
1.772635634407897e+18,6.35289697265625,2.045868158340454,-7.239238739013672,-4.919863700866699,-0.2909500896930694,-0.064182125031948,-0.6953507661819458
1.7726356344278897e+18,6.3728896484375,2.1808900833129883,-8.76138973236084,-8.79605484008789,-0.2185121774673462,0.1986716538667678,-0.1334242522716522
1.7726356344478825e+18,6.392882568359375,2.694462537765503,-8.032880783081055,-8.974678993225098,-0.1655153185129165,0.3033337891101837,-0.0934768766164779
1.7726356344678753e+18,6.412875244140625,1.8914425373077397,-9.949503898620604,-8.289411544799805,0.1553953140974044,0.1739042699337005,-0.103330560028553
1.7726356344878682e+18,6.4328681640625,0.4435734152793884,-11.847023010253906,-8.126693725585938,0.4363585710525512,0.0418115928769111,-0.0332894846796989
1.7726356345078607e+18,6.45286083984375,0.9732066988945008,-11.260167121887209,-8.53798770904541,0.46485435962677,0.0039947382174432,-0.0215715859085321
1.7726356345278536e+18,6.472853515625,1.805838108062744,-9.12334156036377,-9.466065406799316,0.3231743276119232,0.0950747728347778,-0.0170442163944244
1.7726356345478464e+18,6.492846435546875,1.7907063961029053,-7.045125961303711,-7.883667945861816,0.1282310932874679,0.1930790096521377,-0.0343547500669956
1.772635634567839e+18,6.5128388671875,1.5556765794754028,-4.994183540344238,-4.39794921875,-0.0467384383082389,0.234624296426773,-0.1115863546729087
1.7726356345878318e+18,6.532831787109375,0.8350545763969421,-2.513874053955078,-1.390333652496338,-0.2435458749532699,0.2415485084056854,-0.2729737758636474
1.7726356346078246e+18,6.55282470703125,-0.0810691565275192,-0.2904796600341797,1.7353235483169556,-0.3844269812107086,0.2958769500255584,-0.4724443852901459
1.7726356346278172e+18,6.572817138671875,-1.0469825267791748,2.0885262489318848,3.729326486587525,-0.0888163447380065,0.3099916875362396,-0.5366265177726746
1.772635634667803e+18,6.612802978515625,-1.0811387300491333,7.810566902160644,4.861948490142822,0.3452785313129425,0.2031990140676498,-0.4751075208187103
1.7726356346877955e+18,6.63279541015625,-1.198426604270935,9.614309310913086,5.775481700897217,0.6715154647827148,-0.1776326894760131,-0.2599242925643921
1.7726356347077883e+18,6.652788330078125,-0.3314456343650818,10.552218437194824,6.669198513031006,0.8483492136001587,-0.4170506596565246,0.6974812746047974
1.772635634727781e+18,6.672781005859375,0.6597603559494019,11.066494941711426,6.974024772644043,0.2246374487876892,-0.3619232773780823,1.9616827964782717
1.772635634747774e+18,6.69277392578125,0.1391739547252655,11.557971000671388,6.385441780090332,0.0155794788151979,-0.320910632610321,1.8327858448028564
1.7726356347677665e+18,6.7127666015625,-0.5732144117355347,10.87761688232422,5.072928428649902,0.574043869972229,0.4170506596565246,1.3741899728775024
1.7726356347877594e+18,6.73275927734375,-0.8003166913986206,9.124205589294434,4.544496536254883,0.6512755155563354,0.2777674496173858,0.7057371139526367
1.7726356348077522e+18,6.752752197265625,-0.9067403078079224,7.218702793121338,4.264133930206299,0.3372890651226043,0.1355547904968261,0.5411538481712341
1.7726356348277448e+18,6.772744873046875,-0.7664817571640015,6.667145729064941,3.238486289978028,0.3143858909606933,0.2130527049303054,0.527039110660553
1.7726356348677304e+18,6.81273046875,-0.5835172533988953,7.681923866271973,1.5638190507888794,0.1253016293048858,0.2338253408670425,0.3802990913391113
1.7726356348877245e+18,6.832724609375,-0.2958543598651886,7.236843109130859,1.9992377758026123,0.0768321305513382,0.3933485448360443,-0.0633831769227981
1.7726356349077187e+18,6.85271875,1.015743851661682,6.336435317993164,4.114990234375,0.0454068593680858,0.189883217215538,-0.0860200300812721
1.7726356349277128e+18,6.872712646484375,0.8564151525497437,5.589461326599121,4.120093822479248,-0.1431447863578796,-0.3246390521526336,0.246342197060585
1.772635634967701e+18,6.912700927734375,0.6913936138153076,-2.50189208984375,1.0403776168823242,-0.3716438114643097,-0.5731117725372314,0.1342232078313827
1.7726356349876948e+18,6.93269482421875,1.9118883609771729,-10.736737251281738,-4.648802757263184,-0.668586015701294,-0.5289033651351929,-0.5403549075126648
1.772635635007689e+18,6.95268896484375,1.0580154657363892,-13.078964233398438,-7.950800895690918,-0.9293092489242554,-0.3379548490047455,-1.1217224597930908
1.772635635027683e+18,6.97268310546875,-1.0029057264328003,-6.796592712402344,-4.414040565490723,-1.023052453994751,-0.2122537642717361,-1.302551031112671
1.7726356350676713e+18,7.01267138671875,4.33485221862793,-5.132312774658203,-8.36166000366211,-0.8832366466522217,-0.1802958548069,-1.0873677730560305
1.7726356350876654e+18,7.03266552734375,3.988802909851074,-9.251452445983888,-13.237244606018066,-0.5482112169265747,-0.1166463568806648,-0.549143373966217
1.7726356351076595e+18,7.052659423828125,2.425349235534668,-8.93195629119873,-12.330669403076172,-0.2659164071083069,-0.1611211150884628,0.0948084518313407
1.7726356351276536e+18,7.072653564453125,2.465656042098999,-8.901906967163086,-7.872451782226562,-0.2664490342140198,-0.2356895506381988,0.5086633563041687
1.7726356351476477e+18,7.092647705078125,1.9788613319396973,-12.218213081359863,-6.006247997283936,-0.2850911617279053,-0.1209074109792709,0.459128588438034
1.772635635187636e+18,7.132635986328125,-0.1922948360443115,-11.532715797424316,-5.286568641662598,-0.1782984882593155,-0.1254347860813141,0.1408811062574386
1.77263563520763e+18,7.152630126953125,0.8874301314353943,-7.419476509094238,-5.227461814880371,0.1340900510549545,-0.1579253226518631,-0.1976063847541809
1.7726356352276242e+18,7.172624267578125,1.431082010269165,-4.644667625427246,-5.132540702819824,0.4265048801898956,-0.0748347640037536,-0.1976063847541809
1.7726356352476183e+18,7.192618408203125,0.8809597492218018,-1.9973268508911133,-3.162829160690308,0.46485435962677,-0.0367515906691551,-0.1525990068912506
1.7726356352676124e+18,7.2126123046875,-0.1076455116271972,0.5585622787475586,0.0824267864227294,0.205462709069252,-0.1350221484899521,-0.2250369191169738
1.7726356352876065e+18,7.2326064453125,-1.1732439994812012,3.320401668548584,2.774181604385376,-0.1378184705972671,-0.2703106105327606,-0.227433755993843
1.7726356353076006e+18,7.2526005859375,-1.3708510398864746,6.502528190612793,4.470770359039307,-0.0392815917730331,-0.020240006968379,-0.2466085106134414
1.7726356353275948e+18,7.2725947265625,-1.4484301805496216,10.013113975524902,5.87973165512085,0.0203731656074523,0.2769685089588165,-0.3813643455505371
1.772635635367583e+18,7.3125830078125,-0.7767083644866943,13.548295974731444,7.767454147338867,-0.0936100333929061,0.2862895727157593,-0.6729802489280701
1.7726356354075707e+18,7.35257080078125,-0.2641561031341553,11.460124015808104,4.0895843505859375,-0.02569948323071,0.0402136966586113,-0.8111981749534607
1.7726356354275645e+18,7.372564453125,0.2960902452468872,9.36528205871582,4.252772331237793,0.3775027692317962,0.0258326400071382,-0.4644548892974853
1.7726356354475584e+18,7.392558349609375,-0.0436836592853069,8.090932846069336,3.9987757205963135,0.5996102094650269,-0.2796316742897033,0.0213052704930305
1.7726356354675523e+18,7.41255224609375,-0.3163260519504547,7.152260780334473,3.072938680648804,0.3439469635486603,-0.6908233761787415,1.0157287120819092
1.772635635487546e+18,7.432546142578125,-0.3043552339076996,6.144407272338867,2.3055577278137207,-0.035020537674427,-0.2841590344905853,1.5638068914413452
1.77263563550754e+18,7.4525400390625,-0.233456939458847,6.214424133300781,2.1326966285705566,0.2227732390165329,0.5366265177726746,1.195225715637207
1.7726356355275338e+18,7.472533935546875,-0.3467756509780884,7.370781898498535,2.212984800338745,0.9447556138038636,0.9171919226646424,1.638641595840454
1.7726356355475277e+18,7.492527587890625,-0.5911793112754822,8.2724609375,2.3708903789520264,1.2563451528549194,0.1131842508912086,2.111884832382202
1.7726356355675215e+18,7.512521484375,0.5622071623802185,7.544002056121826,2.415817975997925,0.4635227918624878,-0.636228621006012,1.5108100175857544
1.7726356355875154e+18,7.532515380859375,-0.3462706208229065,4.900432109832764,3.682351112365722,-0.2435458749532699,-0.5890907049179077,0.0476705431938171
1.7726356356075092e+18,7.55250927734375,0.5630674362182617,1.1193723678588867,3.90650486946106,-0.4430164694786072,-0.4572643637657165,-0.8442213535308838
1.772635635627503e+18,7.572503173828125,2.7641632556915283,-3.8552284240722656,-1.05029296875,-0.4099932909011841,-0.2146506011486053,-0.8660592436790466
1.7726356356674906e+18,7.612490478515625,-1.5876835584640503,-14.241155624389648,-7.758031845092773,-0.2222405970096588,0.1038631945848465,-0.480433851480484
1.7726356356874844e+18,7.632484375,-0.6313958764076233,-1.4095525741577148,-6.784848213195801,0.0512658059597015,0.3635211884975433,0.0500673875212669
1.7726356357074783e+18,7.652478271484375,3.520012378692627,-1.5835332870483398,-8.218719482421875,0.1071921437978744,0.3933485448360443,0.2431464046239853
1.772635635727472e+18,7.67247216796875,4.921926021575928,-7.706437110900879,-12.360540390014648,-0.1631184816360473,0.2673811316490173,-0.1930790096521377
1.772635635747466e+18,7.692466064453125,2.410151720046997,-10.21618938446045,-15.274618148803713,-0.5346291065216064,0.1278316229581833,-0.8828371167182922
1.7726356357674598e+18,7.7124599609375,1.286004900932312,-10.810992240905762,-10.50865364074707,-0.796151340007782,-0.140614777803421,-1.317198395729065
1.7726356357874537e+18,7.73245361328125,1.2754058837890625,-11.125571250915527,-6.955935478210449,-0.8483492136001587,-0.4157190918922424,-1.3952288627624512
1.7726356358074476e+18,7.752447509765625,1.3925535678863523,-11.958210945129396,-7.203701972961426,-0.6438186168670654,-0.5286370515823364,-1.091362476348877
1.7726356358274414e+18,7.77244140625,1.0009369850158691,-9.685068130493164,-8.476133346557617,-0.4430164694786072,-0.3392864465713501,-0.4332959353923797
1.7726356358474353e+18,7.792435302734375,1.756883144378662,-7.101633071899414,-6.882923126220703,-0.4400869905948639,0.0545947551727294,0.0327568538486957
1.772635635867429e+18,7.81242919921875,1.7752559185028076,-5.826017379760742,-4.336390495300293,-0.403868019580841,0.3555316925048828,-0.0617852844297885
1.7726356358874212e+18,7.832421142578125,0.6900793313980103,-3.207895278930664,-2.32954216003418,-0.0073236869648098,0.4844285845756531,-0.2700442969799042
1.772635635907413e+18,7.8524130859375,0.6245983839035034,-0.4790115356445312,0.0679407119750976,0.3921501338481903,0.4316980540752411,-0.1669800579547882
1.7726356359274048e+18,7.87240478515625,0.1861604452133178,1.8577613830566408,2.683212280273437,0.5724459886550903,0.2047969102859497,0.0245010610669851
1.7726356359473966e+18,7.892396728515625,-0.5621923208236694,5.064616680145264,3.5962634086608887,0.5415533185005188,0.2095905989408493,0.1832253336906433
1.7726356359873802e+18,7.932380126953125,-1.9529465436935425,11.412762641906738,5.259617805480957,0.4057322442531585,0.2852243185043335,0.2652506232261657
1.772635636007372e+18,7.9523720703125,-1.921370506286621,12.607731819152832,6.423442840576172,0.2502037584781647,0.3310306370258331,0.2332927137613296
1.7726356360273638e+18,7.97236376953125,-0.4855007529258728,12.146157264709473,6.650456428527832,0.0390152782201767,0.2982738018035888,0.0711063370108604
1.7726356360473554e+18,7.99235546875,0.8159745931625366,10.902070999145508,5.68633508682251,-0.1764342784881591,0.3435474932193756,-0.239151656627655
1.7726356360673475e+18,8.012347412109374,0.920003354549408,9.94226360321045,4.785632133483887,-0.3540669679641723,0.4791022837162018,-0.5731117725372314
1.772635636087339e+18,8.032339111328126,0.3653148114681244,9.219181060791016,4.476871490478516,-0.0861531868577003,0.5584644079208374,-0.7206507921218872
1.7726356361073308e+18,8.052330810546875,-0.4460591375827789,8.42281436920166,4.020725250244141,0.3111900985240936,0.4897549152374267,-0.8759129047393799
1.7726356361273226e+18,8.072322509765625,-0.5735532641410828,7.267770290374756,3.0732996463775635,0.7407576441764832,0.0143810575827956,-0.8700540065765381
1.7726356361473144e+18,8.092314453125,-0.4383905827999115,6.209994316101074,2.513389587402344,1.0510156154632568,-0.453003317117691,0.1664474308490753
1.7726356361673062e+18,8.11230615234375,-0.8232571482658386,6.543234825134277,3.0061404705047607,0.6528733968734741,-0.0857537165284156,2.0125491619110107
1.772635636187298e+18,8.132298095703124,-0.3377633690834045,7.958401679992676,3.0590102672576904,0.1229047775268554,-0.1246358305215835,2.1710071563720703
1.7726356362072899e+18,8.152289794921876,-0.3713204562664032,8.81978988647461,2.8538217544555664,0.5796365141868591,0.4492748975753784,2.2122859954833984
1.7726356362272817e+18,8.17228173828125,0.7167297601699829,6.6892266273498535,3.2952098846435547,1.1599388122558594,0.436225414276123,2.5976450443267822
1.7726356362472735e+18,8.1922734375,-0.3370687961578369,2.1231064796447754,4.05678653717041,0.5599291324615479,-0.4929507076740265,2.0679428577423096
1.7726356362672653e+18,8.212265380859375,1.6357303857803345,-3.915019035339356,2.4063405990600586,-0.1215732023119926,-0.3379548490047455,0.5693833827972412
1.772635636287257e+18,8.232257080078124,0.7460324764251709,-11.570764541625977,-3.9188425540924072,-0.330364853143692,-0.0828242376446724,-0.918257176876068
1.772635636307249e+18,8.252248779296876,0.3759074211120605,-12.725173950195312,-8.820545196533203,-0.3032006323337555,0.1161137223243713,-1.1478214263916016
1.7726356363272407e+18,8.27224072265625,-0.3716865479946136,-4.929183006286621,-6.471388339996338,-0.2254363894462585,0.0937431901693344,-0.6479465365409851
1.7726356363472325e+18,8.292232421875,0.784243643283844,-2.131394386291504,-6.681834697723389,-0.2363553494215011,-0.020240006968379,0.0988031923770904
1.7726356363672243e+18,8.312224365234375,4.358931064605713,-5.558416366577148,-11.382404327392578,-0.2265016585588455,-0.152865320444107,0.3416832685470581
1.7726356363872166e+18,8.332216552734375,4.96343994140625,-9.595658302307127,-14.97822093963623,-0.3237069547176361,-0.1747032105922699,-0.1976063847541809
1.772635636407209e+18,8.352208984375,2.3710639476776123,-12.854177474975586,-12.771257400512695,-0.5229112505912781,0.1075916141271591,-0.9635308384895324
1.772635636427201e+18,8.372200927734376,1.5773391723632812,-12.97646427154541,-8.498892784118652,-0.6890923380851746,0.2522011399269104,-1.36167311668396
1.7726356364471933e+18,8.392193359375,1.7696425914764404,-12.114130020141602,-6.840480804443359,-0.8142607808113098,0.1265000402927398,-1.539838433265686
1.7726356364671857e+18,8.412185546875,1.5637352466583252,-11.260655403137209,-7.349519729614258,-0.7535408139228821,-0.0679105520248413,-1.3563467264175415
1.772635636487178e+18,8.432177978515625,1.570508599281311,-9.521153450012209,-7.170269012451172,-0.5098617672920227,-0.2058621793985366,-0.7310370802879333
1.7726356365071703e+18,8.45217041015625,1.4350446462631226,-5.6266374588012695,-5.518723487854004,-0.3876227736473083,-0.2500706017017364,0.0801610797643661
1.7726356365271624e+18,8.472162353515625,0.7883379459381104,-2.116924285888672,-2.850503921508789,-0.3378216922283172,-0.097471609711647,0.5067991018295288
1.7726356365471547e+18,8.49215478515625,0.2632852494716644,0.2108850479125976,-0.4502081871032715,-0.149003729224205,0.0564589649438858,0.2545979917049408
1.772635636567147e+18,8.51214697265625,-0.4803304672241211,2.326021671295166,1.419597625732422,0.0760331824421882,-0.0671116039156913,-0.141680046916008
1.7726356365871393e+18,8.532139404296874,-1.2540982961654663,4.946880340576172,3.0422263145446777,0.1910816431045532,-0.2537990212440491,-0.2569948136806488
1.7726356366071316e+18,8.552131591796876,-1.281582951545715,7.893145561218262,4.350044250488281,0.1362205743789672,-0.3824295997619629,-0.1816274374723434
1.772635636627124e+18,8.5721240234375,-1.1207826137542725,10.254948616027832,5.64942741394043,-0.0131826363503932,-0.3978759348392486,-0.0961400344967842
1.772635636647116e+18,8.592115966796875,-1.2196608781814575,11.954633712768556,6.712201118469238,-0.0241015870124101,-0.3006706237792969,-0.0876179262995719
1.7726356366671084e+18,8.6121083984375,-0.6426579356193542,13.040882110595703,6.489394187927246,0.0097205294296145,-0.1786979585886001,-0.1462074220180511
1.7726356366871007e+18,8.6321005859375,-0.2182760685682296,12.769225120544434,5.237043380737305,-0.2067942768335342,-0.0159789528697729,-0.2266348153352737
1.772635636707093e+18,8.652093017578125,0.0299759954214096,11.234753608703612,4.254188537597656,-0.4565985798835754,0.0812263414263725,-0.2292979806661605
1.7726356367270853e+18,8.672085205078124,0.0832059010863304,9.449641227722168,4.311748504638672,-0.4494080543518066,0.2404832392930984,-0.2181127071380615
1.7726356367470774e+18,8.692077392578126,-0.2859084606170654,8.232648849487305,3.8108818531036377,0.1077247709035873,0.1531316339969635,-0.4372906684875488
1.772635636787062e+18,8.73206201171875,-0.320439338684082,7.0687665939331055,2.17493200302124,0.4978775382041931,0.0548610724508762,-0.7858981490135193
1.7726356368070543e+18,8.752054443359375,-0.1411031633615493,7.273185729980469,2.392396926879883,0.9793766736984252,-0.3486074805259704,-0.6748444437980652
1.7726356368270467e+18,8.772046630859375,0.0355344116687774,7.672931671142578,2.8562042713165283,0.6856302618980408,-0.4237085580825805,0.3949464559555053
1.7726356368470387e+18,8.792038818359375,0.0224652588367462,6.325639247894287,3.2681288719177246,0.121839515864849,-0.0444747507572174,1.6082816123962402
1.772635636867031e+18,8.812031005859374,0.1963368058204651,2.3919239044189453,3.716978073120117,0.4051996171474457,0.5225117802619934,1.8666080236434937
1.7726356368870239e+18,8.83202392578125,0.2352142035961151,-2.39993667602539,3.130180835723877,0.8430229425430298,0.7712507843971252,2.0117502212524414
1.772635636907017e+18,8.852016845703124,1.584373950958252,-10.958745002746582,-1.555097579956055,0.9924261569976808,0.0961400344967842,1.9656774997711184
1.7726356369270098e+18,8.872009765625,1.2210514545440674,-15.99160861968994,-11.106389045715332,0.5119922757148743,-0.6050696969032288,1.1715235710144043
1.7726356369470026e+18,8.892002685546874,-0.1291183680295944,-4.59962272644043,-8.283434867858887,-0.231827974319458,-0.533164381980896,-0.1206410974264144
1.7726356369869885e+18,8.931988525390626,2.267800807952881,-4.561711311340332,-6.256846904754639,-0.422776460647583,-0.1928126960992813,-0.7688539624214172
1.7726356370069814e+18,8.9519814453125,2.405014514923096,-5.816860198974609,-8.855554580688477,-0.1026647686958313,0.1051947697997093,-0.7507444620132446
1.7726356370269745e+18,8.971974365234376,2.3856587409973145,-2.7978620529174805,-8.124214172363281,-0.0981374010443687,0.1864211112260818,-0.3451453745365143
1.7726356370469673e+18,8.99196728515625,2.178362846374512,-4.272595405578613,-4.517280578613281,-0.2491385042667389,0.0961400344967842,-0.086818978190422
1.7726356370669601e+18,9.011960205078124,0.643733024597168,-5.998326301574707,-4.314929962158203,-0.2267679721117019,-0.064981073141098,-0.043409489095211
1.772635637106946e+18,9.051946044921875,0.5081544518470764,-4.976506233215332,-3.560187578201294,-0.252600610256195,-0.1901495456695556,-0.1925463825464248
1.772635637126939e+18,9.07193896484375,0.31480473279953,-2.4830799102783203,-3.309509515762329,-0.412123829126358,-0.3246390521526336,-0.4668517410755157
1.772635637146932e+18,9.091931884765623,0.9225748777389526,-0.1970701217651367,-2.772085189819336,-0.6302365064620972,-0.4498075246810913,-0.766190767288208
1.7726356371869176e+18,9.131917724609377,0.6842495799064636,1.128468036651611,-1.6709065437316897,-0.678439736366272,-0.3725759088993072,-0.9470192790031432
1.7726356372069107e+18,9.15191064453125,0.3629150986671448,1.854316234588623,-0.8685586452484131,-0.5410206913948059,-0.1906821727752685,-0.8311718702316284
1.7726356372269036e+18,9.171903564453125,0.0345905423164367,2.2087883949279785,0.5601913928985596,-0.4462122619152069,-0.043409489095211,-0.5241096615791321
1.7726356372468966e+18,9.191896728515625,-0.393129825592041,2.215116500854492,1.5725862979888916,-0.4392880499362945,0.1877526938915252,-0.3078611493110657
1.7726356372868823e+18,9.23188232421875,-0.4749692380428314,2.295623302459717,2.340066909790039,-0.2233058661222458,0.4213117361068725,-0.262054830789566
1.7726356373068754e+18,9.25187548828125,-0.3355767130851745,2.580904006958008,1.772903561592102,0.1761679500341415,0.5757749080657959,-0.3464769721031189
1.7726356373268682e+18,9.2718681640625,0.0440922975540161,2.815771102905273,0.999258041381836,0.363920658826828,0.5438170433044434,-0.2953443229198456
1.772635637346861e+18,9.291861083984376,0.3498871326446533,2.6483936309814453,0.5739822387695312,0.2629869282245636,0.3784348666667938,-0.2090579718351364
1.7726356373868485e+18,9.3318486328125,-0.000525951385498,1.5529561042785645,0.4359042644500732,0.1245026737451553,0.2998716831207275,-0.1094558238983154
1.7726356374068431e+18,9.351843017578124,-0.0175821185111999,0.6552438735961914,0.2682640552520752,0.003328948514536,0.1763011068105697,0.0018642111681401
1.7726356374268378e+18,9.371837646484376,-0.1691559553146362,-0.3730220794677734,0.1079661846160888,-0.0603205487132072,0.0849547684192657,0.0498010702431201
1.7726356374468324e+18,9.391832275390623,-0.5547729730606079,-1.108407974243164,0.0945312976837158,-0.1753690093755722,0.0972052961587905,0.0388821177184581
1.7726356374868214e+18,9.4318212890625,0.1819363832473755,0.632904052734375,0.1490523815155029,-0.3316964209079742,0.2793653607368469,-0.0876179262995719
1.772635637506816e+18,9.45181591796875,0.5430977940559387,1.1857247352600098,0.1968896389007568,-0.2075932323932647,0.457530677318573,-0.3760380148887634
1.7726356375268106e+18,9.471810546875,0.6391499042510986,1.1681509017944336,-0.1323845386505127,0.3202448487281799,0.5083970427513123,-0.673512876033783
1.7726356375468052e+18,9.49180517578125,0.5414849519729614,0.7551498413085938,-0.4908139705657959,0.8824376463890076,0.2399506121873855,-0.5920202136039734
1.7726356375667996e+18,9.511799560546876,0.1524721980094909,0.3897886276245117,-0.7557523250579834,1.2097399234771729,-0.3328948616981506,0.4945485889911651
1.7726356375867942e+18,9.531794189453125,-0.1378859877586364,0.4693231582641601,-0.8415255546569824,0.3535343408584595,-0.7166560292243958,2.275402784347534
1.7726356376067889e+18,9.551788818359377,-0.0363224744796752,0.8016595840454102,-0.9334897994995116,0.357795387506485,-0.3789674937725067,2.5041682720184326
1.7726356376267835e+18,9.571783447265624,0.2024329900741577,0.923748016357422,-1.0045194625854492,0.5572659969329834,0.3848264515399933,2.510826110839844
1.772635637646778e+18,9.591778076171876,0.4929498434066772,0.7564678192138672,-1.0648868083953855,0.7309039235115051,0.1027979329228401,1.7888437509536743
1.7726356376667725e+18,9.6117724609375,0.570064127445221,0.4671134948730469,-0.9620757102966307,0.5423523187637329,-0.3464769721031189,0.7882950305938721
1.7726356377067617e+18,9.65176171875,0.6512349843978882,0.8953781127929688,-1.1689066886901855,0.1503353118896484,-0.2095905989408493,0.2636527121067047
1.7726356377267564e+18,9.67175634765625,0.6429031491279602,0.8556509017944336,-0.7870264053344727,-0.2278332412242889,-0.2324937582015991,-0.1225053071975708
1.772635637746751e+18,9.6917509765625,0.5454481840133667,0.6576614379882812,-0.9371087551116944,-0.2576606273651123,-0.1496695280075073,-0.4442148804664612
1.7726356377667456e+18,9.71174560546875,0.575923502445221,0.4364309310913086,-1.3597099781036377,0.0747016072273254,-0.070840023458004,-0.0282294824719429
1.7726356378067346e+18,9.751734619140626,0.3074344396591186,0.6056499481201172,-1.0440104007720947,0.0185089539736509,-0.0141147412359714,0.4127896130084991
1.7726356378267292e+18,9.771729248046874,0.479198694229126,0.7650299072265625,-1.039297342300415,0.0739026591181755,-0.0572579130530357,0.5688506960868835
1.7726356378467238e+18,9.791723876953125,0.4801278710365295,0.6746683120727539,-0.8506989479064941,0.1237037256360054,-0.3028011620044708,0.2820285260677337
1.7726356378667185e+18,9.811718505859377,0.2945370674133301,0.6360397338867188,-0.8300342559814453,-0.1583247929811477,-0.4647212028503418,-0.2356895506381988
1.7726356378867116e+18,9.831711669921877,0.3061373829841614,0.4288101196289062,-0.44252610206604,-0.4888227880001068,-0.4977443814277649,-0.6282391548156738
1.772635637906705e+18,9.851704833984376,-0.0376448631286621,0.5181112289428711,-0.59633469581604,-0.5759080648422241,-0.4748412072658539,-0.8191876411437988
1.772635637926698e+18,9.871697998046876,0.0541491508483886,0.6155719757080078,-0.8444080352783203,-0.4523375332355499,-0.442350685596466,-0.7355644702911377
1.772635637946691e+18,9.891691162109376,0.2440000772476196,0.7143373489379883,-0.9240059852600098,-0.2376869171857834,-0.3829622268676758,-0.4447475075721741
1.7726356379866775e+18,9.931677490234376,0.3336265683174133,0.7287969589233398,-1.0735650062561035,-0.0323573797941207,-0.3499390780925751,-0.0892158225178718
1.7726356380066706e+18,9.951670654296874,0.2280951738357544,0.5344552993774414,-1.1186928749084473,0.0978710874915123,-0.2436790317296981,0.1302284598350525
1.7726356380266637e+18,9.97166357421875,0.1509707570075988,0.4176054000854492,-1.182791233062744,0.1545963734388351,-0.0788294970989227,0.1653821617364883
1.772635638046657e+18,9.991656982421874,0.1718705892562866,0.3294315338134765,-1.1098694801330566,0.149003729224205,-0.0197073742747306,0.0745684504508972
1.7726356380866432e+18,10.031643310546874,0.0555635690689086,0.6558732986450195,-0.8950161933898926,0.0757668688893318,-0.0151800047606229,-0.0474042259156703
1.7726356381066365e+18,10.051636474609374,0.165216863155365,0.6209745407104492,-0.8462119102478027,-0.0443415939807891,-0.070840023458004,-0.1651158481836319
1.7726356381266296e+18,10.071629638671874,0.2092785239219665,0.4848928451538086,-0.9010729789733888,-0.0709731802344322,-0.1336905658245086,-0.1978726983070373
1.7726356381466227e+18,10.091622802734374,0.1578169465065002,0.2817649841308594,-0.9112093448638916,0.0097205294296145,-0.1669800579547882,-0.0884168744087219
1.7726356381666158e+18,10.11161572265625,0.115216314792633,0.2472467422485351,-0.8635232448577881,0.0752342343330383,-0.1038631945848465,0.0948084518313407
1.7726356381866092e+18,10.131609130859376,0.0652183890342712,0.4488973617553711,-0.7876949310302734,0.1181110963225364,0.0364852771162986,0.2500706017017364
1.7726356382066022e+18,10.151602294921876,0.0794206857681274,0.5123453140258789,-0.7789335250854492,0.1777658462524414,0.3635211884975433,0.1488705724477768
1.7726356382265953e+18,10.17159521484375,0.063758373260498,0.4131851196289062,-0.6937732696533203,0.1649826914072036,0.4141211807727813,0.0428768582642078
1.7726356382465887e+18,10.191588623046876,0.1546518802642822,0.4675683975219726,-0.7193703651428223,0.1492700576782226,0.3744401335716247,-0.0311589576303958
1.7726356382665818e+18,10.211581787109376,0.116357684135437,0.5109329223632812,-0.756127119064331,0.0794952884316444,0.3645864427089691,-0.0878842398524284
1.7726356382865748e+18,10.231574951171876,0.1884196102619171,0.3915042877197265,-0.7353575229644775,0.0171773750334978,0.4330296218395233,-0.1432779431343078
1.7726356383065682e+18,10.251568115234376,0.1861245334148407,0.4482994079589844,-0.8010611534118652,0.0272973775863647,0.4857601523399353,-0.1989379674196243
1.7726356383265613e+18,10.271561279296876,0.2552092373371124,0.5056934356689453,-0.8333384990692139,0.0581900216639041,0.4868254363536834,-0.2031990140676498
1.7726356383465544e+18,10.291554443359376,0.1981286406517028,0.4001665115356445,-0.8497908115386963,0.0914795026183128,0.4412854015827179,-0.1589905768632888
1.7726356383665475e+18,10.31154736328125,0.167352020740509,0.3517322540283203,-0.756791353225708,0.0757668688893318,0.3787011802196502,-0.129962146282196
1.7726356384065329e+18,10.351532958984375,0.1882871687412262,0.4876298904418945,-0.7955896854400635,0.0454068593680858,0.3363569676876068,-0.0937431901693344
1.7726356384265254e+18,10.371525390625,0.1846150159835815,0.4428539276123047,-0.7709898948669434,0.0507331751286983,0.3257043361663818,-0.0612526535987854
1.7726356384465183e+18,10.391518310546877,0.1090196073055267,0.4413490295410156,-0.8373510837554932,0.0387489609420299,0.2783001065254211,-0.0665789693593978
1.7726356384665108e+18,10.4115107421875,0.2263588905334472,0.3646974563598633,-0.7640302181243896,0.0110521093010902,0.2519348263740539,-0.0655137076973915
1.7726356384865037e+18,10.431503662109376,0.2188696861267089,0.3927335739135742,-0.8001093864440918,0.0307594835758209,0.2476737648248672,-0.0788294970989227
1.7726356385064963e+18,10.451496337890624,0.1246232390403747,0.4528999328613281,-0.8190903663635254,0.0600542314350605,0.2053295373916626,-0.1384842544794082
1.7726356385264888e+18,10.47148876953125,0.1327409148216247,0.4230527877807617,-0.8324887752532959,0.0669784471392631,0.1789642721414566,-0.1667137444019317
1.7726356385464817e+18,10.491481689453124,0.2520712018013,0.4030523300170898,-0.7528829574584961,0.0885500311851501,0.1699095368385315,-0.1235705688595771
1.7726356385664742e+18,10.51147412109375,0.1622399091720581,0.4029998779296875,-0.7292299270629883,0.0797616094350814,0.129962146282196,-0.1094558238983154
1.772635638586467e+18,10.531467041015626,0.1478496491909027,0.4267091751098633,-0.7382137775421143,0.0802942365407943,0.1600558459758758,-0.1001347750425338
1.7726356386064596e+18,10.551459716796876,0.1553708612918853,0.4644966125488281,-0.695439338684082,0.0920121371746063,0.1525990068912506,-0.1460742652416229
1.7726356386264522e+18,10.5714521484375,0.219327688217163,0.454965591430664,-0.6943295001983643,0.0861531868577003,0.1962748020887375,-0.1533979475498199
1.772635638646445e+18,10.591445068359375,0.0773056745529174,0.4340314865112304,-0.7665724754333496,0.0589889660477638,0.2037316560745239,-0.1145158261060714
1.7726356386664376e+18,10.611437744140623,0.0984736382961273,0.3788223266601562,-0.7360663414001465,0.0411458052694797,0.1810947954654693,-0.0516652800142765
1.7726356386864305e+18,10.631430419921877,0.1622736752033233,0.3627614974975586,-0.7120132446289062,0.0504668578505516,0.1640505790710449,0.0050600017420947
1.772635638706423e+18,10.651423095703125,0.1508475244045257,0.4571361541748047,-0.7003486156463623,0.0483363308012485,0.1131842508912086,0.0255663245916366
1.7726356387264156e+18,10.67141552734375,0.1735405027866363,0.4896678924560547,-0.7456672191619873,0.0163784269243478,0.065247394144535,0.0210389550775289
1.7726356387464084e+18,10.691408447265625,0.1766170859336853,0.3976154327392578,-0.7749795913696289,-0.003328948514536,0.0527305454015731,0.0218379013240337
1.772635638766401e+18,10.711401123046874,0.1550348103046417,0.3914632797241211,-0.7572002410888672,-0.0051931599155068,0.0189084280282259,0.0122505305334925
1.7726356388063864e+18,10.751386474609374,0.1376842856407165,0.4746026992797851,-0.7801506519317627,-0.0451405420899391,0.0090547399595379,0.0205063223838806
1.772635638826379e+18,10.77137890625,0.1491582095623016,0.2961235046386719,-0.8679306507110596,-0.0565921254456043,-0.0026631588116288,0.0186421126127243
1.7726356388463718e+18,10.791371826171876,0.1892652511596679,0.3186054229736328,-0.8697943687438965,-0.0624510757625103,-0.0074568446725606,0.0319579057395458
1.7726356388663644e+18,10.811364501953124,0.2135345637798309,0.5040884017944336,-0.6909997463226318,-0.0699079185724258,-0.0226368494331836,0.0362189598381519
1.7726356388863575e+18,10.831357421875,0.2314850389957428,0.5749416351318359,-0.6194164752960205,-0.0645816028118133,-0.0247673764824867,0.0055926335044205
1.7726356389063508e+18,10.851350830078124,0.2030625641345977,0.491830825805664,-0.7087657451629639,-0.072571076452732,-0.0143810575827956,-0.0178431645035743
1.7726356389263442e+18,10.87134423828125,0.1943264901638031,0.3711910247802734,-0.7436544895172119,-0.0805605575442314,0.0029294746927917,-0.0143810575827956
,,,,,-0.0994689837098121,0.0146473739296197,-0.0189084280282259
,,,,,-0.0896152928471565,0.0295610632747411,-0.0181094799190759
,,,,,-0.0600542314350605,0.0343547500669956,-0.0015978952869772
,,,,,-0.0531300194561481,-0.0007989476434886,0.0
,,,,,-0.0336889587342739,0.0050600017420947,-0.0063915811479091
,,,,,-0.0206394810229539,-0.011185267008841,-0.0069242129102349
,,,,,-0.0416784361004829,-0.0245010610669851,0.0063915811479091
,,,,,-0.0533963330090045,-0.0205063223838806,0.0037284223362803
,,,,,-0.0491352789103984,-0.0042610540986061,0.0109189506620168
,,,,,-0.0411458052694797,0.0002663158811628,0.0197073742747306
,,,,,-0.03715106472373,-0.0098536871373653,0.0175768472254276
,,,,,-0.0288952738046646,-0.002130527049303,0.0125168468803167
,,,,,-0.022770008072257,-0.019441058859229,-0.0018642111681401
,,,,,-0.027830010280013,-0.0276968516409397,0.0061252652667462
,,,,,-0.0464721210300922,-0.0237021129578351,0.0189084280282259
,,,,,-0.0520647540688514,-0.0170442163944244,0.0181094799190759
,,,,,-0.0294279046356678,-0.0183757953345775,0.0002663158811628
,,,,,-0.0145142152905464,-0.0218379013240337,-0.0069242129102349
,,,,,-0.0030626326333731,-0.0205063223838806,-0.0082557927817106
,,,,,-0.0003994738217443,-0.0143810575827956,-0.0106526352465152
,,,,,0.010785792954266,-0.0186421126127243,-0.0007989476434886
,,,,,0.0139815835282206,-0.0101200034841895,0.0178431645035743
,,,,,0.0131826363503932,0.0,0.0245010610669851
,,,,,0.0139815835282206,0.0079894764348864,0.0087884236127138
,,,,,0.0121173728257417,0.0154463211074471,-0.002130527049303
,,,,,0.0113184247165918,0.0165115855634212,0.0053263176232576
,,,,,0.0113184247165918,0.0119842141866683,0.011185267008841
,,,,,0.0150468470528721,0.0125168468803167,0.0045273699797689
,,,,,0.0150468470528721,0.020240006968379,-0.0013315794058144
,,,,,0.0723047628998756,0.0199736915528774,0.0047936858609318
,,,,,0.0326236970722675,0.013315794058144,0.0015978952869772
,,,,,-0.0150468470528721,0.0015978952869772,0.0018642111681401
,,,,,-0.0603205487132072,-0.0071905287913978,0.0159789528697729
,,,,,-0.0448742248117923,-0.0029294746927917,0.0186421126127243
,,,,,0.0382163301110267,0.0087884236127138,0.0047936858609318
