time,seconds_elapsed,accel_z,accel_y,accel_x,gyro_x,gyro_y,gyro_z
1.7726356041385326e+18,0.28353271484375,-0.001931682229042,0.1017866134643554,0.0249757766723632,0.0163784269243478,0.0226368494331836,-0.0025300008710473
1.7726356041585275e+18,0.303527587890625,0.0150815546512603,0.0863723754882812,0.0322859287261962,0.0102531611919403,0.0221042186021804,0.0003994738217443
1.772635604178522e+18,0.323522216796875,0.0314124077558517,0.047027587890625,0.0443460941314697,0.0097205294296145,0.0199736915528774,0.0070573706179857
1.772635604198517e+18,0.34351708984375,-0.0181266814470291,0.0365896224975585,0.0991253852844238,0.0102531611919403,0.0149136893451213,0.0057257916778326
1.7726356042185116e+18,0.36351171875,-0.0012749508023262,0.0361309051513671,0.143378734588623,0.0099868457764387,0.0045273699797689,0.0043942118063569
1.7726356042385065e+18,0.383506591796875,0.0061931982636451,0.0505609512329101,0.1283357143402099,0.0099868457764387,-0.0007989476434886,0.0091878976672887
1.772635604258501e+18,0.403501220703125,-0.0209003686904907,0.0265312194824218,0.1286103725433349,0.010785792954266,-0.0026631588116288,0.0139815835282206
1.772635604278496e+18,0.42349609375,-0.0035538598895072,0.0258903503417968,0.134955883026123,0.0131826363503932,-0.0058589493855834,0.013715268112719
1.7726356042984906e+18,0.44349072265625,0.0006599798798561,0.0583505630493164,0.1806089878082275,0.0121173728257417,-0.0005326317623257,0.011584741063416
1.7726356043184855e+18,0.463485595703125,-0.0175636261701583,0.066741943359375,0.293560266494751,0.0145142152905464,0.0117178987711668,0.0065247388556599
1.77263560433848e+18,0.483480224609375,-0.0249123722314834,0.031686782836914,0.3874866962432861,0.0193079020828008,0.0178431645035743,-0.0001331579405814
1.772635604358475e+18,0.50347509765625,0.0007906258106231,0.0343036651611328,0.3924880027770996,0.02569948323071,0.019441058859229,0.0018642111681401
1.7726356043784686e+18,0.523468505859375,0.022171713411808,-0.0068435668945312,0.3133480548858642,0.0214384291321039,0.0266315881162881,0.0090547399595379
1.7726356043984614e+18,0.54346142578125,0.0307200998067855,-0.0371952056884765,0.2355163097381591,0.0195742174983024,0.0383494868874549,0.0146473739296197
1.7726356044184545e+18,0.56345458984375,0.0925735980272293,0.0257472991943359,0.0661520957946777,0.0214384291321039,0.0623179152607917,0.0162452682852745
1.7726356044384474e+18,0.583447265625,0.1825941950082779,-0.0192880630493164,-0.0303573608398437,0.0296942200511693,0.0905473977327346,0.0207726396620273
1.7726356044584402e+18,0.603440185546875,0.1891197711229324,-0.0295095443725585,-0.1645047664642334,0.0390152782201767,0.1214400380849838,0.0295610632747411
1.7726356044984259e+18,0.64342578125,0.2732867002487182,0.1703081130981445,-0.2471649646759033,0.0544615983963012,0.1555284708738327,0.0383494868874549
1.7726356045184187e+18,0.663418701171875,0.2388963252305984,0.1801624298095703,-0.2351138591766357,0.053928967565298,0.1739042699337005,0.0226368494331836
1.7726356045384118e+18,0.683411865234375,0.2460834681987762,0.227874755859375,-0.2939603328704834,0.0616521276533603,0.1997369080781936,-0.0063915811479091
1.7726356045584046e+18,0.703404541015625,0.2542394995689392,0.2513694763183594,-0.3037447929382324,0.094941608607769,0.2159821838140487,-0.0339552760124206
1.7726356045783974e+18,0.7233974609375,0.2714084982872009,0.2413854598999023,-0.295119047164917,0.0986700356006622,0.190948486328125,-0.0504668578505516
1.772635604618383e+18,0.763383056640625,0.2429723292589187,0.127939224243164,-0.3204703330993652,0.079228974878788,0.1448758393526077,-0.0573910735547542
1.772635604638376e+18,0.7833759765625,0.2252443581819534,0.0915307998657226,-0.2470045089721679,0.0531300194561481,0.1145158261060714,-0.0645816028118133
1.772635604658369e+18,0.803369140625,0.204352930188179,0.1455011367797851,-0.1324317455291748,0.0264984294772148,0.0945421382784843,-0.0595216006040573
1.7726356046783619e+18,0.82336181640625,0.1570447981357574,0.1649484634399414,-0.0727462768554687,0.0078563187271356,0.0633831769227981,-0.0568584389984607
1.7726356046983547e+18,0.843354736328125,0.0516532883048057,0.1132364273071289,-0.0146238803863525,-0.004660528153181,0.0263652727007865,-0.0581900216639041
1.7726356047183475e+18,0.863347412109375,0.15167897939682,0.0154886245727539,-0.037715196609497,-0.0355531685054302,-0.0442084372043609,-0.0789626613259315
1.7726356047383404e+18,0.88334033203125,0.024797610938549,0.0830287933349609,-0.1771535873413086,-0.0712395012378692,-0.0961400344967842,-0.0920121371746063
1.7726356047583334e+18,0.90333349609375,-0.031601533293724,0.2325115203857422,-0.2558772563934326,-0.0789626613259315,-0.1496695280075073,-0.0840226635336875
1.772635604798319e+18,0.943319091796875,-0.0574238300323486,-0.0181751251220703,-0.1077933311462402,-0.0549942292273044,-0.1893505901098251,-0.0701742321252822
1.772635604818312e+18,0.96331201171875,-0.3073739111423492,0.1206941604614257,-0.0405242443084716,-0.0344879068434238,-0.2207758724689483,-0.0789626613259315
1.7726356048383048e+18,0.9833046875,-0.328882098197937,0.2283916473388672,0.1245818138122558,-0.0203731656074523,-0.2434127181768417,-0.1039963513612747
1.7726356048782902e+18,1.023290283203125,-0.2397925406694412,0.1518049240112304,0.2779407501220703,-0.0384826436638832,-0.2647179961204529,-0.1378184705972671
1.772635604898282e+18,1.043281982421875,-0.1886623650789261,0.0296354293823242,0.3324124813079834,-0.0568584389984607,-0.2577937841415405,-0.1460742652416229
1.772635604918274e+18,1.063274169921875,-0.2392744123935699,0.0906295776367187,0.3342723846435547,-0.0680437088012695,-0.2783001065254211,-0.2050632238388061
1.7726356049382659e+18,1.083265869140625,-0.2701716721057892,0.2123041152954101,0.2427759170532226,-0.0619184412062168,-0.2644516825675964,-0.2109221816062927
1.772635604958258e+18,1.1032578125,-0.1147108972072601,0.0844020843505859,0.1986634731292724,-0.0557931773364543,-0.2476737648248672,-0.169643223285675
1.7726356049982418e+18,1.14324169921875,-0.0160694234073162,0.0497493743896484,0.0557999610900878,-0.0376836955547332,-0.2039979696273803,-0.0889495015144348
1.7726356050182336e+18,1.163233642578125,0.0208359435200691,0.1867589950561523,0.0703785419464111,-0.0283626411110162,-0.1592568904161453,-0.0950747728347778
1.7726356050382257e+18,1.1832255859375,0.0588539130985736,0.2851066589355469,0.0641064643859863,-0.0286289565265178,-0.1254347860813141,-0.1203747764229774
1.7726356050582175e+18,1.203217529296875,0.0782270729541778,0.2581691741943359,0.0447611808776855,-0.0384826436638832,-0.066046342253685,-0.1067926660180091
1.7726356050782095e+18,1.22320947265625,0.0337220057845115,0.1441459655761718,0.099492073059082,-0.0507331751286983,-0.0268979035317897,-0.0833568722009658
1.7726356050982013e+18,1.243201416015625,0.0570446252822876,0.1108989715576171,0.2949650287628174,-0.003328948514536,-0.0351536944508552,-0.0561926513910293
1.7726356051181934e+18,1.263193359375,0.0247517451643943,0.2200288772583007,0.3889079093933105,0.0145142152905464,-0.0524642281234264,-0.0511326491832733
1.7726356051381855e+18,1.283185546875,0.0838193520903587,0.2068538665771484,0.4894123077392578,0.0062584234401583,-0.0495347529649734,-0.037550538778305
1.7726356051581773e+18,1.30317724609375,0.1286279857158661,0.2138566970825195,0.6439156532287598,-0.0203731656074523,-0.0524642281234264,-0.0272973775863647
1.7726356051781693e+18,1.32316943359375,0.0773476511240005,0.4317483901977539,0.8236768245697021,-0.0595216006040573,-0.0412789620459079,-0.0150468470528721
1.7726356051981612e+18,1.3431611328125,0.0496810376644134,0.7137241363525391,1.125227928161621,-0.0648479163646698,-0.0444747507572174,-0.0049268435686826
1.7726356052181532e+18,1.3631533203125,-0.0112628117203712,0.8137378692626953,1.4205653667449951,-0.0225036926567554,-0.0521979108452796,0.0161121115088462
1.772635605238145e+18,1.38314501953125,-0.3593960702419281,1.206338882446289,1.4575772285461426,0.0491352789103984,-0.046338964253664,0.0552605465054512
1.772635605258137e+18,1.40313720703125,-0.4318146705627441,1.9754619598388672,1.3657622337341309,0.0717721283435821,-0.0623179152607917,0.1114531978964805
1.772635605298121e+18,1.443120849609375,-0.3671314120292663,3.2354960441589355,1.1989035606384275,0.0984037145972251,-0.0647147595882415,0.1711079478263855
1.7726356053381048e+18,1.483104736328125,-0.3663210272789001,2.1717529296875,0.7482631206512451,0.1737711131572723,-0.0772316083312034,0.2123869210481643
1.7726356053580966e+18,1.5030966796875,-0.1676630675792694,1.8276171684265137,-0.0699758529663086,0.252600610256195,-0.0724379196763038,0.2059953361749649
1.772635605398082e+18,1.54308203125,-0.0387300252914428,1.3380098342895508,-0.3395068645477295,0.2400837689638137,-0.1211737245321273,0.1274321526288986
1.7726356054380677e+18,1.583067626953125,-0.082785427570343,2.1558523178100586,-0.6329090595245361,0.1988048106431961,-0.1067926660180091,-0.0007989476434886
1.7726356054580605e+18,1.603060546875,0.5824375152587891,2.3198022842407227,-1.311690330505371,0.2027995437383651,0.0410126447677612,-0.0814926624298095
1.7726356054780534e+18,1.623053466796875,0.478737473487854,0.8849544525146484,-1.6414971351623535,0.3458111584186554,0.002130527049303,0.0830905586481094
1.7726356054980462e+18,1.643046142578125,0.1553869843482971,-1.1060447692871094,-2.19497299194336,0.3540669679641723,0.0157126374542713,0.1009337157011032
1.7726356055180375e+18,1.66303759765625,0.2068160772323608,-2.582521438598633,-2.982520580291748,0.372442752122879,0.0524642281234264,0.1906821727752685
1.7726356055580193e+18,1.703019287109375,1.4218201637268066,-3.47672176361084,-4.394432544708252,0.3255711793899536,0.1395495235919952,0.3466101288795471
1.7726356055780104e+18,1.72301025390625,1.4840754270553589,-5.919198989868164,-5.305357933044434,0.405998557806015,0.064981073141098,0.6001428365707397
1.7726356055980012e+18,1.743001220703125,1.1666303873062134,-8.786112785339355,-6.576722621917725,0.5114596486091614,-0.0878842398524284,0.8275765776634216
1.772635605617992e+18,1.762991943359375,1.5352660417556765,-10.564005851745604,-6.826245307922363,0.4747080504894256,-0.1254347860813141,0.8219839930534363
1.772635605637983e+18,1.78298291015625,1.5949804782867432,-10.520750999450684,-6.724847793579102,0.3756385445594787,-0.0378168560564518,0.6239781379699707
1.7726356056779648e+18,1.82296484375,0.2741292715072632,-8.437748908996582,-4.783400535583496,0.2304963916540146,-0.0529968589544296,0.5424854755401611
1.7726356056979556e+18,1.84295556640625,-0.1400136351585388,-6.581020355224609,-2.859116554260254,0.2427469193935394,-0.1648495346307754,0.5281043648719788
1.7726356057179464e+18,1.8629462890625,-0.6623980402946472,-4.191075325012207,-0.5565237998962402,0.0850879251956939,-0.1669800579547882,0.3906854093074798
1.7726356057579282e+18,1.90292822265625,-1.9456357955932615,0.9571704864501952,3.2403452396392822,-0.1149153038859367,-0.2239716500043869,0.1312937289476394
1.772635605777919e+18,1.9229189453125,-1.7097363471984863,3.7295737266540527,4.708104133605957,-0.1918805986642837,-0.245276927947998,-0.0503337010741233
1.77263560579791e+18,1.942909912109375,-1.2309997081756592,6.6273512840271,6.027022361755371,-0.561793327331543,-0.0545947551727294,-0.5749759674072266
1.7726356058179008e+18,1.96290087890625,-0.3459676504135132,9.271903038024902,7.043511390686035,-0.6922881603240967,0.0452736988663673,-0.8327697515487671
1.7726356058378916e+18,1.9828916015625,-0.0552210360765457,11.58441925048828,6.949794769287109,-0.722914457321167,0.0183757953345775,-0.919322431087494
1.7726356058778742e+18,2.022874267578125,-0.6739250421524048,11.525331497192385,5.177288055419922,-0.6829670667648315,-0.1648495346307754,-0.7049381136894226
1.7726356058978668e+18,2.04286669921875,-0.7600836157798767,8.915244102478027,5.2286763191223145,-0.4408859312534332,-0.1693768948316574,-0.5036033391952515
1.7726356059178593e+18,2.062859375,-0.7939565181732178,7.879917621612549,5.357791900634766,-0.2568616569042206,-0.1541968882083892,-0.2881537973880768
1.7726356059378516e+18,2.0828515625,-0.8704986572265625,8.342427253723145,4.665372848510742,-0.225702702999115,-0.0151800047606229,-0.2183790206909179
1.7726356059578442e+18,2.10284423828125,-0.3017277121543884,8.34788703918457,3.2038094997406006,-0.34714275598526,0.1805621683597564,-0.3012032508850097
1.772635605997829e+18,2.1428291015625,0.6306503415107727,6.076401710510254,2.0860846042633057,-0.4217112064361572,0.3153179883956909,-0.4474106729030609
1.7726356060378143e+18,2.182814208984375,0.902373194694519,1.465799331665039,1.8872051239013672,-0.2009353339672088,0.3837611973285675,-0.5435507297515869
1.7726356060777992e+18,2.222799072265625,-0.4291794896125793,-4.421890258789063,-0.3136560916900635,0.0691089704632759,0.2372874468564987,-0.5488770604133606
1.7726356060977917e+18,2.242791748046875,0.5265887975692749,-5.299106597900391,-4.054553031921387,0.2038648128509521,0.0359526425600051,-0.4567317366600036
1.7726356061177843e+18,2.262784423828125,1.1719980239868164,-3.399866104125977,-4.181535243988037,0.1521995216608047,-0.0535294935107231,-0.189883217215538
1.7726356061377766e+18,2.282776611328125,0.5517705678939819,-3.1905641555786133,-2.634014368057251,0.0344879068434238,-0.0380831696093082,0.0913463458418846
1.7726356061577692e+18,2.302769287109375,0.6260029077529907,-5.529800415039063,-4.321148872375488,-0.040080539882183,0.3675159215927124,-0.1912147998809814
1.7726356061777615e+18,2.322761474609375,1.99006986618042,-6.91396427154541,-8.8318452835083,0.3165164291858673,0.402669608592987,-0.8993487358093262
1.772635606197754e+18,2.342754150390625,3.1379218101501465,-6.8789262771606445,-9.87072467803955,0.3367564380168915,-0.3792338073253631,-0.0391484349966049
1.7726356062177467e+18,2.36274658203125,2.97884202003479,-8.373431205749512,-9.04779815673828,0.1519332081079483,-0.4684496223926544,0.8761792778968811
1.7726356062377393e+18,2.3827392578125,1.807693600654602,-12.262619018554688,-7.972065925598144,0.3708448708057403,-0.0857537165284156,1.65089213848114
1.7726356062577316e+18,2.402731689453125,1.1523455381393433,-12.863718032836914,-6.449276447296143,0.6845649480819702,0.5882917642593384,1.7664732933044434
1.7726356062977165e+18,2.442716552734375,1.2596473693847656,-9.319188117980955,-4.878959655761719,0.9202545285224916,0.8266444802284241,1.6857795715332031
1.772635606317709e+18,2.462708984375,1.5211067199707031,-7.664886474609375,-5.6006693840026855,1.0174598693847656,0.5025380849838257,1.579519510269165
1.7726356063377016e+18,2.48270166015625,1.1817504167556765,-4.789504051208496,-3.840890407562256,0.6091975569725037,-0.0245010610669851,1.2615383863449097
1.7726356063576942e+18,2.502694091796875,0.2536184787750244,-1.7056665420532229,-0.7456703186035156,0.2115879654884338,-0.2996053695678711,0.6311686635017395
1.772635606377687e+18,2.52268701171875,-0.7140321731567383,1.0102834701538086,1.9111747741699217,-0.0166447423398494,-0.3395527601242065,-0.0716389715671539
1.77263560639768e+18,2.54268017578125,-1.532076358795166,3.273014545440674,3.759511947631836,-0.204397439956665,-0.211721122264862,-0.4601938426494598
1.7726356064176732e+18,2.562673095703125,-2.2621304988861084,5.831345558166504,4.933445453643799,-0.0422110669314861,0.022370534017682,-0.3419495820999145
1.7726356064376666e+18,2.58266650390625,-2.360753536224365,8.694686889648438,6.118191719055176,-0.1703090071678161,0.0833568722009658,-0.103330560028553
1.7726356064576596e+18,2.60265966796875,-1.6782859563827517,10.890774726867676,7.097645282745361,-0.4640554189682007,-0.0881505534052848,-0.4387554228305816
1.772635606477653e+18,2.622653076171875,-0.4808298349380493,12.283425331115724,7.544830799102783,-0.8017439842224121,-0.301735907793045,-0.8222503066062927
1.772635606497646e+18,2.64264599609375,0.4179040491580963,12.310232162475586,7.306082248687744,-0.9463534951210022,-0.4751075208187103,-1.0137313604354858
1.7726356065176394e+18,2.662639404296875,-0.6281785368919373,10.80616569519043,6.360248565673828,-0.8025429248809814,-0.5954822897911072,-0.9354345202445984
1.7726356065376325e+18,2.682632568359375,-1.0808284282684326,9.030096054077148,5.345954895019531,-0.5878922939300537,-0.6253097057342529,-0.6366280913352966
1.7726356065576256e+18,2.70262548828125,-1.1275241374969482,7.48341178894043,4.670125961303711,-0.5306344032287598,-0.5012065172195435,-0.3117227256298065
1.772635606597612e+18,2.742612060546875,-0.9474645853042604,6.895512580871582,2.0581250190734863,-0.6017407178878784,-0.1667137444019317,-0.2062616497278213
1.7726356066176054e+18,2.76260546875,-0.1760700196027755,6.743798732757568,1.3865926265716553,-0.6107954978942871,0.3595264256000519,-0.384693294763565
1.7726356066375985e+18,2.782598388671875,-0.0775802731513977,6.106624126434326,2.4107890129089355,-0.3089264333248138,0.5518065094947815,-0.5796365141868591
1.772635606677585e+18,2.8225849609375,0.3954682350158691,2.36881685256958,3.598928451538086,0.1771000623703003,0.4330296218395233,-0.5266396403312683
1.7726356066975782e+18,2.842578125,1.8367648124694824,0.9011945724487304,1.100270390510559,0.4932170212268829,0.2783001065254211,-0.2403500825166702
1.7726356067175713e+18,2.8625712890625,1.6099746227264404,-1.5948057174682615,-2.2531416416168213,0.4864259660243988,0.1952095478773117,-0.1031974032521247
1.7726356067375644e+18,2.882564453125,-0.3202462196350097,-7.963542938232422,-3.81005334854126,-0.0768321305513382,0.2356895506381988,-0.0766989737749099
1.7726356067575578e+18,2.902557861328125,-0.8290905952453613,-10.27060604095459,-6.210217475891113,-0.0893489792943,0.2593916654586792,-0.1816274374723434
1.7726356067975442e+18,2.942544189453125,2.794605016708374,-1.396892547607422,-8.084005355834961,-0.1431447863578796,0.404800146818161,-0.4535359442234039
1.7726356068175373e+18,2.962537353515625,4.223246574401856,-4.300156593322754,-8.019073486328125,0.1410142630338668,0.260456919670105,-0.9387634992599488
1.7726356068375306e+18,2.982530517578125,2.3336410522460938,-8.455689430236816,-9.315614700317385,0.4803006947040558,-0.0117178987711668,-0.4098601341247558
1.7726356068575237e+18,3.002523681640625,0.3582415580749511,-11.752421379089355,-7.785103797912598,0.7498123645782471,-0.2426137626171112,0.8599339723587036
1.7726356068975117e+18,3.04251171875,0.8211221098899841,-11.419528007507324,-4.550299167633057,0.6102628707885742,-0.0812263414263725,1.718003749847412
1.772635606917506e+18,3.062506103515625,1.1094036102294922,-10.1187105178833,-5.49569034576416,0.4478101432323456,0.1707084774971008,1.8751301765441892
1.7726356069375004e+18,3.08250048828125,1.2518867254257202,-8.960789680480957,-6.395487785339356,0.6470144391059875,-0.0210389550775289,1.981390118598938
1.7726356069574945e+18,3.10249462890625,0.8162499070167542,-7.387666702270508,-5.839661598205566,0.4083954095840454,-0.5448822975158691,1.4681994915008545
1.7726356069974833e+18,3.142483154296875,-0.3176108598709106,-2.1778736114501958,0.6874289512634277,-0.035020537674427,-0.6950844526290894,0.5720465183258057
1.7726356070174774e+18,3.162477294921875,-1.0532442331314087,0.6129541397094727,3.273658514022827,-0.1822932213544845,-0.4966791272163391,-0.1981390118598938
1.7726356070374717e+18,3.1824716796875,-1.4079911708831787,3.4888010025024414,4.496424674987793,0.0262321140617132,-0.1257010996341705,-0.2058621793985366
1.7726356070774605e+18,3.22246044921875,-1.827052474021912,9.550973892211914,6.917472839355469,0.1042626649141311,0.0127831622958183,0.2087916433811187
1.7726356070974546e+18,3.24245458984375,-1.3969794511795044,11.627838134765623,7.018820762634277,0.0073236869648098,0.0085221081972122,0.4781701564788818
1.772635607117449e+18,3.262448974609375,-0.4958744645118713,12.96133804321289,6.14610767364502,-0.1756353229284286,0.0087884236127138,0.1380847841501236
1.7726356071374433e+18,3.282443359375,-0.5203836560249329,12.785894393920898,4.792957305908203,-0.8843019008636475,0.141680046916008,-1.2273167371749878
1.7726356071574377e+18,3.302437744140625,-0.1447904258966446,10.729023933410645,4.523592948913574,-1.005475640296936,0.1640505790710449,-1.5226610898971558
1.7726356071774318e+18,3.322431884765625,0.1608688831329345,8.60550594329834,5.2772064208984375,-0.6912228465080261,0.1049284562468528,-1.3242557048797607
1.7726356071974262e+18,3.34242626953125,-0.7222641706466675,7.924466133117676,4.9978437423706055,0.043010015040636,-0.0889495015144348,-0.2840258777141571
1.7726356072174205e+18,3.362420654296875,-0.9547208547592164,7.315882682800293,3.739411592483521,-0.1210405677556991,0.1432779431343078,0.0094542140141129
1.772635607237415e+18,3.382414794921875,-0.7888302803039551,6.594760894775391,2.3425216674804688,-0.2488721907138824,0.3832285404205322,-0.0331563279032707
1.772635607257409e+18,3.402408935546875,-0.849358320236206,6.545132637023926,2.007107734680176,-0.0563258081674575,0.4780369997024536,-0.1569932103157043
1.7726356072973978e+18,3.442397705078125,-0.2354401499032974,5.45368242263794,3.2751352787017822,0.3479416966438293,0.4649875164031982,-0.0495347529649734
1.7726356073173921e+18,3.46239208984375,-0.5132250785827637,3.3732166290283203,3.65803337097168,0.6542049646377563,0.1523326784372329,0.0921452939510345
1.7726356073373862e+18,3.48238623046875,0.1851668953895568,0.6817646026611328,3.418323516845703,0.5452817678451538,-0.0391484349966049,0.1776326894760131
1.7726356073573806e+18,3.502380615234375,1.5106607675552368,-2.8665895462036133,-1.6746177673339844,0.2533995509147644,-0.0399473831057548,0.2351569235324859
1.7726356073973693e+18,3.542369384765625,0.0878563523292541,-13.451841354370115,-3.398371934890747,0.0174436904489994,0.0029294746927917,0.2047969102859497
1.772635607417364e+18,3.562364013671875,-1.7482757568359375,-8.310933113098145,-5.455304145812988,-0.1498026847839355,0.1952095478773117,0.0167779009789228
1.7726356074373583e+18,3.5823583984375,-0.0775030255317688,-0.95928955078125,-6.365102291107178,-0.2406163960695266,0.3930822312831878,-0.7214497327804565
1.7726356074573527e+18,3.602352783203125,4.999508857727051,-3.2742786407470703,-7.479405403137207,-0.0126500045880675,0.3968106508255005,-0.8844350576400757
1.7726356074973417e+18,3.642341796875,2.5181210041046143,-12.18813705444336,-11.362079620361328,0.3703122437000274,0.1861547976732254,-0.6870949864387512
1.772635607517336e+18,3.662336181640625,0.896067202091217,-11.746922492980955,-8.159637451171875,0.6600639224052429,-0.4183822572231293,0.206661120057106
1.772635607557325e+18,3.702324951171875,1.490424394607544,-9.529850006103516,-5.791199684143066,-0.2400837689638137,-0.0109189506620168,1.0721877813339231
1.7726356075973138e+18,3.742313720703125,0.9730592370033264,-5.247130393981934,-4.190243721008301,-0.1125184595584869,0.5320991277694702,0.020240006968379
1.7726356076173084e+18,3.762308349609375,0.5858951210975647,-2.251166343688965,-2.5265703201293945,0.6848312616348267,1.1025477647781372,0.5608612298965454
1.7726356076373028e+18,3.782302734375,-0.0334866940975189,-0.0445671081542968,0.5435290336608887,1.1282472610473633,0.5627254843711853,1.763543725013733
1.7726356076572974e+18,3.80229736328125,-0.9965372085571288,1.5539536476135254,2.793231010437012,-0.1279647797346115,-0.3249053657054901,0.4375569820404053
1.7726356076972861e+18,3.8422861328125,-1.7517679929733276,5.897209167480469,5.067534446716309,-0.1809616386890411,-0.0005326317623257,-0.8546076416969299
1.7726356077172805e+18,3.862280517578125,-1.7045382261276243,8.701719284057617,5.80929708480835,-0.1567268967628479,-0.0599210746586322,-0.2427469193935394
1.7726356077572695e+18,3.90226953125,-0.4428721666336059,12.44544792175293,5.940337181091309,-0.2834932506084442,0.0,-0.2688458859920501
1.7726356077772639e+18,3.922263916015625,0.1848703622817993,12.251744270324709,4.641733169555664,-0.4070638120174408,-0.0127831622958183,-0.4800343811511993
1.7726356077972585e+18,3.942258544921875,-0.0933714210987091,10.456562995910645,3.7059929370880127,-0.599077582359314,-0.1771000623703003,-0.7274418473243713
1.7726356078172529e+18,3.9622529296875,-0.3819259405136108,8.545278549194336,3.594139337539673,-0.7524755001068115,-0.3478085398674011,-0.7974829077720642
1.7726356078372472e+18,3.982247314453125,-0.3106787800788879,7.501228332519531,3.8072261810302734,-0.617453396320343,-0.4348938465118408,-0.5633912682533264
1.7726356078772355e+18,4.0222353515625,0.1904699802398681,7.735106468200684,3.9029061794281006,-0.4635227918624878,-0.2103895395994186,-0.5093291401863098
1.7726356078972283e+18,4.042228271484375,-0.3670166730880737,8.18881893157959,3.489311456680298,-0.4102596044540405,0.3779022395610809,-0.5808349251747131
1.772635607917221e+18,4.06222119140625,-0.4120876789093017,6.653951644897461,3.638693571090698,-0.2938795685768127,0.2138516455888748,-0.5251749157905579
1.7726356079372137e+18,4.082213623046875,1.159191012382507,2.470266819000244,3.7696471214294434,-0.0275636930018663,0.042610540986061,-0.3182474672794342
1.7726356079572065e+18,4.10220654296875,1.3000705242156982,-0.9965686798095704,1.1917192935943604,0.1268995106220245,-0.0210389550775289,-0.1547295302152633
1.7726356079771994e+18,4.122199462890625,1.1044617891311646,-1.3425722122192385,-3.759443283081055,0.1412805765867233,0.0593884401023387,-0.114249512553215
1.7726356079971922e+18,4.142192138671875,1.0516873598098757,-3.376974105834961,-5.585679054260254,-0.0699079185724258,0.0149136893451213,-0.1864211112260818
1.7726356080371776e+18,4.182177490234375,0.4896079301834106,-3.703088760375977,-4.534039497375488,-0.1692437380552292,0.2263685017824173,-0.1334242522716522
1.7726356080571704e+18,4.20217041015625,2.608725070953369,-1.056492805480957,-6.050494194030762,-0.1407479494810104,0.4146538376808166,-0.2482064068317413
1.7726356080771633e+18,4.222163330078125,2.958456516265869,-4.990549087524414,-5.756341934204102,0.0866858214139938,0.3406180143356323,-0.7313033938407898
1.7726356081171487e+18,4.262148681640625,-0.0839287638664245,-9.02465534210205,-8.957952499389648,0.4432827830314636,0.070840023458004,-0.992026686668396
1.7726356081371415e+18,4.2821416015625,0.1638247966766357,-9.72553539276123,-6.238537788391113,0.7056038975715637,-0.1549958437681198,-0.0468715950846672
1.7726356081571343e+18,4.30213427734375,0.9476372599601746,-10.531694412231444,-4.9863128662109375,0.6139912605285645,-0.4604601562023163,1.3896362781524658
1.772635608177127e+18,4.322126953125,0.6523749828338623,-10.897022247314451,-5.5292744636535645,0.1934784948825836,-0.5139896273612976,1.906821727752685
1.7726356081971197e+18,4.34211962890625,0.3818495869636535,-9.54965591430664,-5.884540557861328,0.6957502365112305,-0.5070654153823853,2.278865098953247
1.7726356082171126e+18,4.362112548828125,0.4479463100433349,-8.155704498291016,-5.673111915588379,0.9375650882720948,-0.669784426689148,2.3190786838531494
1.7726356082371052e+18,4.382105224609375,0.2775872349739074,-7.834336280822754,-5.583821296691895,0.0600542314350605,-0.3877559304237366,0.5693833827972412
1.772635608257098e+18,4.402097900390625,0.1332192420959472,-6.384536743164063,-3.851071357727051,0.0291615892201662,-0.1153147742152214,-0.3115895688533783
1.7726356082770908e+18,4.4220908203125,-0.0670303106307983,-3.1001205444335938,-0.7110123634338379,-0.0182426385581493,-0.1238368824124336,-0.3454116880893707
1.7726356082970836e+18,4.442083740234375,-0.67415851354599,-0.0318412780761718,2.1791634559631348,-0.0190415848046541,-0.0998684540390968,-0.0884168744087219
1.7726356083170762e+18,4.462076171875,-1.1335854530334473,2.8893961906433105,3.627527475357056,-0.0006657897029072,0.0663126558065414,0.1178447753190994
1.772635608337069e+18,4.482069091796875,-1.1775405406951904,6.034457206726074,4.379570484161377,-0.0051931599155068,0.0937431901693344,0.1247689872980117
1.772635608357062e+18,4.502061767578125,-0.7718073725700378,8.674396514892578,5.289213180541992,-0.1471395194530487,0.1525990068912506,-0.3269027471542358
1.7726356083770545e+18,4.522054443359375,-0.5987130403518677,10.336183547973633,6.062939643859863,-0.4949480593204498,0.3033337891101837,-0.9684576988220216
1.7726356083970473e+18,4.54204736328125,-0.2571281194686889,11.500478744506836,6.375295639038086,-0.8020102977752686,0.3510043323040008,-1.3966935873031616
1.77263560841704e+18,4.562039794921875,0.3101508319377899,12.10283374786377,5.762083053588867,-0.8624640107154846,0.3584611713886261,-1.4976273775100708
1.7726356084370324e+18,4.582032470703125,0.0014536827802658,11.570241928100586,4.640103340148926,-0.6701838970184326,0.2950780093669891,-1.245692491531372
1.7726356084570253e+18,4.602025390625,-0.0915638953447341,9.975082397460938,4.209772109985352,-0.302934318780899,0.1581916362047195,-0.6094638705253601
1.7726356084970104e+18,4.642010498046875,-0.2881960272789001,7.837479114532471,4.520323753356934,-0.0145142152905464,-0.0271642208099365,0.0532631762325763
1.7726356085170033e+18,4.662003173828125,-0.5125907063484192,7.804376125335693,3.306481122970581,-0.0102531611919403,-0.0695084482431411,0.3198453783988952
1.7726356085569884e+18,4.701988525390625,-0.8037816882133484,5.542174339294434,2.402617692947388,-0.230762705206871,0.1454084664583206,0.1443432122468948
1.7726356085769812e+18,4.721981201171875,0.4135097563266754,4.043172359466553,2.5989885330200195,-0.342615395784378,0.2908169329166412,-0.2617885172367096
1.7726356085969738e+18,4.741973876953125,0.4511297345161438,2.4015913009643555,2.8086981773376465,-0.2025332301855087,0.2482064068317413,-0.4058654010295868
1.7726356086169664e+18,4.76196630859375,1.1924948692321775,0.7142400741577148,1.945040702819824,0.0685763359069824,0.1166463568806648,-0.2484727203845977
1.7726356086369592e+18,4.781959228515625,2.3710312843322754,-2.385961532592773,-1.3421061038970947,0.2856237888336181,-0.2689790427684784,-0.0266315881162881
1.7726356086569518e+18,4.801951904296875,1.7741518020629885,-7.896689414978027,-4.718494415283203,0.0406131707131862,-0.1680453270673751,0.0793621316552162
1.7726356086969372e+18,4.841937255859375,-2.36055588722229,-7.966533660888672,-4.056455612182617,-0.1889511197805404,0.3480748534202575,-0.013315794058144
1.7726356087169298e+18,4.8619296875,-0.9011657238006592,-3.6164026260375977,-7.064426422119141,-0.0038615802768617,0.530767560005188,-0.3573959171772003
1.7726356087569152e+18,4.901915283203125,4.706053733825684,-6.4937028884887695,-11.378795623779297,0.2371542900800705,0.4996086061000824,-0.5731117725372314
1.7726356087769078e+18,4.92190771484375,2.6255099773406982,-8.946805000305176,-10.444801330566406,0.2792322039604187,0.0846884474158287,-0.4061317145824432
1.7726356088168932e+18,4.96189306640625,0.2512524127960205,-13.752129554748535,-5.213159084320068,0.2331595569849014,-0.6450170874595642,1.3491562604904177
1.7726356088368858e+18,4.9818857421875,0.0181500911712646,-10.893256187438965,-5.092810153961182,0.4022701382637024,0.1382179409265518,1.7334500551223757
1.7726356088568783e+18,5.00187841796875,0.540867030620575,-7.095386505126953,-5.394210815429688,0.8214513063430786,0.4751075208187103,2.2598233222961426
1.772635608896864e+18,5.041864013671875,0.9616519808769226,-3.209547996520996,-3.10524582862854,0.3713774979114532,-0.967525601387024,1.246225118637085
1.7726356089168568e+18,5.06185693359375,-0.3361183106899261,-0.0506305694580078,-0.4934861660003662,-0.504535436630249,-0.6692517995834351,-0.4781701564788818
1.7726356089368497e+18,5.081849609375,-1.0701631307601929,3.283676624298096,1.6209280490875244,-0.3506048619747162,0.0950747728347778,-1.3002872467041016
1.7726356089568425e+18,5.101842529296875,-1.4401564598083496,6.89667558670044,3.5565779209136963,0.1908153295516967,0.1757684797048568,-0.4387554228305816
1.7726356089968282e+18,5.141828125,-1.4289339780807495,13.22056484222412,6.133551597595215,0.271509051322937,0.1619200557470321,-0.0217047445476055
1.772635609016821e+18,5.161821044921875,-0.878056526184082,13.451005935668944,5.123092174530029,-0.4320975244045257,-0.0516652800142765,-1.0661956071853638
1.7726356090368138e+18,5.181813720703125,-0.3820741176605224,12.166884422302246,3.757880449295044,-0.7223818302154541,-0.147805318236351,-1.8121464252471924
1.7726356090568067e+18,5.201806640625,0.3537722527980804,10.390003204345703,3.926048755645752,-0.704006016254425,-0.2617885172367096,-2.096571683883667
1.7726356090767995e+18,5.221799560546875,0.1295614838600158,8.793916702270508,5.03718376159668,-0.5322322845458984,-0.4367580413818359,-1.7819195985794067
1.7726356091167852e+18,5.26178515625,-0.5126377940177917,6.978139400482178,3.543189525604248,-0.5647228360176086,-0.2141179740428924,-0.2332927137613296
1.772635609136778e+18,5.281778076171875,-0.8301500678062439,7.045656204223633,2.441493511199951,-0.5764407515525818,0.0881505534052848,0.020240006968379
1.7726356091567708e+18,5.301770751953125,-0.9058018922805786,7.888319969177246,2.434359550476074,-0.2890858948230743,0.2838927209377289,-0.025300009176135
1.7726356091767636e+18,5.321763671875,-0.4221007227897644,8.252562522888184,2.764417886734009,0.2320942878723144,0.388022243976593,0.0380831696093082
1.7726356091967565e+18,5.341756591796875,0.828508734703064,7.325745582580566,2.424429416656494,0.5101280808448792,0.1374190002679824,0.1688442677259445
1.7726356092167493e+18,5.361749267578125,1.796035647392273,5.548511505126953,1.601067066192627,0.2667153477668762,-0.0665789693593978,0.0900147706270217
1.7726356092367421e+18,5.3817421875,-0.5433122515678406,2.773231506347656,2.399854183197021,0.0890826657414436,0.0828242376446724,0.0035952643956989
1.772635609256735e+18,5.40173486328125,0.0782205462455749,-1.328965187072754,0.1063921451568603,-0.0640489682555198,0.2756369411945343,-0.004660528153181
1.7726356092767278e+18,5.421727783203125,0.8115800619125366,-7.139187812805176,-3.219261407852173,-0.2350237667560577,0.4814991056919098,-0.0728373900055885
1.7726356092967206e+18,5.441720703125,-0.3285725116729736,-13.44288158416748,-2.720442056655884,-0.271509051322937,0.3608580231666565,-0.2648511528968811
1.7726356093367063e+18,5.481706298828125,1.4761589765548706,0.7674598693847656,-6.6805925369262695,0.0786963403224945,0.0503337010741233,-0.3026680052280426
1.7726356093566991e+18,5.50169921875,3.977942943572998,-3.2735166549682617,-5.658611297607422,0.290683776140213,-0.0399473831057548,-0.1303616166114807
1.7726356093766917e+18,5.521691650390625,3.3851873874664307,-6.396450042724609,-9.226527214050291,0.3545995950698852,-0.3360906541347503,0.2997385263442993
1.772635609396684e+18,5.54168408203125,1.394437551498413,-7.949501991271973,-12.280769348144531,0.4797680675983429,-0.281229555606842,0.9274450540542604
1.7726356094166764e+18,5.56167626953125,1.267386794090271,-10.175535202026367,-9.847375869750977,0.2581932544708252,-0.0069242129102349,1.0813755989074707
1.7726356094366687e+18,5.581668701171875,1.3517522811889648,-10.56925106048584,-7.078044414520264,0.760198712348938,0.6804370880126953,2.114947557449341
1.7726356094566612e+18,5.6016611328125,1.273186445236206,-10.153985977172852,-6.191688060760498,1.1197251081466677,0.4596612155437469,2.721748352050781
1.7726356094766536e+18,5.621653564453125,1.1526708602905271,-7.67430305480957,-6.254407405853272,0.8211849927902222,-0.0801610797643661,2.3124208450317383
1.772635609496646e+18,5.64164599609375,1.3119773864746094,-6.640064239501953,-5.667314529418945,0.4848280549049377,-0.1030642464756965,1.2639352083206177
1.7726356095366308e+18,5.681630859375,0.7452248930931091,-5.011091232299805,-3.587390422821045,0.0728373900055885,-0.046338964253664,-0.0993358269333839
1.772635609556623e+18,5.701623046875,0.1920103728771209,-2.540690422058105,-0.929229736328125,-0.1274321526288986,0.0026631588116288,-0.6974812746047974
1.7726356095766154e+18,5.721615478515625,-0.5175435543060303,0.1738929748535156,1.6606743335723877,-0.0805605575442314,-0.0221042186021804,-0.5725791454315186
1.7726356095966077e+18,5.741607666015625,-1.1658527851104736,3.2976765632629395,3.337717771530152,0.0438089631497859,-0.0199736915528774,-0.1757684797048568
1.7726356096166e+18,5.76160009765625,-1.721646070480347,6.577329635620117,4.470532417297363,-0.0123836882412433,0.0500673875212669,-0.0199736915528774
1.7726356096365924e+18,5.78159228515625,-1.6389832496643066,9.268722534179688,5.242944717407227,-0.2291648089885711,0.0756337121129036,-0.3701790869235992
1.772635609656585e+18,5.8015849609375,-1.0695587396621704,10.76031494140625,6.242804527282715,-0.5293028354644775,0.1081242486834526,-1.0239845514297483
1.7726356096765773e+18,5.821577392578125,-0.5401691198348999,11.54122829437256,7.357647895812988,-0.7998797297477722,0.1163800433278083,-1.444231033325195
1.7726356096965696e+18,5.841569580078125,0.1724176406860351,11.968551635742188,6.972830772399902,-0.9141292572021484,0.0069242129102349,-1.5180004835128784
1.772635609716562e+18,5.86156201171875,0.2885465919971466,11.374077796936035,5.194949626922607,-0.7506113052368164,-0.1712411046028137,-1.252483606338501
1.7726356097565468e+18,5.901546875,-0.9253367185592652,7.6593804359436035,3.9298501014709473,-0.4342280328273773,-0.2324937582015991,-0.7976160645484924
1.7726356097765391e+18,5.9215390625,-0.9676060676574708,6.781956195831299,3.285489559173584,-0.2246374487876892,-0.1992042809724807,-0.2969422042369842
1.7726356097965315e+18,5.941531494140625,-0.6014024019241333,7.15869665145874,2.284148693084717,-0.2110553383827209,0.0114515833556652,-0.0109189506620168
1.772635609836516e+18,5.98151611328125,0.0111071448773145,6.055564880371094,2.550155639648437,-0.3311637938022613,0.2106558680534362,-0.1150484606623649
1.7726356098565087e+18,6.0015087890625,0.8092854619026184,3.477841854095459,2.8252241611480717,-0.2097237557172775,0.1904158592224121,-0.3637875020503998
1.7726356098765007e+18,6.021500732421875,0.4105152785778045,1.2109737396240234,2.489630937576294,0.2118542790412902,0.1603221595287323,-0.3283674716949463
1.7726356098964928e+18,6.041492919921875,0.5269826054573059,-1.7118263244628906,0.7168116569519043,0.4454133212566376,0.1922800689935684,-0.0615189671516418
1.7726356099164849e+18,6.06148486328125,0.9426369071006776,-5.03277587890625,-3.2482824325561523,0.1053279340267181,0.1885516494512558,-0.194943219423294
1.772635609936477e+18,6.081476806640625,2.030515193939209,-4.906647682189941,-6.83364200592041,-0.2067942768335342,0.1462074220180511,-0.2311621904373169
1.772635609956469e+18,6.101468994140625,0.6969805359840393,-3.7280702590942383,-6.127206802368164,-0.1375521570444107,0.1747032105922699,-0.255929559469223
1.772635609976461e+18,6.1214609375,-0.5105607509613037,-5.183901786804199,-6.178876876831055,0.2560627162456512,0.0085221081972122,-0.4905538558959961
1.772635610016445e+18,6.16144482421875,2.969648599624634,-5.81749153137207,-8.472885131835938,0.5175849199295044,-0.1046621426939964,-0.4197138249874115
1.772635610056429e+18,6.201428955078125,0.8163532018661499,-9.356314659118652,-7.069701671600342,0.6251765489578247,-0.2870885133743286,0.0932105556130409
1.772635610076421e+18,6.221421142578125,1.4228094816207886,-9.893877983093262,-7.25504732131958,0.5261070132255554,-0.1885516494512558,0.9776455760002136
1.7726356100964132e+18,6.2414130859375,1.5566191673278809,-10.002450942993164,-7.185846328735352,0.3878890872001648,-0.2596579790115356,2.423208236694336
1.7726356101164052e+18,6.2614052734375,0.895962119102478,-9.603243827819824,-7.020988941192627,0.3066627383232116,0.1280979365110397,1.9864501953125
1.772635610156389e+18,6.30138916015625,0.9606632590293884,-6.3236083984375,-4.925345420837402,0.4803006947040558,-0.065247394144535,0.8977508544921875
1.7726356101763812e+18,6.321381103515625,0.8196752071380615,-4.066349983215332,-2.671259880065918,-0.2371542900800705,-0.070840023458004,-0.0074568446725606
1.7726356101963732e+18,6.341373291015625,0.3750350773334503,-1.5677604675292969,-0.399134874343872,-0.0981374010443687,-0.0703073889017105,-0.1312937289476394
1.7726356102163653e+18,6.361365234375,-0.4137808382511139,0.747248649597168,1.9348268508911133,0.043010015040636,-0.1794968992471695,-0.0351536944508552
1.7726356102363574e+18,6.381357421875,-0.7980514764785767,3.4637746810913086,3.625972032546997,-0.0637826547026634,-0.0814926624298095,-0.0330231711268425
1.7726356102563494e+18,6.401349365234375,-0.7154813408851624,6.894487857818604,4.533908367156982,-0.4547343552112579,0.0801610797643661,-0.7267760634422302
1.7726356102763415e+18,6.421341552734375,-0.6866012811660767,10.449042320251465,4.6832427978515625,-0.6363617777824402,0.1081242486834526,-1.2141340970993042
1.7726356102963333e+18,6.441333251953125,-0.6906371116638184,13.063541412353516,5.1487321853637695,-0.6576670408248901,0.1211737245321273,-1.4631394147872925
1.7726356103163254e+18,6.461325439453125,0.1035754233598709,13.592098236083984,5.874432563781738,-0.5751091241836548,0.0934768766164779,-1.48124897480011
1.7726356103363174e+18,6.4813173828125,0.2541356682777405,12.07735538482666,5.993873596191406,-0.4669848978519439,-0.0135821104049682,-1.2436951398849487
1.7726356103763023e+18,6.52130224609375,-0.4186619520187378,7.84013032913208,5.063842296600342,-0.4318312108516693,-0.2593916654586792,-0.8008118271827698
1.7726356103962962e+18,6.541296142578125,-1.158359169960022,6.912777900695801,3.8765945434570312,-0.4352933168411255,-0.4053327739238739,-0.2868221998214721
1.7726356104362842e+18,6.5812841796875,-0.3489648997783661,7.635391712188721,1.857841968536377,-0.462457537651062,-0.1339568942785263,0.0295610632747411
1.772635610476272e+18,6.621272216796875,0.2570797801017761,7.310111999511719,1.9491724967956543,-0.4368911981582641,0.0362189598381519,-0.1057274043560028
1.7726356105162598e+18,6.661259765625,-0.0077992230653762,3.755126953125,1.7439944744110107,-0.0728373900055885,-0.0055926335044205,-0.3661843240261078
1.772635610536254e+18,6.68125390625,-0.3174362480640411,-0.4756021499633789,0.2432916164398193,0.410525918006897,-0.108390562236309,-0.1424790024757385
1.7726356105562478e+18,6.701247802734375,1.053139328956604,-6.125834465026856,-1.909466028213501,0.1774995326995849,0.0865526646375656,-0.0921452939510345
1.7726356105762417e+18,6.72124169921875,2.802635669708252,-12.100298881530762,-3.7078158855438232,-0.040080539882183,0.3320958912372589,-0.0756337121129036
1.7726356105962358e+18,6.74123583984375,-0.8947136402130127,-10.199748039245604,-5.391955375671387,-0.0270310621708631,0.1230379343032836,-0.0402136966586113
1.7726356106362235e+18,6.781223388671875,1.6788500547409058,-0.3680572509765625,-6.755586624145508,0.2957437932491302,-0.3139864206314087,0.0098536871373653
1.7726356106562176e+18,6.801217529296875,4.465774059295654,-4.827414512634277,-9.221824645996094,0.3988080322742462,-0.5062664747238159,0.1384842544794082
1.7726356106762115e+18,6.82121142578125,4.53493070602417,-10.234833717346191,-11.992334365844728,0.4344943463802337,-0.2125200778245926,0.283360093832016
1.7726356106962053e+18,6.841205322265625,1.4617414474487305,-14.639822959899902,-11.532020568847656,0.397476464509964,-0.2508695721626282,0.5422191619873047
1.7726356107161994e+18,6.861199462890625,0.3606122136116028,-12.47952938079834,-8.258225440979004,0.1506016254425048,-0.2314285039901733,0.7608644962310791
1.7726356107561871e+18,6.901187255859375,1.850498080253601,-8.683884620666504,-6.412810325622559,0.7567365765571594,0.4969454407691955,2.025598526000977
1.7726356107761812e+18,6.92118115234375,0.8646962642669678,-7.235895156860352,-6.001785755157471,1.02837872505188,0.0292947478592395,2.6043028831481934
1.772635610796175e+18,6.941175048828125,0.6508345007896423,-4.842458724975586,-4.042168140411377,0.460326999425888,-0.4988096356391907,1.775794267654419
1.772635610836163e+18,6.9811630859375,-0.0683100223541259,-0.246281623840332,1.0268042087554932,-0.2129195481538772,-0.3563306629657745,-0.1608547866344452
1.772635610856157e+18,7.001156982421875,-0.5060888528823853,2.6493711471557617,2.9843549728393555,-0.4677838385105133,0.0332894846796989,-1.276984691619873
1.7726356108761505e+18,7.021150634765625,-0.7940524816513062,6.144335746765137,4.21243953704834,-0.2275669276714325,-0.1736379563808441,0.0053263176232576
1.7726356108961434e+18,7.041143310546875,-1.0128999948501587,9.721309661865234,5.272243976593018,-0.2866890430450439,-0.1523326784372329,0.3440801203250885
1.7726356109161364e+18,7.061136474609375,-0.3271784484386444,12.24244499206543,6.373932838439941,-0.3490069508552551,-0.0945421382784843,-0.0498010702431201
1.7726356109361295e+18,7.081129638671875,0.041684366762638,13.087166786193848,6.6197943687438965,-0.6715154647827148,-0.0852210819721221,-1.1587404012680054
1.7726356109561224e+18,7.101122314453125,-0.5955803394317627,12.565399169921877,5.378957748413086,-0.780971348285675,-0.0639158114790916,-1.295360445976257
1.7726356109761155e+18,7.121115478515625,-0.9274154305458068,11.03297996520996,4.097583770751953,-0.7434207797050476,-0.0830905586481094,-1.1345056295394895
1.7726356109961083e+18,7.1411083984375,-1.1654099225997925,8.50800609588623,3.949333667755127,-0.5748428106307983,-0.0071905287913978,-0.776044487953186
1.7726356110161014e+18,7.161101318359375,-1.2519469261169434,6.150915145874023,4.451720237731934,-0.341017484664917,0.0852210819721221,-0.2950780093669891
1.7726356110360945e+18,7.181094482421875,-1.2480566501617432,5.15468692779541,3.959190845489502,-0.0954742431640625,0.046338964253664,-0.0207726396620273
1.7726356110560873e+18,7.20108740234375,-1.30653715133667,6.175286769866943,3.15045166015625,0.084288977086544,-0.0633831769227981,0.0356863290071487
1.7726356110760804e+18,7.221080322265625,-0.5151801109313965,7.785525798797607,3.5568761825561523,0.2510027289390564,-0.1637842655181884,0.1171789914369583
1.7726356110960735e+18,7.241073486328125,-0.3295126855373382,9.296594619750977,4.431191444396973,0.3290332853794098,-0.2213084995746612,0.2287653386592865
1.7726356111360594e+18,7.281059326171875,1.8811269998550413,6.734041213989258,2.3587331771850586,0.2776342928409576,-0.1302284598350525,-0.0085221081972122
1.7726356111760453e+18,7.32104541015625,-0.153160959482193,-4.4366559982299805,1.989764213562012,0.0632500201463699,0.011185267008841,-0.4825643897056579
1.7726356111960384e+18,7.341038330078125,-0.9041587114334106,-11.560714721679688,-6.387549877166748,-0.1740374267101287,0.268180102109909,-0.6985465288162231
1.7726356112160312e+18,7.36103125,2.682398557662964,-7.518749237060547,-10.132108688354492,-0.1468732059001922,0.4511390924453735,-0.5158538818359375
1.7726356112360243e+18,7.3810244140625,2.6904399394989014,-0.4820261001586914,-7.821712493896484,-0.1806953251361847,0.4516717195510864,-0.3131874799728393
1.7726356112560174e+18,7.401017333984375,0.1785537898540496,-3.827008247375488,-6.240209102630615,0.1889511197805404,0.2561958730220794,-0.3139864206314087
1.7726356112760102e+18,7.42101025390625,0.4457727670669555,-9.921489715576172,-8.728590965270996,0.8917587399482727,0.0002663158811628,-0.1059937179088592
1.7726356112960033e+18,7.44100341796875,2.4706525802612305,-9.651568412780762,-10.760787963867188,0.6038712859153748,0.3334274888038635,0.9455545544624328
1.7726356113159962e+18,7.46099609375,3.95857310295105,-7.054629325866699,-8.987220764160156,0.094941608607769,-0.2024000734090805,2.415884494781494
1.7726356113359892e+18,7.4809892578125,2.32169246673584,-9.3565673828125,-7.8764967918396,0.2672479748725891,-0.3227748572826385,2.441983461380005
1.7726356113559823e+18,7.500982421875,0.7041756510734558,-13.666448593139648,-8.007857322692871,0.4470112025737762,0.2085253298282623,1.6299864053726196
1.772635611395969e+18,7.540968994140625,1.8582072257995603,-8.287877082824707,-8.282634735107422,0.538091242313385,0.2106558680534362,0.7854986786842346
1.7726356114159624e+18,7.56096240234375,2.232805013656616,-6.103229522705078,-6.531924247741699,0.4094606637954712,-0.0894821360707283,0.7311702370643616
1.7726356114359557e+18,7.580955810546875,1.5756275653839111,-4.597980499267578,-4.438841342926025,0.1889511197805404,-0.2476737648248672,0.7929555177688599
1.7726356114559493e+18,7.60094921875,0.3241415321826935,-1.953740119934082,-1.5723681449890137,0.0318247489631176,-0.10359688103199,0.3548659086227417
1.7726356114759427e+18,7.620942626953125,-0.5506850481033325,0.483586311340332,1.627729415893555,0.0219710599631071,0.2719085216522217,-0.3139864206314087
1.7726356114959363e+18,7.640936279296875,-1.365363359451294,3.158953189849853,3.4115705490112305,0.0422110669314861,0.0774979218840599,0.0529968589544296
1.7726356115159296e+18,7.6609296875,-1.5040369033813477,6.183710098266602,4.577589511871338,0.0022636849898844,-0.0548610724508762,0.0367515906691551
1.772635611535923e+18,7.6809228515625,-1.480702519416809,9.140419006347656,5.463150024414063,-0.3506048619747162,-0.1515337377786636,-0.5661875605583191
1.7726356115559165e+18,7.70091650390625,-1.2232108116149902,11.489652633666992,6.428540229797363,-0.6872281432151794,-0.0870852917432785,-1.2026824951171875
1.77263561157591e+18,7.720909912109375,0.0044328738003969,12.707706451416016,6.997317790985107,-0.7948197722434998,-0.1206410974264144,-1.5891069173812866
1.7726356115959035e+18,7.740903564453125,0.4652300477027893,13.241914749145508,6.022636413574219,-0.7277081608772278,-0.2034653276205063,-1.4905699491500854
1.7726356116358902e+18,7.78089013671875,-0.3062359392642975,9.324539184570312,3.905472993850708,-0.4584627747535705,-0.1986716538667678,-0.9347687363624572
1.772635611675877e+18,7.820877197265625,-0.707207977771759,5.710817337036133,3.719293355941773,-0.1506016254425048,-0.0908137187361717,-0.2623211443424225
1.7726356116958707e+18,7.84087060546875,-1.1369260549545288,6.543537616729736,2.8235411643981934,-0.0770984441041946,0.2221074402332306,0.1134505644440651
1.7726356117358577e+18,7.880857666015625,-0.6770411133766174,9.367043495178224,2.9809584617614746,-0.2038648128509521,0.3643201291561126,-0.07590002566576
1.772635611755851e+18,7.90085107421875,0.278833657503128,8.749015808105469,2.956014394760132,-0.1511342674493789,0.2434127181768417,-0.4617917239665985
1.7726356117758444e+18,7.92084423828125,1.0256295204162598,5.3272013664245605,3.09869384765625,0.4339617192745209,-0.1552621573209762,-0.1837579607963562
1.7726356118158313e+18,7.960831298828125,-0.0563412755727767,-4.243742942810059,1.0730794668197632,0.0808268710970878,-0.3568632900714874,-0.1371526718139648
1.772635611835825e+18,7.980824951171875,-1.2228724956512451,-10.162633895874023,-3.723679304122925,-0.1716405898332595,-0.0908137187361717,-0.1978726983070373
1.7726356118558182e+18,8.000818359375,1.4826016426086426,-7.901522636413574,-7.6877121925354,-0.2419479787349701,0.325437992811203,0.0611194930970668
1.7726356118758116e+18,8.0208115234375,2.6677474975585938,-1.6514873504638672,-7.504581451416016,-0.0864195004105568,0.362988531589508,-0.0834900289773941
1.7726356118958052e+18,8.04080517578125,2.019272327423096,-1.7365827560424805,-7.889073848724365,0.3354248404502868,0.3054643273353576,-0.4523375332355499
1.7726356119357919e+18,8.0807919921875,1.5433591604232788,-11.95008945465088,-12.34369945526123,0.7998797297477722,0.3920169770717621,-0.2057290226221084
1.7726356119557852e+18,8.10078515625,2.6112868785858154,-10.335992813110352,-12.466976165771484,0.5958817601203918,0.2617885172367096,0.9202545285224916
1.7726356119757788e+18,8.12077880859375,1.6445088386535645,-11.34853458404541,-8.49972152709961,0.595349133014679,-0.1238368824124336,2.4696803092956543
1.7726356119957722e+18,8.140772216796876,1.7675013542175293,-12.124004364013672,-8.519737243652344,0.5018723011016846,-0.3611243367195129,2.876344680786133
1.7726356120157655e+18,8.160765625,2.5915961265563965,-10.587483406066896,-10.489896774291992,0.2334258705377578,-0.0018642111681401,2.2800633907318115
1.7726356120557524e+18,8.20075244140625,1.565124273300171,-7.185055732727051,-6.668252944946289,0.3878890872001648,0.1640505790710449,-0.111719511449337
1.7726356120757458e+18,8.220745849609376,0.1122548580169677,-4.404207229614258,-1.777646541595459,0.2312953472137451,-0.0095873717218637,0.0013315794058144
1.7726356120957391e+18,8.2407392578125,-1.0610142946243286,-1.6650447845458984,1.6616060733795166,0.0523310713469982,0.013315794058144,0.0242347456514835
1.772635612135726e+18,8.28072607421875,-1.3626102209091189,6.030332565307617,2.9656014442443848,-0.0360858030617237,0.3238401114940643,-0.3406180143356323
1.7726356121757128e+18,8.320712646484376,-1.0229932069778442,11.824585914611816,5.674668788909912,0.0794952884316444,0.0029294746927917,-0.1541968882083892
1.7726356121957064e+18,8.340706298828126,0.1222478970885276,13.384980201721191,7.21038818359375,-0.6603302359580994,-0.2101232260465622,-1.0524803400039673
1.772635612235693e+18,8.380693115234376,0.6707571744918823,13.480730056762695,4.966818332672119,-0.8177229166030884,-0.0053263176232576,-1.869271159172058
1.7726356122556864e+18,8.400686279296876,0.5071218013763428,10.628644943237305,4.036904335021973,-0.9727187752723694,0.1251684576272964,-2.173137664794922
1.77263561227568e+18,8.420679931640626,-0.392249047756195,7.8612895011901855,3.9411308765411377,-0.6217144131660461,-0.1510011106729507,-1.1361035108566284
1.7726356122956733e+18,8.44067333984375,-1.0307222604751587,5.682795524597168,3.0764193534851074,-0.2374206036329269,-0.3139864206314087,-0.0969389826059341
1.7726356123156667e+18,8.460666748046876,-0.9005109667778015,4.071187496185303,1.434378147125244,-0.4965459704399109,0.0423442237079143,0.5126580595970154
1.77263561233566e+18,8.480659912109376,-1.1688648462295532,4.37016487121582,0.8391849994659424,-0.0291615892201662,0.1158474087715148,-0.4424838423728943
1.7726356123556536e+18,8.500653564453126,-0.7681701183319092,6.80463981628418,1.8985748291015625,0.3620564341545105,-0.0058589493855834,-0.2147837579250335
1.7726356123756467e+18,8.520646728515626,0.627245306968689,9.802021026611328,3.117060422897339,0.4299669861793518,-0.1491369009017944,0.017710005864501
1.7726356123956393e+18,8.540639404296876,1.611670732498169,11.446117401123049,4.568865776062012,0.3026680052280426,-0.207726389169693,0.0225036926567554
1.772635612415632e+18,8.5606318359375,1.6959731578826904,8.849580764770508,5.983772277832031,0.0557931773364543,-0.2205095440149307,-0.1745700538158416
1.7726356124356244e+18,8.58062451171875,-0.2414605766534805,2.6549572944641118,5.055393218994141,-0.2965427339076996,-0.120108462870121,-0.4640554189682007
1.7726356124556173e+18,8.6006171875,-1.201993703842163,-4.459434509277344,0.5225956439971924,-0.5585975646972656,0.0330231711268425,-0.6772412657737732
1.7726356124756099e+18,8.62060986328125,-1.1356778144836426,-13.80032444000244,-5.676058292388916,-0.5514070391654968,0.1187768802046775,-0.6261086463928223
1.7726356124956024e+18,8.6406025390625,1.8873761892318728,-11.351723670959473,-9.212640762329102,-0.2925480008125305,0.1557947844266891,-0.3083937764167785
1.7726356125155953e+18,8.66059521484375,1.8978583812713623,-1.0513029098510742,-8.08603286743164,0.2320942878723144,0.190948486328125,-0.1866874396800995
1.7726356125355878e+18,8.680587890625,1.3865127563476562,-2.0556411743164062,-5.039342880249023,0.7660576105117798,0.0383494868874549,-0.3547327518463135
1.7726356125555804e+18,8.700580322265624,2.0237648487091064,-6.313437461853027,-7.086638450622559,1.084837794303894,-0.0039947382174432,-0.0545947551727294
1.772635612575573e+18,8.720572998046874,1.6732933521270752,-7.149533271789551,-10.133575439453123,0.802276611328125,0.5004075169563293,1.04928457736969
1.7726356125955658e+18,8.74056591796875,1.6773226261138916,-4.424612045288086,-9.135775566101074,0.1047952994704246,0.0777642354369163,2.1675448417663574
1.7726356126155584e+18,8.760558349609376,1.4692670106887815,-4.669839859008789,-5.288680076599121,0.2523342967033386,-0.0918789803981781,2.5925850868225098
1.772635612635551e+18,8.780551025390626,0.5150275230407715,-6.478314399719238,-3.523562431335449,0.4233090877532959,0.2516685128211975,2.1020312309265137
1.7726356126555438e+18,8.800543701171875,0.1945487856864929,-6.117578506469727,-3.362201452255249,0.4523375332355499,-0.034621063619852,1.4125394821166992
1.7726356126755364e+18,8.820536376953125,0.8010708689689636,-3.4407129287719727,-3.0399506092071533,0.3396859169006347,-0.1480716317892074,0.6282391548156738
1.772635612695529e+18,8.840529052734375,0.853238046169281,-1.822687149047852,-2.6677334308624268,0.1591237336397171,0.011185267008841,0.0535294935107231
1.7726356127155215e+18,8.860521484375,0.7367792725563049,-2.0585851669311523,-2.413359880447388,0.0850879251956939,0.0553937032818794,-0.3366232812404632
1.7726356127355144e+18,8.880514404296875,0.47137051820755,-1.851007461547852,-2.3362531661987305,0.0696416050195694,0.0407463312149047,-0.5840307474136353
1.772635612755507e+18,8.9005068359375,-0.3296077847480774,-0.703303337097168,-1.1471807956695557,0.0166447423398494,0.0205063223838806,-0.3051980137825012
1.7726356127754995e+18,8.92049951171875,-0.6176988482475281,0.2179746627807617,0.4171459674835205,0.1125184595584869,-0.2897516787052154,0.3046653568744659
1.7726356127954924e+18,8.940492431640624,-0.5057047009468079,1.0494012832641602,0.6545298099517822,0.2153163850307464,-0.3643201291561126,0.8194539546966553
1.7726356128354775e+18,8.9804775390625,-0.2467800974845886,2.109736919403076,1.014559030532837,0.1077247709035873,-0.3174485266208648,0.6817686557769775
1.77263561285547e+18,9.000469970703126,-0.5817505717277527,2.1897287368774414,1.169179916381836,-0.0568584389984607,-0.2719085216522217,0.097737930715084
1.7726356128954542e+18,9.0404541015625,-0.4825307130813598,2.0066704750061035,0.4887025356292724,-0.2243711352348327,-0.1153147742152214,-0.3845601379871368
1.7726356129354376e+18,9.0804375,-0.4579169154167175,1.9715733528137207,0.639268159866333,-0.3434143364429474,0.0109189506620168,-0.5864275693893433
1.7726356129754212e+18,9.120421142578126,-0.1240918636322021,1.5154380798339844,1.1471343040466309,-0.2984069585800171,0.0585894957184791,-0.5060001611709595
1.7726356129954127e+18,9.140412841796875,-0.0571541786193847,1.114689826965332,0.8363738059997559,0.0781637132167816,-0.0058589493855834,0.0051931599155068
1.7726356130353964e+18,9.180396240234376,0.1394693851470947,0.8860225677490234,-0.2612936496734619,0.0651142299175262,-0.0476705431938171,0.019840532913804
1.7726356130553882e+18,9.20038818359375,0.0953359603881836,0.8788433074951172,-0.8209059238433838,-0.0059921070933341,0.006657897029072,-0.1479384750127792
1.7726356130753797e+18,9.220379638671876,0.0363311767578125,0.5972223281860352,-0.9695444107055664,0.0451405420899391,-0.1158474087715148,-0.2254363894462585
1.7726356130953715e+18,9.24037158203125,0.0765163898468017,0.5034513473510742,-1.2886080741882324,0.0909468755125999,-0.3358243405818939,-0.1628521680831909
1.7726356131153633e+18,9.26036328125,0.0363157391548156,0.4806385040283203,-1.1301684379577637,0.0925447717308998,-0.2769685089588165,-0.1410142630338668
1.7726356131553467e+18,9.3003466796875,0.275499939918518,0.8899469375610352,-0.7145833969116211,-0.0291615892201662,-0.0471379123628139,-0.0683100223541259
1.7726356131753385e+18,9.32033837890625,0.3119425773620605,0.9260015487670898,-0.4238953590393066,-0.0600542314350605,-0.002130527049303,0.0209057964384555
1.7726356132153219e+18,9.36032177734375,-0.0117512941360473,0.5508079528808594,0.1680998802185058,-0.0464721210300922,-0.0085221081972122,0.0629837065935134
1.7726356132353137e+18,9.380313720703125,0.0260373353958129,0.3684215545654297,0.4108951091766357,-0.0893489792943,-0.0846884474158287,0.0557931773364543
1.7726356132553055e+18,9.400305419921876,0.0253035426139831,0.5370931625366211,0.1575186252593994,-0.1340900510549545,-0.1363537311553955,0.0185089539736509
1.7726356132752973e+18,9.42029736328125,-0.0166893601417541,0.7276630401611328,-0.0555012226104736,-0.1673795282840728,-0.0814926624298095,-0.1227716207504272
1.7726356132952888e+18,9.440288818359376,0.0922206938266754,0.8731689453125,-0.2982909679412842,-0.1375521570444107,-0.0340884327888488,-0.1597895324230194
1.7726356133152806e+18,9.46028076171875,0.4412060379981994,0.9118013381958008,-0.7171535491943359,-0.0997352972626686,0.1062600389122963,-0.2308958619832992
1.7726356133352724e+18,9.4802724609375,0.5501452684402466,0.7444581985473633,-1.0302772521972656,-0.0712395012378692,0.1621863692998886,-0.2697779834270477
1.772635613355264e+18,9.500263916015625,0.6393396854400635,0.5515155792236328,-1.1429071426391602,-0.0560594946146011,0.2058621793985366,-0.2444779723882675
1.7726356133752563e+18,9.52025634765625,0.6800116300582886,0.3158531188964844,-1.1414756774902344,-0.0523310713469982,0.2476737648248672,-0.2093242853879928
1.7726356133952497e+18,9.540249755859374,0.6637611389160156,0.2021951675415039,-1.296224594116211,-0.0411458052694797,0.3275685310363769,-0.1957421749830246
1.772635613415243e+18,9.560242919921874,0.6990121006965637,0.4867868423461914,-1.4034302234649658,0.0078563187271356,0.4543348848819732,-0.1768337488174438
1.7726356134352364e+18,9.580236328125,0.6842055916786194,0.9778709411621094,-1.1987025737762451,0.0422110669314861,0.4604601562023163,-0.18655426800251
1.7726356134552294e+18,9.6002294921875,0.6530460119247437,1.1416120529174805,-0.9616198539733888,0.0267647467553615,0.3994738161563873,-0.1484711021184921
1.772635613495216e+18,9.640216064453124,0.6672827005386353,0.5579185485839844,-1.0033948421478271,0.0150468470528721,0.3552653789520263,-0.072571076452732
1.7726356135152092e+18,9.660209228515624,0.5361462831497192,0.2557859420776367,-1.0755729675292969,0.0059921070933341,0.3355579972267151,-0.0395479090511798
1.7726356135352026e+18,9.68020263671875,0.5076727867126465,0.3857994079589844,-1.13023042678833,0.0334226414561271,0.3238401114940643,-0.0656468644738197
1.772635613555196e+18,9.70019580078125,0.5646462440490723,0.6979827880859375,-0.9565820693969728,0.0525973848998546,0.2700442969799042,-0.0866858214139938
1.7726356135751892e+18,9.720189208984374,0.6125237941741943,0.812626838684082,-0.9753730297088624,0.0241015870124101,0.2279663980007171,-0.035020537674427
1.7726356135951823e+18,9.740182373046874,0.7947869300842285,0.491276741027832,-1.103829860687256,-0.0422110669314861,0.2005358636379242,0.0382163301110267
1.7726356136151757e+18,9.76017578125,0.800215482711792,0.2394428253173828,-1.2320270538330078,-0.0318247489631176,0.2037316560745239,0.0041278963908553
1.772635613635169e+18,9.7801689453125,0.6488222479820251,0.2434577941894531,-1.296065330505371,-0.008655265904963,0.229564294219017,-0.02569948323071
1.7726356136551624e+18,9.800162353515624,0.5711795091629028,0.276224136352539,-1.0939981937408447,-0.0121173728257417,0.2292979806661605,-0.0370179079473018
1.7726356136751555e+18,9.820155517578126,0.5520815253257751,0.3045263290405273,-0.715097188949585,-0.0110521093010902,0.2332927137613296,-0.019441058859229
1.7726356136951488e+18,9.840148681640626,0.361756682395935,0.3863162994384765,-0.5885231494903564,-0.0019973691087216,0.2013348042964935,0.0103863198310136
1.7726356137351355e+18,9.880135498046876,0.1452555358409881,0.3317012786865234,-0.6165511608123779,0.0027963167522102,0.1318263560533523,0.0391484349966049
1.7726356137551286e+18,9.900128662109376,0.1821035742759704,0.4473438262939453,-0.6012427806854248,0.0179763212800025,0.1038631945848465,0.0748347640037536
1.7726356137951153e+18,9.940115234375,0.2791464924812317,0.4933986663818359,-0.8501172065734863,0.0342215895652771,0.102531611919403,0.065247394144535
1.7726356138151086e+18,9.960108642578126,0.1715803444385528,0.3709545135498047,-1.0002057552337646,0.0464721210300922,0.0878842398524284,-0.0063915811479091
1.7726356138351017e+18,9.980101806640626,0.1198288202285766,0.3125905990600586,-1.0700538158416748,0.0597879141569137,0.0705737099051475,-0.0766989737749099
1.7726356138750881e+18,10.020088134765626,0.0950267314910888,0.4861917495727539,-0.8156988620758057,0.0672447606921196,0.1392832100391388,-0.0894821360707283
1.7726356138950804e+18,10.04008056640625,0.1705967187881469,0.5283098220825195,-0.7619974613189697,0.0818921327590942,0.1765674352645874,-0.0905473977327346
1.7726356139350653e+18,10.0800654296875,0.0445884615182876,0.4632730484008789,-0.8380858898162842,0.0810931846499443,0.1880190074443817,-0.0452736988663673
1.772635613955058e+18,10.100057861328125,0.0476242452859878,0.3829679489135742,-0.7785069942474365,0.0659131780266761,0.1691105812788009,-0.0553937032818794
1.7726356139750502e+18,10.12005029296875,0.0608270019292831,0.3769063949584961,-0.7892649173736572,0.040080539882183,0.1363537311553955,-0.0668452829122543
1.7726356140150351e+18,10.16003515625,0.0089810937643051,0.3072881698608398,-0.7543246746063232,-0.008655265904963,0.0785631835460662,-0.0727042332291603
1.7726356140350277e+18,10.18002783203125,0.0531508326530456,0.4106092453002929,-0.6288659572601318,-0.0195742174983024,0.0559263341128826,-0.0695084482431411
1.77263561405502e+18,10.20002001953125,0.0932975262403488,0.5830764770507812,-0.5965180397033691,-0.0307594835758209,0.0282294824719429,-0.0159789528697729
1.772635614095005e+18,10.2400048828125,0.0288295596837997,0.2361602783203125,-0.6101562976837158,-0.0544615983963012,-0.0013315794058144,-0.0149136893451213
1.7726356141349898e+18,10.27998974609375,0.1086263954639434,0.4231996536254883,-0.6210188865661621,-0.053928967565298,-0.0103863198310136,-0.0585894957184791
1.7726356141549824e+18,10.299982421875,0.158548817038536,0.4948444366455078,-0.6528887748718262,-0.0217047445476055,-0.0178431645035743,-0.0764326602220535
1.772635614174975e+18,10.31997509765625,0.1412616521120071,0.3842544555664062,-0.6656296253204346,-0.051798440515995,-0.0226368494331836,-0.0458063334226608
1.7726356141949673e+18,10.33996728515625,0.1266884505748748,0.2883052825927734,-0.7272751331329346,-0.0635163411498069,-0.0010652635246515,-0.0186421126127243
1.7726356142149599e+18,10.3599599609375,0.0636380314826965,0.2565364837646484,-0.72137451171875,-0.040080539882183,0.0537958070635795,-0.0229031667113304
1.7726356142349522e+18,10.3799521484375,0.1504622399806976,0.2916774749755859,-0.6519243717193604,-0.0219710599631071,0.0466052778065204,-0.0154463211074471
1.772635614274937e+18,10.41993701171875,0.1359105259180069,0.3121185302734375,-0.7045025825500488,-0.0251668505370616,0.0439421199262142,-0.0050600017420947
1.7726356142949297e+18,10.4399296875,0.0921800136566162,0.3254451751708984,-0.730057954788208,-0.0254331659525632,0.0396810658276081,-0.0015978952869772
1.772635614314922e+18,10.459921875,0.13717120885849,0.3821697235107422,-0.6606025695800781,-0.013715268112719,0.0410126447677612,-0.0071905287913978
1.7726356143349146e+18,10.47991455078125,0.1135167628526687,0.4966869354248047,-0.6646859645843506,-0.0041278963908553,0.049268439412117,-0.0300936941057443
1.7726356143549071e+18,10.4999072265625,0.0268969684839248,0.3768796920776367,-0.6169700622558594,0.0070573706179857,0.0508663319051265,-0.0482031740248203
1.7726356143748997e+18,10.519899658203125,-0.0078100115060806,0.1814346313476562,-0.6425268650054932,0.0387489609420299,0.017310531809926,-0.0099868457764387
1.7726356143948933e+18,10.539893310546876,0.0322537869215011,0.1344442367553711,-0.6603894233703613,0.032091062515974,0.0151800047606229,0.0065247388556599
1.7726356144148867e+18,10.55988671875,-0.0795089304447174,0.2974252700805664,-0.6199605464935303,0.0179763212800025,0.0143810575827956,0.0027963167522102
1.7726356144348803e+18,10.57988037109375,-0.0403764843940734,0.3790493011474609,-0.5824332237243652,0.0262321140617132,0.0130494777113199,-0.0035952643956989
1.7726356144548736e+18,10.59987353515625,0.0090677291154861,0.2973384857177734,-0.6344630718231201,0.0342215895652771,0.0127831622958183,-0.0103863198310136
1.7726356144748672e+18,10.6198671875,0.0379838347434997,0.2444591522216797,-0.7327613830566406,0.0358194857835769,0.0130494777113199,-0.017310531809926
1.7726356144948605e+18,10.639860595703125,0.0218253284692764,0.3435420989990234,-0.7250645160675049,0.0462058037519454,0.0159789528697729,-0.0274305362254381
1.772635614514854e+18,10.65985400390625,0.0230696201324462,0.5535669326782227,-0.6697189807891846,0.0470047518610954,0.0292947478592395,-0.0237021129578351
1.7726356145348475e+18,10.679847412109376,0.0804779976606369,0.5665798187255859,-0.6665792465209961,0.0318247489631176,0.0439421199262142,-0.0138484258204698
1.7726356145548408e+18,10.6998408203125,0.0178033113479614,0.4269571304321289,-0.7678213119506836,0.0363521166145801,0.0633831769227981,-0.006657897029072
1.7726356145748344e+18,10.71983447265625,0.0119896680116653,0.2483205795288086,-0.838076114654541,0.040879487991333,0.066046342253685,0.0010652635246515
1.7726356145948278e+18,10.739827880859377,0.0559189021587371,0.1283245086669922,-0.6890530586242676,0.0296942200511693,0.0572579130530357,0.0039947382174432
1.7726356146148214e+18,10.7598212890625,-0.0366276800632476,0.3154897689819336,-0.6251327991485596,0.0081226341426372,0.0500673875212669,0.0023968429304659
1.7726356146348147e+18,10.779814697265625,0.0620352029800415,0.4213485717773437,-0.526120662689209,0.0065247388556599,0.034621063619852,0.002130527049303
1.772635614654808e+18,10.79980810546875,0.1094761490821838,0.2447271347045898,-0.5266284942626953,0.0083889504894614,0.011185267008841,0.0106526352465152
1.7726356146748017e+18,10.8198017578125,0.0315473973751068,0.1297998428344726,-0.5755066871643066,0.0043942118063569,-0.0029294746927917,0.0229031667113304
1.772635614694795e+18,10.839794921875,0.0701885223388671,0.1591930389404297,-0.5400118827819824,0.0155794788151979,-0.0055926335044205,-0.0061252652667462
1.7726356147147886e+18,10.85978857421875,0.0883863121271133,0.2939233779907226,-0.4570145606994629,0.011584741063416,-0.0005326317623257,-0.0258326400071382
1.772635614734782e+18,10.879781982421877,0.096841886639595,0.4397230148315429,-0.563762903213501,0.0134489517658948,0.0237021129578351,-0.017310531809926
1.7726356147547756e+18,10.899775634765623,0.1230092793703079,0.4782648086547851,-0.4786782264709472,0.035020537674427,0.0279631670564413,-0.010785792954266
,,,,,0.0672447606921196,0.0322242230176925,-0.0134489517658948
,,,,,0.0605868622660636,0.0399473831057548,-0.0233026389032602
,,,,,-0.0336889587342739,0.0444747507572174,-0.0251668505370616
,,,,,-0.078430026769638,0.0631168633699417,-0.0398142226040363
,,,,,0.0057257916778326,0.0639158114790916,-0.0122505305334925
