time,seconds_elapsed,accel_z,accel_y,accel_x,gyro_x,gyro_y,gyro_z
1772808352249171000,0.0761708984375,0.3342459831357002,0.001454582722485,-0.3084320351824164,0.0101487850770354,0.0693299695849418,0.0323505774140358
1772808352269218800,0.09621875,0.1680640718102455,0.159025317569077,-0.2218265320600941,0.0394477322697639,0.0895147025585174,-0.0046749110333621
1772808352289267000,0.116266845703125,0.1396972245037555,0.2807601844027638,-0.1935321837342344,0.092547170817852,0.094300664961338,-0.0173387750983238
1772808352309315000,0.136315185546875,0.1363525902509689,0.1774360035285353,-0.1490298105923458,0.1266396343708038,0.032020978629589,0.0565780587494373
1772808352329363700,0.15636376953125,0.2092243497163057,-0.0295884980559349,-0.1680765294330194,0.0563432313501834,0.0455099679529666,0.2899262607097626
1772808352349411800,0.176411865234375,0.1794745236188173,-0.1743678481295704,-0.254933413500525,-0.1809084564447403,0.150989145040512,0.5802182555198669
1772808352369460000,0.1964599609375,-0.000177110132575,0.0604848638400435,-0.3816112896943465,-0.372881531715393,0.3752950429916382,0.7002858519554138
1772808352389508900,0.2165087890625,-0.5462538260906934,1.0411384072110057,-0.3852237445704639,-0.4230505228042602,0.3316675126552582,0.8498380184173584
1772808352409557000,0.236556884765625,0.5119207638561726,-0.3959650649458169,-0.0922765892949886,-0.345439612865448,1.0558165311813354,0.8646430373191833
1772808352429605000,0.256605224609375,-0.9161363552749155,0.5682575681060552,0.0594537032945547,0.1025843545794487,0.9765476584434508,0.4354396164417267
1772808352449653800,0.27665380859375,-0.9895978973269464,0.1459156606271862,-0.4406716006239876,0.380372405052185,0.5876575112342834,0.0947665497660636
1772808352469702000,0.296701904296875,-0.5405220044404268,0.0311225757554173,-0.1849274004635401,0.5628886818885803,0.2074725478887558,-0.0827067717909812
1772808352489750000,0.31675,0.008239420557022,-0.0754024469867348,0.0635907209008932,0.5527909398078918,-0.0028911908157169,-0.1413451731204986
1772808352509798000,0.3367978515625,0.3454559439361095,-0.2132508287534117,0.0981219451891724,0.3772472441196441,-0.0684636011719703,-0.0875749439001083
1772808352529846800,0.3568466796875,0.3777075237214565,-0.0680287033483386,0.1776742327312007,0.2436568140983581,-0.0734948217868805,-0.05476601049304
1772808352549895000,0.37689501953125,0.3275502848893404,-0.037173254096508,0.0929661607280373,0.1724035590887069,-0.0632255598902702,-0.0821314454078674
1772808352569943000,0.396943115234375,0.3046358577698469,0.1618193322017788,0.0302443407493177,0.1935757547616958,-0.046233806759119,-0.2082951813936233
1772808352589991700,0.41699169921875,0.3693903617531061,0.1536982773274183,0.0061560384117066,0.2042760103940963,0.0565123632550239,-0.3054622709751129
1772808352610043600,0.437043701171875,0.1589782635569572,0.2119768632948398,-0.1999483161205425,0.1780311167240142,0.1592679619789123,-0.2739554345607757
1772808352630091500,0.457091552734375,0.0818137753337621,0.0817591225370764,-0.1021985195788554,0.1502097249031067,0.2097133249044418,-0.2177780717611313
1772808352650139600,0.4771396484375,-0.1552659650355577,0.2010001267284154,0.0513469052744098,0.189564436674118,0.2315479516983032,-0.1582400649785995
1772808352670188500,0.4971884765625,-0.1842933220773935,0.3493462293729186,0.0097664839938282,0.2723910212516784,0.2943677604198456,-0.0087047480046749
1772808352690236700,0.517236572265625,-0.0810007053852081,0.1645133935913443,0.0406184991795569,0.2616204619407654,0.2706643640995025,0.1571172773838043
1772808352710284500,0.537284423828125,0.1690998445987701,0.0033256372913718,0.1426884787416085,0.1896992623805999,0.2043235152959823,0.2124150246381759
1772808352730333400,0.55733349609375,0.2780237451761961,0.1285848788589239,0.0268938886770978,0.1172677502036094,0.0861792564392089,0.1213834807276725
1772808352750381600,0.577381591796875,0.2285714397430419,0.014988894817233,0.0203273332357406,0.084792748093605,-0.067216046154499,-0.008831126615405
1772808352770429700,0.5974296875,0.111107674357295,-0.0096194767385721,-0.001300013215281,0.107974000275135,-0.2074114978313446,-0.1272837221622467
1772808352790478600,0.617478515625,0.0791793351769447,0.1985088944345712,-0.2095856207767501,0.2663733065128326,-0.1521435528993606,-0.1891845464706421
1772808352810526700,0.637526611328125,0.0788064102113246,0.5389934796988963,-0.3979306659303605,0.3601080477237701,-0.0698978751897811,-0.2550597190856933
1772808352830574600,0.65757470703125,0.0962368529617786,0.4496873027831315,-0.3968601140893995,0.3466611802577972,0.0338218733668327,-0.3105786144733429
1772808352850622700,0.677622802734375,0.0289344180613756,-0.6766922238618135,-0.0712870475571602,0.3646660149097442,0.1524364054203033,-0.0812557414174079
1772808352870671600,0.697671630859375,0.0948281552076339,-0.9985609559834004,0.2586067317184061,0.385399580001831,0.3315072655677795,0.3062864542007446
1772808352890719700,0.7177197265625,0.0904454100787639,0.0562263296127319,-0.18984003295172,0.3621388077735901,0.5591846108436584,0.451070100069046
1772808352910767600,0.737767578125,0.051386488366127,0.7808142771154641,0.2491866500094532,0.2529538571834564,0.6702245473861694,0.6085628867149353
1772808352930816800,0.757816650390625,0.5638339064449072,0.0504126748979091,0.0642167073121294,0.1131393462419509,0.9492788910865784,0.7041944861412048
1772808352950864600,0.77786474609375,-0.0602764817863702,-0.3790326348453759,0.5050805425725877,-0.0896790325641632,0.8004786372184753,0.7119266390800476
1772808352970912500,0.79791259765625,0.3907166428983211,-0.2610217569708824,0.4395648449584841,-0.200936883687973,0.5742810368537903,0.5442699790000916
1772808352990960600,0.817960693359375,0.6014648411810398,0.9236585674732924,-0.6175436501268297,-0.2068812996149063,0.325188398361206,0.1098258942365646
1772808353011009500,0.838009521484375,0.1233604222089052,-0.4784995557695627,1.130450648541376,-0.0835662260651588,-0.2555742263793945,0.144224151968956
1772808353031057700,0.8580576171875,0.6981938615739345,-0.1844260085463523,1.696140777312219,-0.0451764091849327,-0.7336553335189819,0.4166272580623626
1772808353051105500,0.87810546875,0.8895002772837877,0.3023340105682611,1.138960410472378,-0.0757296085357666,-0.835658073425293,0.6626861691474915
1772808353071154700,0.89815478515625,0.1454687936425208,0.9713058693110942,0.4840849181538447,0.0683216005563736,-0.8534407615661621,0.6630497574806213
1772808353091202600,0.91820263671875,-0.1863748045265674,0.8749035966545343,0.3923599896585568,0.296993613243103,-0.7522336840629578,0.6102458834648132
1772808353111250700,0.938250732421875,0.5582102213442325,0.7388420983046293,0.4670690110210329,0.167484238743782,-0.6012089848518372,0.5326907634735107
1772808353131298600,0.958298583984375,1.445508020147681,0.4300929599970579,0.7076596090555191,-0.2414309680461883,-0.2639534473419189,0.5449845790863037
1772808353151347700,0.97834765625,2.0298925471901894,0.5780237598389387,0.7578938586466014,-0.7026181221008301,0.145337626338005,0.6331465244293213
1772808353171395600,0.9983955078125,1.709336066710949,0.4951519998848438,1.1509084032237529,-0.7912381291389465,0.4636579751968384,0.8263206481933594
1772808353191443500,1.018443359375,1.4112509457588196,1.2378373296141625,0.468427951349318,-0.4489333033561706,0.5335450172424316,0.7876065373420715
1772808353211492600,1.03849267578125,2.11868376032114,1.6446096197783946,-0.2391043049994856,0.028463551774621,0.4595158398151397,0.454646348953247
1772808353231540500,1.05854052734375,3.412982981869578,1.795972732156515,-0.1610922965688631,0.1207887455821037,0.2740481793880462,0.2012554407119751
1772808353251588600,1.078588623046875,4.396912770432234,1.9833026454508305,0.0092377656782977,-0.1660602241754531,0.1664668172597885,0.1623406410217285
1772808353271636500,1.098636474609375,4.080543804770707,2.4499364068597558,-0.1185297323831357,-0.4509722888469696,0.0577428415417671,0.1883677989244461
1772808353291685600,1.118685546875,2.623177589046955,2.744742944532633,-0.2280268480049446,-0.3550814986228943,-0.0886691510677337,0.1789659857749939
1772808353311733500,1.1387333984375,1.4651345116376877,2.908713025027513,-0.2189009269369766,0.120432324707508,-0.0539991967380046,0.2045118510723114
1772808353331781600,1.15878173828125,1.651360263082385,2.708627967317402,-0.1985524413153529,0.5086881518363953,0.3148810565471649,0.318282812833786
1772808353351830500,1.17883056640625,2.146039969280362,2.1208277866125105,-0.0485832857799716,0.5253170728683472,0.8180279731750488,0.4076658487319946
1772808353371878700,1.198878662109375,1.2190882054805754,1.060987309280038,-0.142284208789654,0.4665685892105102,0.9726642370224,0.3386328220367431
1772808353391926500,1.218926513671875,-1.0770435410678385,-0.8291606671333313,0.3425017337730154,0.5402435660362244,0.6181501746177673,0.335709661245346
1772808353411975700,1.2389755859375,-3.97196009593308,-2.9565315917789934,0.8673497472088784,0.4614376723766327,0.1051200628280639,0.5724649429321289
1772808353432023600,1.2590234375,-8.391851006370782,-4.948705525949597,0.8516095956329256,0.4024157524108886,-0.3750518560409546,0.9817904829978944
1772808353452071400,1.279071533203125,-13.614211560893056,-7.300485509961843,0.6807520206466317,0.7998514771461487,-0.671413004398346,1.4909157752990725
1772808353472119600,1.29911962890625,-18.33742666198015,-10.858946053302288,0.0607788052853196,1.4093847274780271,-1.039036989212036,1.81613290309906
1772808353492168400,1.31916845703125,-20.2915628341794,-13.133574408572912,-1.9112071310549972,1.769985318183899,-1.0399692058563232,1.864611268043518
1772808353512216600,1.339216552734375,-19.997157863044738,-13.728221386432647,-3.9269647699087855,1.8466644287109373,-0.6078287363052368,1.5754265785217283
1772808353532264400,1.359264404296875,-17.7794724612236,-11.792025360071658,-5.598288209089636,1.9506163597106931,0.4287043809890747,0.8075796961784363
1772808353552313600,1.379313720703125,-12.888413068556783,-9.1201974296242,-5.809106549999117,1.59529709815979,1.413213849067688,-0.1170773282647132
1772808353572361500,1.399361572265625,-6.926292716363072,-5.721981224253773,-4.513412951482832,0.8784992098808289,1.8435637950897217,-0.9826362133026124
1772808353592405500,1.419405517578125,-1.584286960762739,-0.520993128105998,-3.1282483408778905,0.3563038408756256,1.512366533279419,-1.6406348943710327
1772808353612454700,1.43945458984375,2.23326992444396,4.387106246688962,-1.1312708788830783,0.591619610786438,-0.3771536648273468,-1.8940941095352173
1772808353632502500,1.45950244140625,4.284256697589159,8.976506751570104,0.2940559385012835,1.938825011253357,-3.020737171173096,-1.883328199386597
1772808353652550700,1.479550537109375,7.7506071125090115,13.305619074451922,0.9470515718899668,2.738888025283813,-3.635874032974243,-1.51865553855896
1772808353672598500,1.4995986328125,11.037221722525356,13.840018212097885,2.366220305036008,2.432690382003784,-2.132938861846924,-0.9535242319107056
1772808353692647700,1.519647705078125,11.705906581020354,13.688056549304722,2.871005225662887,2.0106067657470703,-0.6777487993240356,-0.7993586659431458
1772808353712695600,1.539695556640625,11.935848140072824,12.2391729152441,4.295865302318334,1.3970454931259155,-0.4124689400196075,-0.6621492505073547
1772808353732743400,1.559743408203125,11.981852350878714,11.353367400825023,4.639142440910637,0.5315811634063721,0.0684164986014366,-0.3351536095142364
1772808353752792600,1.57979248046875,9.222109405612946,11.079881299078464,3.823154851344228,0.2221276760101318,0.6408137083053589,-0.0898642241954803
1772808353772840400,1.59984033203125,7.140934414952993,10.800037937259674,3.381346611373126,0.1938880234956741,0.8360585570335388,0.1801938563585281
1772808353792888600,1.619888671875,6.084054540991783,10.418957722234726,1.9325699448183176,0.0644003078341484,0.3167797923088074,-0.0811256542801857
1772808353812937500,1.6399375,6.205906312203407,10.17444403247237,1.1267387153461574,-0.4285005927085876,0.4213527739048004,-0.3693804740905761
1772808353832985600,1.659985595703125,5.566231859615445,9.948158073318004,0.944386882725358,-0.921827793121338,0.9845349788665771,-0.3981024920940399
1772808353853033500,1.680033447265625,4.102369267609715,9.870815305918455,0.3367087199874222,-0.9630085229873656,1.245552897453308,-0.4352085888385772
1772808353873081600,1.70008154296875,2.87125160163939,9.278203633278608,0.3082168945943936,-0.6045423746109009,0.9662876725196838,-0.3771696388721466
1772808353893130500,1.720130615234375,2.8398814808636903,8.01383836222291,0.1778491143740713,-0.4172040224075317,0.5364795923233032,-0.1996258199214935
1772808353913178600,1.7401787109375,2.478112115508318,5.614239226937293,-0.2532862673480063,-0.7598481774330139,0.507590115070343,-0.0153158977627754
1772808353933226500,1.7602265625,0.9870026201367378,0.9111854548692704,-0.2064068080775439,-1.4327934980392456,0.8641509413719177,0.2590712308883667
1772808353953275600,1.780275634765625,-2.970466593629121,-5.081165200415254,0.5941474673723801,-2.146254777908325,0.1574265658855438,0.5745018720626831
1772808353973323500,1.800323486328125,-9.973764808261397,-12.935848188948633,0.5547262882186099,-2.875624418258667,-1.345317006111145,0.8092430233955383
1772808353993371400,1.820371337890625,-20.02736361621618,-15.085163234376909,-3.961451853661239,-2.9454503059387207,-1.8984732627868648,0.872475802898407
1772808354013420500,1.840420654296875,-23.336218115091324,-18.498242662358283,-6.887324395543336,-3.0638856887817383,-0.2629942893981933,0.371831327676773
1772808354033468400,1.860468505859375,-24.290185896110533,-20.227683943986893,-6.286214943671226,-3.580620527267456,0.7263028025627136,-0.4479459822177887
1772808354053516500,1.8805166015625,-22.663903375661373,-17.17470740945339,-4.020200395227969,-3.269995212554932,1.1739542484283447,-1.0099338293075562
1772808354073564400,1.900564453125,-18.22721272159219,-12.189013922846316,-1.2759312056869268,-2.132903814315796,1.8842761516571045,-0.8860747814178467
1772808354093613600,1.920613525390625,-13.493863179981709,-6.34238340561688,0.3170123781315982,0.3199879229068756,2.293489933013916,-0.0283792987465858
1772808354113661400,1.940661376953125,-5.749606313282251,-1.7612042011141775,0.7105622716944664,2.739577054977417,1.1477367877960205,0.8038679957389832
1772808354133709600,1.96070947265625,3.49392172793448,2.316908577117324,-0.2176599504325538,3.814391851425171,-0.0454071909189224,1.1986234188079834
1772808354153758500,1.980758544921875,10.36051722370386,5.836519457581639,-1.5407323350660502,3.6973938941955566,-0.2818275988101959,1.0381735563278198
1772808354173806600,2.000806640625,13.665396973729132,7.494707520857453,-1.351512224110961,2.960890293121338,-0.2066879421472549,0.7031043171882629
1772808354193854500,2.0208544921875,13.263835111689566,8.337926523959636,-0.1700823162974789,2.478391408920288,-0.4867405593395233,0.4885444343090057
1772808354213903600,2.040903564453125,11.639419554156063,8.539653211396931,1.0974278651878238,2.5270297527313232,-1.1200016736984253,0.4640111923217773
1772808354233951500,2.060951416015625,10.220835196769237,9.30809666723907,1.71168832892552,2.5756609439849854,-1.9381017684936523,0.4184423685073852
1772808354253999400,2.080999267578125,8.885144226646423,10.25339657315612,1.4897832152038812,2.4524624347686768,-2.2727084159851074,0.1931428760290146
1772808354274048500,2.101048583984375,7.8808911965012545,10.43092405436039,1.0064701216727494,1.824856758117676,-1.9097394943237305,-0.0361465215682983
1772808354294096400,2.121096435546875,6.080522275212407,10.565199253815411,0.2823999144338071,1.191487431526184,-1.1862868070602417,-0.283022791147232
1772808354314144500,2.14114453125,4.238084436739981,11.20320255832076,-0.9092981798179448,0.7166322469711304,-0.8674636483192444,-0.8316949605941772
1772808354334192600,2.161192626953125,3.2887808481395244,11.546461868995427,-1.665927425356209,0.2755881547927856,-0.5569579005241394,-1.6096186637878418
1772808354354241500,2.181241455078125,2.931699932861328,11.705623672425746,-1.1284664889868348,-0.276120513677597,0.119624376296997,-2.002336025238037
1772808354374289400,2.201289306640625,1.7947934592440724,11.423528732287885,-0.0249247988275252,-0.3528217673301697,0.4637406766414642,-1.900511384010315
1772808354394337500,2.221337646484375,1.5556442191243172,9.677501642039418,0.8901073032662272,-0.1851163953542709,0.2994109392166137,-1.645143747329712
1772808354414386400,2.241386474609375,2.702201441401243,5.322680292883515,2.65861218278259,-0.3925811052322387,0.407392680644989,-0.999147891998291
1772808354434434600,2.2614345703125,4.078378735691309,-0.7260831544965505,4.10898137922585,-1.611088752746582,0.4312947690486908,-0.1287700831890106
1772808354454482400,2.281482421875,-1.37937696711421,-7.779084434452653,3.233162129031121,-3.1498804092407227,-0.8199785947799683,0.288714587688446
1772808354474531600,2.301531494140625,-12.129336575996875,-13.902709353810549,1.1492644354090094,-3.5823373794555664,-1.7188585996627808,0.7764514684677124
1772808354494579500,2.321579345703125,-18.242659297049045,-18.436617688572404,-1.6818321198441086,-3.3796753883361816,-0.6886082887649536,1.2658092975616455
1772808354514627600,2.341627685546875,-22.09985144255161,-23.522138161587712,-3.2045719943627717,-3.807041645050049,-0.2424556463956833,0.6654195189476013
1772808354534675700,2.36167578125,-25.54197927036285,-22.593767763161654,-4.068741138774157,-3.772886276245117,0.4275954961776733,-0.3045061528682709
1772808354554724600,2.381724609375,-24.336115288114545,-16.219909607350825,-2.322629146721214,-2.2967395782470703,2.221438407897949,-0.6535471081733704
1772808354574772500,2.4017724609375,-17.313194673645494,-9.098065677314995,1.2811299433737993,-0.1265750974416732,2.5057592391967773,-0.3105208873748779
1772808354594820400,2.4218203125,-8.541496208915113,-2.633886030066013,2.9299159720540047,2.215536594390869,1.0928469896316528,0.8639897704124451
1772808354614869200,2.441869140625,0.0027928455889225,3.6014305010169743,0.6176521520026028,3.884831190109253,-0.3327932059764862,1.6639524698257446
1772808354634917400,2.46191748046875,8.034641496276855,8.87797097401619,-2.453911740231514,4.176465034484863,-0.2270305752754211,1.5260417461395264
1772808354654965500,2.481965576171875,12.442450923776626,11.179618269115686,-2.409542437151074,3.558229923248291,0.1252199858427047,1.13701593875885
1772808354675014100,2.50201416015625,13.701111261188982,11.510961516547203,-0.836228194366768,2.855186462402344,0.136529266834259,0.829277753829956
1772808354695062300,2.522062255859375,13.330218093657493,11.372273176825043,0.5445310939513146,2.322734832763672,-0.1004344597458839,0.5488620400428772
1772808354715110400,2.5421103515625,12.077136433160303,11.256871020144224,1.5108094904892146,1.6552366018295288,-0.5690345764160156,0.2895886301994324
1772808354735158300,2.562158203125,10.265642306745052,11.473065793395042,1.6995532161042093,0.884486973285675,-0.7399612069129944,-0.0084008257836103
1772808354755207400,2.58220751953125,8.532232121485471,11.699783129704,1.194651975621283,0.0319733060896396,-0.4434009194374084,-0.4247169494628906
1772808354775255300,2.60225537109375,7.29739397368729,11.947741991484165,0.7986925366986543,-0.8031042218208313,0.342704564332962,-0.8084909915924072
1772808354795303400,2.622303466796875,6.063650635388493,11.98538870831132,0.7681406735032796,-1.3272451162338257,0.9243893027305604,-1.0515910387039185
1772808354815352300,2.642352294921875,5.21918133996427,11.614040782749653,0.8417900662776082,-1.4511367082595823,0.9300580024719238,-1.1189122200012207
1772808354835400400,2.662400390625,4.823672786614298,10.893289052408932,0.7702845536641776,-1.3659316301345823,0.7071816325187683,-0.9648064970970154
1772808354855448300,2.6824482421875,4.295377226540446,9.74594214105904,0.4416184164874255,-1.219685435295105,0.5039796829223633,-0.6515070796012878
1772808354875497200,2.702497314453125,4.006470268300175,8.185110290163754,-0.0838237999819219,-1.1627763509750366,0.5636994242668152,-0.4263903796672821
1772808354895545300,2.72254541015625,4.129183040255308,5.715621626093983,-0.4933236154139042,-1.3151795864105225,0.9808301329612732,-0.3049894571304321
1772808354915593500,2.742593505859375,3.52236280952096,1.113923365175724,0.35723259870857,-1.4739435911178589,1.3060957193374634,-0.1081077083945274
1772808354935642400,2.762642333984375,2.648701906403899,-8.463200670835375,3.2440795366257427,-1.804978966712952,0.526614785194397,0.3470048308372497
1772808354955690500,2.7826904296875,-6.569155686983466,-15.770290693628787,1.7023654970459638,-3.1206836700439453,-2.942889213562012,0.5973315834999084
1772808354975738400,2.80273828125,-20.66608938977718,-17.678379400402306,-4.417991798818111,-2.7916359901428223,-3.158324718475342,0.2324717938899994
1772808354995786200,2.8227861328125,-28.64124292429685,-15.86317706711888,-10.22418918337226,-1.4027708768844604,0.4264222681522369,-0.4831222295761108
1772808355015835400,2.84283544921875,-26.79829216786623,-19.984578951978683,-5.039262579709291,-0.848495364189148,2.5362393856048584,-1.037183403968811
1772808355035883300,2.86288330078125,-23.57812366818189,-21.748827343094348,3.214427325683832,-0.0585091076791286,0.6307294368743896,-0.6303493976593018
1772808355055931400,2.882931396484375,-20.731618969786165,-17.84391249243021,4.4994399557098745,1.518307089805603,-1.073960304260254,0.2048668414354324
1772808355075980300,2.902980224609375,-16.177552813136575,-11.294276913952826,1.5280698373697696,3.2878851890563965,-1.1079527139663696,0.6608384251594543
1772808355096028400,2.9230283203125,-9.56238765465021,-4.741069906729459,-0.5672570127613842,4.203878879547119,-0.5394748449325562,0.7246050238609314
1772808355116076300,2.943076171875,-3.2192923013716936,1.3041332178205252,-2.0182915412455795,4.359007835388184,0.0007848222739994,0.1932547092437744
1772808355136125400,2.96312548828125,2.68253111076951,6.253009424161911,-1.9934720111571247,3.865171194076538,0.3449901938438415,-0.5124276280403137
1772808355156173300,2.98317333984375,6.589615122166276,10.710108075487613,-1.2203048877939582,2.903564214706421,0.8940550684928894,-0.900890290737152
1772808355176221400,3.003221435546875,8.114103155526518,13.329074768841268,0.0007307984925806,2.057981252670288,0.988221287727356,-0.8972212076187134
1772808355196269300,3.023269287109375,7.784683569633961,14.943386280989646,0.2618248900473117,1.7993005514144895,0.5098080635070801,-0.7160147428512573
1772808355216318500,3.043318359375,8.058548441565037,14.98901639778614,1.0136712852232157,1.6861308813095093,0.2687341868877411,-0.2147319614887237
1772808355236366300,3.063366455078125,8.891243128043413,15.09121420497894,0.3165270788326859,1.3064416646957395,0.2896154820919037,0.0520834997296333
1772808355256414200,3.083414306640625,9.595371055841444,14.23217511693239,-0.321197847122699,0.6480953097343445,0.2696664333343506,-0.0081820897758007
1772808355276463400,3.10346337890625,10.026844072020053,13.41561907982826,-0.6844153654597699,-0.2905680239200592,0.3965113461017608,-0.1499735414981842
1772808355296511200,3.12351123046875,8.835567418050765,12.83851594196558,-0.732768331348896,-1.024153470993042,0.4932544231414795,-0.1653148382902145
1772808355316559400,3.143559326171875,7.347480485370755,12.509368158751723,-1.0060251543842256,-1.4452577829360962,0.4783944487571716,-0.0948529466986656
1772808355336608500,3.1636083984375,5.379663578343391,12.216371885371208,-1.7717504373088475,-1.3471345901489258,0.1683288216590881,-0.1861619502305984
1772808355356656400,3.183656494140625,4.654479418513178,11.374529431319235,-1.9639926725640893,-1.2167235612869265,-0.0217724218964576,-0.1894682347774505
1772808355376704300,3.203704345703125,4.736830953985453,10.356853440499306,-2.0149758408263323,-1.3988956212997437,0.0070582083426415,-0.1584462374448776
1772808355396752400,3.22375244140625,4.305442693480849,9.34515360147953,-2.130981662488729,-1.5999377965927124,0.0423921793699264,-0.1844328939914703
1772808355416801300,3.24380126953125,3.6990333816349503,7.305964233633875,-1.6893695296116171,-1.5364621877670288,0.1715567260980606,-0.1548245251178741
1772808355436849400,3.263849365234375,3.0009242757350205,3.771697635829448,-0.266739696226269,-1.5651254653930664,-0.2463605254888534,-0.0155678074806928
1772808355456897300,3.283897216796875,1.8153496327996248,-3.1810569710016248,2.600149472419917,-1.7249246835708618,-0.897297739982605,0.313137948513031
1772808355476946400,3.303946533203125,-3.320091347682476,-13.556110085058211,5.085067468550801,-2.955219268798828,-2.710785388946533,0.6305710673332214
1772808355496994300,3.323994384765625,-15.935855349838732,-23.093183265709875,3.682211718432605,-3.704022645950317,-3.690451383590698,0.5827276110649109
1772808355517042400,3.34404248046875,-29.89550765709877,-23.144076417601102,-3.1168145081937317,-3.070560932159424,-2.2193429470062256,0.2163368910551071
1772808355537091300,3.36409130859375,-34.35892148292064,-24.232968217372893,-5.132437122491002,-2.0355849266052246,0.6295605301856995,-0.6997305750846863
1772808355557139500,3.384139404296875,-31.32903823920488,-21.400449958753583,-2.0552283562377096,-0.6740992665290833,1.901505708694458,-1.3433603048324585
1772808355577187300,3.404187255859375,-24.456061517965797,-16.1411768468976,2.334227230056375,1.096256136894226,1.5610228776931765,-1.1401889324188232
1772808355597237000,3.424237060546875,-14.826082090079783,-8.2908479619205,3.254436972250044,2.7655341625213623,1.11320698261261,-0.2280192822217941
1772808355617285400,3.444285400390625,-6.235136498340964,-0.3957978916853666,0.7972890265762805,3.900706052780152,0.330590546131134,0.4247612059116363
1772808355637333200,3.464333251953125,2.0609967105060814,5.95863777077496,-2.31859974507466,3.9954581260681152,0.0580129064619541,0.3882915079593658
1772808355657381400,3.48438134765625,7.663781646493077,10.61912373622656,-4.0839398769497866,3.3366198539733887,0.0786657035350799,-0.1698324233293533
1772808355677430300,3.50443017578125,10.90866080906391,13.41435066732764,-3.647423605906963,2.5902199745178223,0.1399900019168853,-0.6725523471832275
1772808355697478400,3.524478515625,12.57761927267909,14.576751939946412,-1.7036157893680035,1.9020819664001465,-0.2611295282840729,-0.7236080765724182
1772808355717526300,3.5445263671875,12.429362309622764,14.744443086791035,0.3597134557388722,1.5238490104675293,-0.829619288444519,-0.2768592536449432
1772808355737575200,3.5645751953125,12.039444123625756,14.369116905248164,0.9620767070643604,1.2077503204345703,-1.38047456741333,0.2090643942356109
1772808355757623300,3.584623291015625,11.837038221752644,14.283753328478335,0.5822748414121568,0.3422903716564178,-1.6210441589355469,0.4467305839061737
1772808355777671200,3.604671142578125,10.581388172072172,14.190751219654082,-0.088695936062932,-0.6874274015426636,-1.2178999185562134,0.4360828995704651
1772808355797720300,3.62472021484375,8.516798405510187,13.90272688946724,-0.6477334020115435,-1.411197304725647,-0.6133900284767151,0.2717607915401459
1772808355817768200,3.644768310546875,7.078833055827022,13.63892047021389,-1.383094672463089,-1.8621116876602173,-0.2237995266914367,-0.0963546186685562
1772808355837816300,3.66481640625,6.070684187287092,12.99368312280178,-1.2413994060099125,-2.128026247024536,0.078275665640831,-0.2533812820911407
1772808355857864200,3.6848642578125,5.052918764618039,11.78542260080576,-0.6240105811186134,-2.1542344093322754,-0.1583135724067688,-0.1106097847223281
1772808355877913300,3.704913330078125,4.3145203184276815,10.509634602981803,-0.7051059790499508,-2.052285671234131,-0.5694491863250732,0.0881197974085807
1772808355897961200,3.724961181640625,3.3900165323019027,8.66384482373297,-0.8951143177732824,-1.8357521295547483,-0.7737326622009277,0.3014944195747375
1772808355918009300,3.74500927734375,2.287716969424486,4.976833303803205,-0.8694844211500138,-1.54202139377594,-0.6696683764457703,0.4882738292217254
1772808355938058200,3.765058349609375,0.8579688284665345,-0.5825631568342446,-0.2665255420189351,-1.8788470029830933,-0.6071715354919434,0.5978963971138
1772808355958106400,3.7851064453125,-3.417020859083533,-8.556986038991809,1.3947627522945405,-2.5755369663238525,-1.2284082174301147,0.6612857580184937
1772808355978154200,3.805154296875,-14.77165024266839,-13.778801234591006,0.0355285190967842,-3.067168951034546,-2.942061185836792,0.544304370880127
1772808355998203400,3.825203369140625,-24.994766243851185,-16.744141571247578,-3.201832048004865,-2.3720834255218506,-2.1028411388397217,0.331547349691391
1772808356018251300,3.845251220703125,-27.586265084564683,-18.453440228557582,-4.320287503652274,-2.1289172172546387,0.3587169647216797,0.4650036990642547
1772808356038299400,3.86529931640625,-29.318519085526464,-19.19196960765123,-2.959003534850478,-1.5849560499191284,0.851859450340271,0.3063730001449585
1772808356058347300,3.88534716796875,-26.972895870578288,-16.396524065363405,-1.54722286612913,0.0816135630011558,0.1710601598024368,0.2281538099050521
1772808356078396400,3.905396484375,-18.11540420548916,-11.42345858966112,-1.1268780507516116,1.3651081323623655,0.2322337031364441,0.3227479457855224
1772808356098444300,3.9254443359375,-8.574030697295068,-5.507414344465732,-2.221070952606201,2.0760982036590576,0.8889830708503723,0.2007096707820892
1772808356118492200,3.9454921875,-2.041644359782338,0.1434013397186994,-2.348338465256244,2.639991283416748,0.782659649848938,-0.0800642073154449
1772808356138541300,3.965541259765625,3.9543724167943,5.540145232200622,-2.1160236012011766,2.74462366104126,1.0186411142349243,-0.2981423735618591
1772808356158589200,3.985589111328125,8.347706744217872,9.351481050935387,-1.3564236692890523,2.597262144088745,1.4023977518081665,-0.4705291390419006
1772808356178637300,4.00563720703125,11.18580134166479,11.0105079031229,0.3880463642431422,2.2333648204803467,1.2151923179626465,-0.3512375354766845
1772808356198686200,4.025686279296875,12.558693622934818,11.772391269797088,1.5004852264821529,1.6756995916366575,0.7441374659538269,-0.0803208500146865
1772808356218734300,4.045734375,12.527826190984248,11.966292378175256,1.3337898126766086,1.0661860704421997,0.3356938064098358,-0.0013488908298313
1772808356238782200,4.0657822265625,11.885233220601082,11.994532968753576,0.6095760322485119,0.5128504037857056,0.3302755355834961,-0.1076929718255996
1772808356258830300,4.085830322265625,11.373075140857695,11.75893791398406,0.3153258132841438,-0.1384500116109848,0.4892651736736297,-0.2157630920410156
1772808356278879200,4.105879150390625,10.058214192795752,11.443467942988873,0.3766626908436417,-0.559932291507721,0.5870819091796875,-0.2213000953197479
1772808356298927400,4.12592724609375,8.679858969944714,11.103926191532612,0.1878869626551866,-0.719457745552063,0.4836488664150238,-0.1258087456226349
1772808356318975200,4.145975341796875,7.900468588152528,10.1832668058753,-0.2074227801870554,-0.8830310702323914,0.1129561811685562,-0.0826983973383903
1772808356339024400,4.1660244140625,6.826216139107943,9.283535641956329,-0.5730684024538845,-1.067043662071228,-0.1251870542764663,0.0114096291363239
1772808356359072300,4.186072265625,5.360983427792787,8.272933535045384,-1.1115603623714296,-1.0776442289352417,-0.1312247812747955,0.102336436510086
1772808356379120000,4.2061201171875,3.497471529370546,6.717485130754113,-1.6403784119494258,-0.968313455581665,-0.0759262591600418,0.0625238344073295
1772808356399169300,4.226169189453125,1.9921774413019415,4.043375226849317,-1.1494831927262246,-0.8327212929725647,0.2092806696891784,0.1584907919168472
1772808356419217200,4.246217041015625,0.4822603696078061,-1.1196107631623744,0.7312968705568462,-0.7011893391609192,0.1499534696340561,0.4671663641929626
1772808356439265300,4.266265380859375,-1.3129822947084904,-6.4247448779612775,1.7608070184901357,-0.9589486718177797,-0.5926896929740906,0.7064216136932373
1772808356459314200,4.286314208984375,-7.253279522150755,-9.40313817293644,-0.7001398810751736,-1.753375768661499,-1.3000816106796265,0.5568872094154358
1772808356479362300,4.3063623046875,-14.51504513309598,-12.991288921141624,-2.480828388729692,-1.9042739868164065,-0.7566587924957275,0.3367356359958648
1772808356499410200,4.32641015625,-20.734607045686243,-14.189568147349355,-4.521567908626794,-2.0879549980163574,-0.3065986633300781,0.0923343375325203
1772808356519458300,4.346458251953125,-24.8618716850996,-15.065766459989549,-4.587830479085445,-1.8953001499176023,0.173921912908554,-0.3737677037715912
1772808356539507200,4.366507080078125,-25.127995149123667,-14.187791200804709,-2.528023855146765,-1.164004683494568,0.6300178170204163,-0.5189430713653564
1772808356559555300,4.386555419921875,-21.32665056304932,-12.15066461070776,-0.3526989008016884,-0.2376350611448288,0.5821011066436768,-0.3976393043994903
1772808356579603200,4.406603271484375,-13.974091166979074,-8.089141732749342,0.5809510454624891,0.5805563926696777,0.6309511661529541,-0.2629105746746063
1772808356599651800,4.42665185546875,-5.980480769270658,-3.534116960200667,0.8049713247071951,1.178028225898743,0.6089437007904053,-0.1300410628318786
1772808356619699700,4.44669970703125,0.7368710904926061,0.8399123627722263,0.4017125956218689,1.643713116645813,0.5034424066543579,-0.0171429440379142
1772808356639747800,4.466747802734375,5.973803775724768,4.396987589234113,0.0736003660008311,1.927675485610962,0.3857297003269195,0.1230404078960418
1772808356659795700,4.486795654296875,9.946109908616542,6.806123199149966,0.1045569375395774,1.7430216073989868,0.1147984117269516,0.281201034784317
1772808356679844900,4.506844970703125,12.541719107258318,8.336794889581203,-0.2879858248073607,1.173628330230713,0.0828610584139823,0.2375461757183075
1772808356699892700,4.526892822265625,12.668709994924068,8.908248038858174,-0.3428157316256314,0.6915995478630066,-0.0727357491850853,0.0662480816245079
1772808356719940900,4.54694091796875,11.669981865680215,8.861692623910308,-0.0741825498029589,0.5473052263259888,-0.3413287997245788,-0.0358827784657478
1772808356739989800,4.56698974609375,10.82238771623373,8.684663739877939,0.38642223364003,0.5543696284294128,-0.5974506139755249,0.0204320345073938
1772808356760038000,4.587037841796875,9.933937824785708,8.90264247393608,0.5516995242759585,0.5912504196166992,-0.7491853833198547,0.1380302757024765
1772808356780085800,4.607085693359375,9.401579837578534,8.74805338524878,0.209728719041869,0.2892594337463379,-0.7484785318374634,0.0760082155466079
1772808356800135000,4.627135009765625,8.485207335460185,8.421093467468022,-0.4086617571726441,-0.1495685279369354,-0.3106798529624939,-0.1754783391952514
1772808356820182800,4.647182861328125,7.978054516658187,7.9214815655648705,-0.5623752320691943,-0.6091917753219604,0.3165648281574249,-0.3792264461517334
1772808356840230700,4.667230712890625,7.044148695936799,7.208465397912263,-0.2971031241774559,-0.8163416385650635,0.4386647939682007,-0.3766542375087738
1772808356860279800,4.68727978515625,5.536807612210512,6.393311044299602,-0.3791625448353588,-0.6245879530906677,0.0254103895276784,-0.2718487083911896
1772808356880327700,4.70732763671875,4.259405749449134,5.217905328679085,-0.7714408110272138,-0.2789977490901947,-0.5228453278541565,-0.2180981040000915
1772808356900375800,4.727375732421875,3.097747404152155,2.5173604223132133,-0.5030987211056054,-0.0355629213154315,-0.8857304453849792,-0.2207880914211273
1772808356920423700,4.747423583984375,1.736602259299159,-2.643127905663848,1.4243975737102328,-0.2674168944358825,-1.0462290048599243,0.0842983424663543
1772808356940472800,4.767472900390625,-1.842782414126396,-8.252332061043381,2.4935309261754157,-1.354603886604309,-1.6346968412399292,0.3960623443126678
1772808356960520700,4.787520751953125,-11.277674154198168,-10.550741689395904,0.5198468076150864,-2.166929006576538,-2.118780374526977,0.5075578093528748
1772808356980568800,4.80756884765625,-20.93551890960932,-12.268050634682178,-1.821950638499856,-1.9619652032852173,-1.4587091207504272,0.8888353109359741
1772808357000617700,4.82761767578125,-24.87282328722477,-10.326016403687,-4.844884793730079,-0.9641155004501344,0.3087681531906128,0.7752724885940552
1772808357020665900,4.847665771484375,-25.096201834499837,-10.294821639478206,-3.8910780484914778,-0.0879914835095405,0.3102691769599914,0.4068463146686554
1772808357040713700,4.867713623046875,-20.36869868083,-10.4708515756011,-1.6927347682610152,0.5721623301506042,-0.1545426100492477,0.4793517887592315
1772808357060761600,4.88776171875,-13.885586369574067,-8.079084449115395,-1.6197298839353025,1.082924485206604,-0.2575588226318359,0.4165225923061371
1772808357080810800,4.907810791015625,-6.901341814979911,-3.682779581448436,-1.159594179308787,1.5235185623168943,0.2716148495674133,0.1238453835248947
1772808357100858600,4.927858642578125,0.1908370446324348,0.5257084661900997,-0.570850178415142,1.49780011177063,0.6179441809654236,-0.1922858506441116
1772808357120906800,4.94790673828125,5.237400302743912,3.7825153824418782,0.1781096102074719,1.2178019285202026,0.4660457074642181,-0.4756480157375335
1772808357140955600,4.96795556640625,8.263681722575425,6.171553960746526,1.091471806327626,1.132303237915039,0.5599088668823242,-0.4949138462543487
1772808357161003800,4.988003662109375,9.800574479478597,7.674628034678101,1.933987118139863,1.2399576902389526,0.4498434662818908,-0.2750455141067505
1772808357181051600,5.0080517578125,11.047508138740062,8.222720182111859,2.069018981181085,1.218666672706604,0.1675388664007187,-0.0926008000969886
1772808357201100800,5.028100830078125,11.80559912739396,8.334757830795645,1.768175939822942,1.0324515104293823,0.0821344777941703,0.0250227972865104
1772808357221148700,5.048148681640625,11.716105318951604,8.11029382637143,1.3404248667769134,0.7169957160949707,0.0263128615915775,-0.0032558622770011
1772808357241196800,5.06819677734375,11.307351499581335,7.95065154594779,0.8790430345468223,0.2998322248458862,0.0572141967713832,-0.1412713229656219
1772808357261245700,5.08824560546875,10.570172366052866,8.37141612110734,0.4240960576698184,-0.1791188716888427,0.1797586232423782,-0.3119825720787048
1772808357281293800,5.1082939453125,8.860372773483395,8.179213048818706,0.2071799296081997,-0.5128498673439026,0.2571640610694885,-0.3666020035743713
1772808357301341700,5.128341796875,7.20908732920289,7.694799885091185,-0.1075062523318454,-0.5754232406616211,0.1439468562602996,-0.3842550814151764
1772808357321389600,5.1483896484375,5.997744623282552,7.148543136391043,-0.3428113477114587,-0.5019502639770508,-0.1318047940731048,-0.36208575963974
1772808357341438700,5.168438720703125,4.628216850009561,6.295603534263372,-0.5415994244135915,-0.2741706967353821,-0.3148863613605499,-0.2275972366333007
1772808357361486600,5.188486572265625,3.3568945994228123,4.078881424516439,-0.8084313289679587,-0.0264716651290655,-0.8096291422843933,-0.0381380952894687
1772808357381534700,5.20853466796875,2.4301398194998503,0.7478887435913085,-1.1076060717877,-0.223321720957756,-1.6256537437438965,0.3426626622676849
1772808357401583900,5.228583984375,-0.6398521472424268,-2.457209028211236,-2.3922192541673777,-0.9750264286994934,-2.25454044342041,0.6471421122550964
1772808357421631700,5.2486318359375,-6.977726551002264,-5.05293513123095,-3.8956656685426823,-1.3913729190826416,-2.039689779281616,1.0846775770187378
1772808357441679600,5.2686796875,-15.141933169347046,-5.61016101771295,-6.495818648093938,-0.6931039690971375,-1.65957772731781,1.410648226737976
1772808357461727700,5.288727783203125,-18.518958118128776,-7.912554162743687,-7.435659119561314,0.4946961104869842,-1.2120652198791504,1.491464376449585
1772808357481776600,5.308776611328125,-16.7180298093915,-13.3847002099514,-5.480341628623008,0.1456409692764282,-1.3693996667861938,1.1109448671340942
1772808357501824800,5.32882470703125,-16.18200219376087,-14.772520011240244,-5.300898084664344,-1.0106263160705566,-1.5305719375610352,0.1809998005628585
1772808357521872600,5.34887255859375,-15.630374857938287,-12.103622289025784,-6.22315263055861,-1.915414571762085,0.0927410647273063,-1.1254245042800903
1772808357541921800,5.368921875,-13.46828917826414,-6.896629399505257,-2.5333184544235468,-1.9334263801574707,2.49458122253418,-2.060943841934204
1772808357561969700,5.3889697265625,-9.696702601593731,-2.5573592552244664,3.361363269269466,-0.8752158284187317,2.8316292762756348,-1.8745675086975095
1772808357582017800,5.409017822265625,-4.387944451078773,0.3665630293726921,6.177120362702012,0.8468433618545532,1.1959775686264038,-0.992247462272644
1772808357602067200,5.429067138671875,2.276549678722024,2.652497207033634,5.389912585157155,2.1311957836151123,-0.1659305393695831,-0.2252980172634124
1772808357622115000,5.449114990234375,8.461970252257585,4.300166798904538,3.4697596388414502,2.3394434452056885,-0.2843332886695862,0.0733976364135742
1772808357642163200,5.4691630859375,12.295880890893937,5.079041047868133,2.2979393804922696,1.7121483087539673,0.1306311637163162,0.0775036066770553
1772808357662211000,5.489211181640625,13.050038047230244,5.38953264592886,1.7000731483250855,1.1131521463394165,0.3155476450920105,-0.1416149586439132
1772808357682260200,5.50926025390625,12.412224127817153,5.817839307031036,1.0021589074101298,0.8897050619125366,0.4317762851715088,-0.5520967841148376
1772808357702308000,5.52930810546875,11.650152545094487,6.449239852270484,0.9521372045911848,0.7763815522193909,0.1525753736495971,-0.7572082281112671
1772808357722356000,5.54935595703125,11.251330921673777,7.109927866792678,1.2917764250725507,0.4445000290870666,-0.2145552784204483,-0.6735410094261169
1772808357742405000,5.569405029296875,10.124825138300658,7.588476522400975,0.9091730190683156,0.0769970268011093,-0.1912257075309753,-0.6845348477363586
1772808357762453000,5.589452880859375,8.580233059066533,8.065108530732989,0.4421346954464912,-0.1683981716632843,0.1404583752155304,-0.7116233110427856
1772808357782501000,5.609501220703125,7.158742458844184,8.073578252914547,-0.2124263788943179,-0.316484123468399,0.2486066967248916,-0.8443140387535095
1772808357802550000,5.629550048828125,5.263602080971002,7.832591568234562,-0.5035286369554698,-0.1587860137224197,-0.0817567110061645,-0.9027650356292723
1772808357822598100,5.64959814453125,4.414412186765671,7.186030863264203,-0.4516825317209586,-0.0563478954136371,-0.3841501176357269,-0.6323165893554688
1772808357842646000,5.66964599609375,3.4077544335663315,6.005400106471777,-1.1634763545043765,0.0084780976176261,-0.4672934114933014,-0.2720767855644226
1772808357862694100,5.689694091796875,2.038065332251787,3.190461928206682,-2.102425283959508,0.1469641327857971,-0.6746694445610046,0.0057993596419692
1772808357882743000,5.709742919921875,0.6401975996792316,-2.453531216481328,-2.1221394537329674,0.1744852662086486,-1.07086980342865,0.4427982866764068
1772808357902791200,5.729791259765625,-2.665743057575822,-9.244205502086878,-3.562563887006044,-0.2584482133388519,-2.075192213058472,1.042024850845337
1772808357922839000,5.749839111328125,-8.957843552154301,-11.71499589640498,-8.451282854026555,-0.2901630103588104,-2.5262856483459477,0.7852217555046082
1772808357942888200,5.76988818359375,-14.333196866083144,-13.461230491924283,-10.485700769686698,-0.1907923966646194,-2.192753553390503,0.4169106781482696
1772808357962936000,5.78993603515625,-18.72735653841496,-16.662252392590045,-9.354730992642043,-0.2774468660354614,-2.213423490524292,0.5270105600357056
1772808357982984200,5.809984130859375,-20.840145980000496,-16.05285091319084,-10.038050525689124,-0.0728654935956001,-1.8149073123931885,-0.2829264998435974
1772808358003032300,5.8300322265625,-17.96860620906949,-14.235879816669224,-6.976917572706937,-0.3061789274215698,-0.4722170829772949,-1.3441951274871826
1772808358023081000,5.8500810546875,-14.914094720053672,-10.186295798307656,-1.6459272782482206,-0.554315447807312,0.7025809288024902,-1.8206188678741453
1772808358043129000,5.870129150390625,-11.984033786571024,-3.335289501336217,2.5340689805299044,0.2237538695335388,1.3550196886062622,-1.7631431818008425
1772808358063177200,5.89017724609375,-6.06141776176989,2.012988174140453,5.018613174912333,1.258934497833252,1.3116803169250488,-1.2119038105010986
1772808358083226000,5.91022607421875,0.457525156801939,5.602274648377299,5.729800373572111,1.9210504293441768,0.808814525604248,-0.4668712615966797
1772808358103274000,5.93027392578125,5.938305176842213,8.788937768822908,4.542091933478415,2.071276426315308,0.7741611003875732,0.1106229797005653
1772808358123322400,5.950322265625,9.790381586766244,10.479864903140069,3.011559651517868,1.6941078901290894,0.9525474309921264,0.3472893238067627
1772808358143371000,5.97037109375,11.847734972333908,10.544578490591048,2.2312854726284743,1.1095069646835327,0.9164045453071594,0.4420088529586792
1772808358163419100,5.990419189453125,12.445275333547592,10.297939479237794,1.246636283750087,0.6363085508346558,0.8592296838760376,0.3576037287712097
1772808358183467300,6.01046728515625,11.95304594311118,9.942953490412236,0.6486557044882327,0.2502143979072571,0.819779098033905,0.2647942304611206
1772808358203515100,6.03051513671875,11.118614057576655,9.731942841801049,-0.2147978572660125,-0.0877608507871627,1.0755223035812378,0.1015034243464469
1772808358223564000,6.05056396484375,10.085798949813842,9.510100418052076,-1.1207162401862445,-0.5538517236709595,1.5149344205856323,-0.228684514760971
1772808358243612200,6.070612060546875,8.51194336669445,9.056327307260036,-1.526532252538949,-1.0099270343780518,1.719659447669983,-0.5361242890357971
1772808358263660300,6.090660400390625,6.258867502540349,8.479910398095846,-1.3500839448735118,-1.0455864667892456,1.0629756450653076,-0.7863779664039612
1772808358283709000,6.110708984375,5.1957431812316175,8.00085496200919,-1.31936600439623,-0.8617778420448303,0.2007824778556823,-0.8687243461608887
1772808358303757300,6.13075732421875,4.284522070527077,7.536281640261411,-1.2281551629029213,-0.5556227564811707,-0.2803728878498077,-0.7399778962135315
1772808358323805200,6.15080517578125,3.2156594978272914,6.920901086452603,-1.2963999932199717,-0.2102395892143249,-0.5705772042274475,-0.5579184293746948
1772808358343853300,6.170853271484375,2.716267376154661,5.099130480694771,-1.3380826875649392,0.0084810862317681,-0.4182165861129761,-0.4610112309455871
1772808358363902200,6.190902099609375,1.8662082978993653,1.6388754600405693,-0.2784816450115293,0.0686917528510093,-0.2127377986907959,-0.1946708261966705
1772808358383950300,6.210950439453125,0.889089358395338,-4.501633374100924,1.718383004258573,-0.1068551167845726,-0.4280570745468139,0.2628481686115265
1772808358403998200,6.230998291015625,-3.7567876514673233,-9.18940540588498,1.6980881119877098,-0.8264032602310181,-1.6582963466644287,0.4221232235431671
1772808358424047000,6.251047119140625,-10.37596146107316,-12.909766822230814,0.6551844486698508,-1.315321922302246,-1.8766061067581177,0.3758049011230469
1772808358444095200,6.27109521484375,-15.132244134503605,-13.706715657067296,-0.0138014751309528,-1.4527250528335571,-0.3846135139465332,0.7868510484695435
1772808358464143400,6.291143310546875,-18.1285676384449,-15.153699594986438,0.3007519838075153,-1.7843592166900637,0.5036909580230713,0.8525192141532898
1772808358484192300,6.311192138671875,-18.702233787596224,-13.56915076841712,0.1031841878816485,-1.8132998943328855,0.84492427110672,0.3308565020561218
1772808358504240400,6.331240478515625,-15.21652517673373,-10.491457141256332,1.605803796043992,-1.3894425630569458,1.4560807943344116,-0.1205112338066101
1772808358524288300,6.351288330078125,-8.661618379855156,-6.591611264419555,3.0692431942015883,-1.536507487297058,1.9801722764968872,-0.0467090047895908
1772808358544336100,6.371336181640625,-4.443095260414481,-2.7339509168833493,1.8550807546854016,-1.5501463413238523,1.5621232986450195,0.20335753262043
1772808358564385300,6.39138525390625,-2.9958816053926944,-0.4782581482291221,-0.0588106470175087,-0.6672877073287964,0.5172964930534363,0.5595654249191284
1772808358584433200,6.41143310546875,-0.7675801170110702,1.981686442425847,-1.280179949172586,0.5368561744689941,0.3778447210788727,1.1273595094680786
1772808358604481000,6.43148095703125,2.9309932458966967,3.739215169897675,-2.550757665002346,1.2211295366287231,0.5991975665092468,1.186225414276123
1772808358624530000,6.451530029296875,6.805422941926121,4.675321715533733,-2.797963954849541,1.225341558456421,0.7203083634376526,0.8605802059173584
1772808358644578000,6.471578125,9.36158451179862,4.785165653565525,-2.137964799374342,0.8752789497375488,0.5582960844039917,0.4863062500953674
1772808358664626000,6.4916259765625,10.108047021979091,5.028945183834433,-1.3146905599310994,0.5236456394195557,0.2854401171207428,0.2225585579872131
1772808358684674000,6.511674072265625,9.292025822404026,5.83329172770679,-0.6782753283347934,0.3974850475788116,0.2343715280294418,0.1613631546497345
1772808358704723000,6.531722900390625,8.096252441537379,6.829187263873219,-0.6438777494966983,0.5599778294563293,0.4062930345535278,0.2578617334365845
1772808358724771000,6.55177099609375,7.359673611989617,7.564617507907748,-0.9406857631850988,0.6813903450965881,0.4622191786766052,0.2943502962589264
1772808358744819000,6.57181884765625,7.334436294880509,7.919074504423141,-1.0315086282741277,0.6548386812210083,0.533789336681366,0.322045087814331
1772808358764868000,6.5918681640625,7.265667294558883,8.00152950026989,-1.393871940934658,0.447233498096466,0.6018564105033875,0.2620919346809387
1772808358784916000,6.611916015625,6.370012001776695,7.871506697562337,-1.747718112075329,0.4090058505535126,0.6374908089637756,0.0896241888403892
1772808358804963800,6.6319638671875,5.8705935766190285,7.203585809177159,-1.1200083111125976,0.3914662301540375,0.4689944982528686,0.0365422964096069
1772808358825013000,6.652012939453125,4.405800425764918,6.567822392553091,-0.9945199369642884,0.5249603986740112,0.2816047966480255,0.111417107284069
1772808358845060900,6.672060791015625,2.347124851682782,4.178860386615991,-0.5495429307639599,0.792457103729248,0.1812199056148529,0.2834176421165466
1772808358865109000,6.69210888671875,-0.0620557664185762,-0.8686895444452762,1.0561186072651296,0.9674083590507508,0.5000073909759521,0.4474701583385467
1772808358885156900,6.712156982421875,-5.363078354245424,-9.809162275081873,3.813879657998681,1.044183611869812,0.087789699435234,0.6849130988121033
1772808358905206000,6.7322060546875,-16.12501364760399,-15.31786958196759,1.6136653231993316,1.4342610836029053,-0.9225351214408876,1.158022165298462
1772808358925254000,6.75225390625,-22.747260873305795,-17.746353450953958,-2.6804455366671083,3.198711395263672,0.1004142165184021,0.949578821659088
1772808358945302000,6.772302001953125,-18.58241732160449,-20.04953102436065,-0.9911477571174502,3.9607417583465576,0.8535146117210388,0.642424464225769
1772808358965350000,6.792349853515625,-10.984046597176787,-21.186108119893078,1.359083097756654,2.715332508087158,-0.0347588956356048,0.5072817206382751
1772808358985399000,6.81239892578125,-6.879287219560146,-17.798656469643117,-0.6495544068936259,1.1548479795455933,-0.2405851185321808,0.0779187381267547
1772808359005447000,6.832447021484375,-5.158510890424251,-12.380678650474549,-2.46396230186373,0.921387016773224,0.6383575201034546,-0.7734705209732056
1772808359025494800,6.852494873046875,-2.5787065791577097,-6.988391737401485,-1.0903278969895094,1.0106834173202517,0.6724932193756104,-1.2664408683776855
1772808359045544000,6.8725439453125,0.170853118006885,0.2785492303550243,0.5817638231500983,1.078554391860962,0.5563626885414124,-1.391843557357788
1772808359065591800,6.892591796875,2.7582448156625032,6.081588443139195,1.6546430841453372,0.912254810333252,0.5388443470001221,-1.2513437271118164
1772808359085640000,6.912639892578125,4.125926376546919,10.414410141932963,2.008376880952716,0.844555139541626,0.6039249897003174,-0.6691200137138367
1772808359105688800,6.932688720703125,4.109403111769259,12.75865388522148,1.756319059421122,1.2906385660171509,0.202332392334938,-0.0295567922294139
1772808359125737000,6.952737060546875,6.216562730774284,13.883582628536224,1.0076327357113362,1.3886479139328003,-0.1663396954536438,0.3889748454093933
1772808359145784800,6.972784912109375,8.641160113716126,14.11781457825899,-0.0854668910138309,0.6340282559394836,-0.163782387971878,0.4739693701267242
1772808359165833000,6.9928330078125,9.512403434297442,13.26955641194582,-1.103023785498738,-0.5505201816558838,0.0843945071101188,0.2915104329586029
1772808359185881900,7.0128818359375,7.834303632849455,13.03520054358244,-2.1392127536088226,-1.297230839729309,0.2714965045452118,0.0268743149936199
1772808359205930000,7.032929931640625,5.993088321909308,12.287003172433376,-2.2811028119817376,-1.6092039346694946,0.1272131353616714,-0.0487917736172676
1772808359225977900,7.052977783203125,4.367477124850452,11.317325781106948,-2.552305478966236,-1.560789704322815,-0.2146104127168655,0.0378218293190002
1772808359246027000,7.073027099609375,3.5969665073454378,10.056757564246654,-2.9936081075027583,-1.4369357824325562,-0.6528696417808533,0.0857452899217605
1772808359266075000,7.093074951171875,2.9044816710680723,9.01931830381453,-3.7270845871210097,-1.3126778602600098,-0.8513308167457581,-0.024823322892189
1772808359286122800,7.113122802734375,2.9956290919363497,7.601777318000793,-3.702665016135573,-1.3354278802871704,-0.8859779834747314,-0.2414312958717346
1772808359306171000,7.1331708984375,2.707386150562763,6.938230991438031,-3.3096757521301505,-1.2737410068511963,-0.7359472513198853,-0.3743975162506103
1772808359326220000,7.153219970703125,1.329004916487634,6.562279371473193,-2.593579738640785,-0.6784111261367798,-0.9227060079574584,-0.4117043018341064
1772808359346268000,7.173267822265625,0.9406935811653732,6.189129949447512,-1.6152869330517947,0.1411133706569671,-1.0512712001800537,-0.363202691078186
1772808359366315800,7.193315673828125,1.384141989558935,3.848425486201048,-0.0910891148097813,0.7444582581520081,-0.7663659453392029,-0.2886194288730621
1772808359386365000,7.213364990234375,3.5664515420943497,-2.6085236252725124,3.445174940422177,1.3255250453948977,0.1007419675588607,-0.0351073294878006
1772808359406412800,7.233412841796875,4.343893420167267,-12.013187400341032,6.892440715643764,0.4110421240329742,-1.5478394031524658,0.3563581705093384
1772808359426461000,7.2534609375,-0.4381415341570973,-13.91044491649866,2.2896897308021784,-3.03806734085083,-3.8772494792938232,0.650668740272522
1772808359446508800,7.2735087890625,-9.16187910105586,-20.763105994939803,-3.172958712480962,-4.806576728820801,-1.133873701095581,0.9050559401512146
1772808359466558000,7.293557861328125,-19.768705665767197,-14.738869086050986,-7.049751922771335,-2.9327263832092285,2.375459909439087,-0.2846192121505737
1772808359486605800,7.313605712890625,-24.34483635470867,-18.346505455970764,-2.1273542657718063,-0.5811248421669006,0.816917896270752,-0.7052209377288818
1772808359506654000,7.333654052734375,-16.97893933815956,-18.35318654116988,2.210178094930946,0.2359455078840255,-0.9979713559150696,0.1727416068315506
1772808359526702800,7.353702880859375,-8.747123410922288,-13.98735630674362,1.6033378443218766,-0.0886677429080009,-1.1569219827651978,0.7866159081459045
1772808359546751000,7.3737509765625,-2.081873494318128,-7.066828729778528,-0.1278714333599433,-0.9492506384849548,-0.2160641700029373,0.3695289492607116
1772808359566798800,7.393798828125,-0.2740624403297901,0.4634299969315528,-0.7122954521626234,-1.2891968488693235,0.5390197038650513,-0.1272885650396347
1772808359586846700,7.4138466796875,-1.4747089801907538,4.119603895527124,0.43829844175186,-0.3234205245971679,-0.1193368360400199,-0.1667509526014328
1772808359606895400,7.433895263671875,-0.1113420676350593,5.985134148034453,0.7639766856916248,0.7614700794219971,-0.6768541932106018,0.1216880604624748
1772808359626943200,7.453943115234375,2.4423662638664245,7.445118437302112,0.7731440347485243,1.2752704620361328,-0.6501716375350952,0.2539339363574981
1772808359646991600,7.47399169921875,5.332870847508311,7.882976186081766,-0.0565296782071702,1.1966181993484497,0.326048195362091,0.1613444834947586
1772808359667040300,7.494040283203125,6.135656133413314,8.273660680276155,0.2732671982988715,1.032970309257507,0.8931325674057007,0.0440122000873088
1772808359687088400,7.51408837890625,6.531931579482555,8.170207320064305,0.5551800233354792,0.9754330515861512,0.7120715379714966,-0.0304622389376163
1772808359707136500,7.534136474609375,7.0633917410671705,7.3140540165871375,0.9603973026100544,0.9485116004943848,0.3534944057464599,-0.0534033589065074
1772808359727184600,7.5541845703125,7.773104190999269,8.23648391904831,0.4241997737726196,0.6157898306846619,0.1405603140592575,-0.1074551418423652
1772808359747233300,7.5742333984375,7.371729375964403,8.953740208488702,-0.316482399440743,0.3646890521049499,0.4801490604877472,-0.2181615084409713
1772808359767281400,7.594281494140625,6.768910782086849,9.347678736042976,-0.7001197150699794,0.2598216235637665,0.8862715363502502,-0.3469393253326416
1772808359787329500,7.61432958984375,6.871088715535402,9.483382506996392,-1.0012728452906012,-0.0034513575956225,0.9074846506118774,-0.5149156451225281
1772808359807378400,7.63437841796875,6.697353612351417,9.316063700595498,-0.9947926164258272,-0.2858868241310119,0.7545900344848633,-0.5876167416572571
1772808359827426600,7.654426513671875,5.345804563361406,8.843912052547932,-0.6921027781572192,-0.1192338466644287,0.5255180597305298,-0.3952943682670593
1772808359847474400,7.674474365234375,4.129197068780661,7.955429427874088,-0.8281096967756748,0.2591184079647064,0.0629050955176353,-0.2572367489337921
1772808359867522600,7.6945224609375,3.9726054080992936,6.288120485031604,-0.7760461859308183,0.3061099946498871,-0.0377772040665149,-0.2334186732769012
1772808359887571500,7.714571533203125,2.7575562488764525,3.684920100608468,-0.225959357548505,0.1628816723823547,0.2620335817337036,-0.0816326588392257
1772808359907619600,7.73461962890625,-0.3867302036106586,-1.6524276000529527,0.7761125291652977,0.1851266026496887,-0.2015857994556427,-0.0908553674817085
1772808359927667500,7.75466748046875,-3.766203714588284,-9.738272044822573,1.7170928183175622,-0.0766251981258392,-0.6052208542823792,-0.1875622868537902
1772808359947716400,7.77471630859375,-8.391495032539963,-14.373851532554626,-0.6211753576926886,-0.560090184211731,-0.2412556409835815,-0.3659739196300506
1772808359967764500,7.794764404296875,-12.660283527362346,-18.07652999269366,-1.0808986090607942,0.1610720455646515,0.7311934232711792,-0.8179962038993835
1772808359987812600,7.8148125,-13.48216338983774,-21.903353887939453,2.19716400731802,0.2779161334037781,0.1676456779241562,-0.6474084854125977
1772808360007860500,7.834860595703125,-13.268614162659643,-21.560209143555163,1.9402720436282452,-0.5214682817459106,-0.8909200429916382,-0.5131480097770691
1772808360027909600,7.85490966796875,-14.023701877844331,-18.43314329046011,0.5117065365836024,-0.7802597880363464,-0.4286328852176666,-0.6508748531341553
1772808360047957500,7.87495751953125,-13.80318982591629,-13.585470619577167,1.2070792032569646,-0.0332228615880012,0.6526280045509338,-0.7463552951812744
1772808360068005400,7.89500537109375,-11.937476618057488,-9.599638650158049,4.499230989134311,1.2720105648040771,0.1382146477699279,0.0486128441989421
1772808360088054500,7.915054443359375,-7.911199825525284,-3.1624913867413995,3.89918653614521,2.7450404167175293,-1.3097692728042605,0.6542262434959412
1772808360108102400,7.935102294921875,-0.6923343218907714,3.0959441541224715,1.0882624158270655,2.9660863876342773,-1.1706660985946655,0.6131381988525391
1772808360128150500,7.955150634765625,4.741268351911008,7.232863926109671,-0.3688695527493953,1.8793379068374636,0.2730889022350311,0.4386512339115143
1772808360148198400,7.975198486328125,5.207217345926165,10.074995816248654,-0.5681359875530004,1.2257126569747925,0.9277597665786744,0.2037938833236694
1772808360168247600,7.99524755859375,5.067958512839675,11.498048258960246,0.0209685537487268,1.2000778913497925,0.7272449731826782,0.1878312528133392
1772808360188295400,8.01529541015625,5.948304008287191,12.912101402658225,-1.039507298877835,1.1814868450164795,0.6186286807060242,-0.1423840522766113
1772808360208343600,8.035343505859375,7.218985622882842,12.184876676911117,-0.8123068552270531,0.6174657940864563,0.8925737738609314,-0.1310150325298309
1772808360228391400,8.055391357421875,6.934724444621801,11.368190875947477,-0.0189852709770202,0.0689680129289627,0.7934943437576294,0.0853784903883934
1772808360248440600,8.075440673828124,6.503077240920066,11.189621776735782,-0.928242242001742,-0.4242260754108429,0.4336173236370086,0.0799127668142318
1772808360268488400,8.095488525390625,5.582416686218977,11.37504264153838,-1.6939010355614126,-0.6614112854003906,0.115570917725563,-0.0945232734084129
1772808360288536300,8.115536376953125,5.144381242784857,11.040624808967111,-1.663590799102187,-0.835567831993103,0.0296631958335638,-0.1158788651227951
1772808360308585500,8.13558544921875,4.349221629452705,11.037725580394268,-1.5429494265936314,-0.890255331993103,0.146658793091774,0.0343023762106895
1772808360328633300,8.15563330078125,4.064209048302471,10.712788692873715,-1.8272428996890784,-0.913024127483368,0.2487485110759735,0.1323918402194976
1772808360348681500,8.175681396484375,4.152574144975841,10.272200642347336,-2.2511206384330986,-0.9758398532867432,0.1510121971368789,0.0369049943983554
1772808360368729300,8.195729248046876,3.816795253184437,9.27545638039708,-1.8400059351503848,-0.93326073884964,0.1234695315361023,0.0741207748651504
1772808360388778500,8.215778564453124,2.8455373146682974,7.956513715979456,-1.3787391076020896,-0.6135414838790894,0.0513529889285564,0.2469791918992996
1772808360408826400,8.235826416015625,1.888538203129172,5.628866302704811,-0.687398326793313,-0.3728758692741394,-0.4251139461994171,0.4930374324321747
1772808360428874500,8.25587451171875,1.1227701039761304,1.7679723800748586,-0.5231808474086225,-0.4950838685035705,-0.5345022082328796,0.6535476446151733
1772808360448923400,8.27592333984375,-1.472008489060402,-4.728050850680471,0.3639306350424885,-0.3916814625263214,-0.301285445690155,0.7523157000541687
1772808360468971500,8.295971435546875,-3.5998902858376503,-10.126693270260096,0.011700959187746,-0.7725374698638916,-0.3529659211635589,0.5055452585220337
1772808360489019400,8.316019287109375,-7.177670446676015,-11.665441299641133,-1.6062309354148805,-1.091596603393555,0.163381353020668,-0.1733521372079849
1772808360509067500,8.336067626953126,-10.3814454454422,-15.43039121477604,-0.0509035271547734,-0.4620120227336883,0.8238248825073242,-0.6093316674232483
1772808360529116400,8.356116455078125,-10.75841764062643,-19.799977586865424,2.698773805040121,-0.546006441116333,0.7823091745376587,-0.3246995508670807
1772808360549164500,8.37616455078125,-13.109849834114312,-20.73055046377182,1.8377781760983167,-0.9851893186569214,0.0323301926255226,-0.5099324584007263
1772808360569212400,8.39621240234375,-15.067759679633378,-19.47715549954176,0.778667912736535,-1.0015277862548828,0.1368749141693115,-1.0020549297332764
1772808360589261600,8.416261474609374,-14.830653051257132,-16.30091732699871,1.6667669449202716,-0.2959405481815338,0.8614522814750671,-1.0469739437103271
1772808360609310000,8.43631005859375,-12.7294137622118,-11.946063244616983,3.3414147062182424,1.0476834774017334,0.6149695515632629,-0.4633785784244537
1772808360629357800,8.45635791015625,-7.251621233549714,-5.823215154850483,2.7031477823406456,2.171539068222046,-0.4569219052791595,0.0342526026070117
1772808360649406000,8.476406005859374,-0.3247676684334874,-0.6962637702941894,1.0573029216788707,2.0255935192108154,-1.4209743738174438,0.0401505306363105
1772808360669454800,8.496454833984375,4.545206266106665,3.6248821037530896,-1.5073736708216368,0.7771726250648499,-0.03707105666399,-0.2362469434738159
1772808360689503000,8.5165029296875,2.2132494652003047,7.303372463575005,-1.8323012059919532,0.7204475998878479,0.8134023547172546,-0.3375729620456695
1772808360709550800,8.53655078125,1.8248592194229365,9.456277642449736,-1.1332087881430983,1.3665627241134644,0.4761762022972107,-0.1074009016156196
1772808360729599000,8.556598876953124,3.96959219775796,10.89383265776634,-0.95172657796368,1.5864650011062622,0.3238256871700287,0.2620137631893158
1772808360749648000,8.57664794921875,5.154196534356474,11.828076332139968,-0.9282064400359988,1.4413892030715942,0.2527273297309875,0.5372195243835449
1772808360769696000,8.596696044921876,6.007981355136633,12.1314946308136,-1.258553223776072,1.1303855180740356,0.1773409694433212,0.5959149599075317
1772808360789743900,8.616743896484374,6.639363195675611,11.951136894619465,-1.902844522509724,0.6606916785240173,0.0782926753163337,0.3978942334651947
1772808360809793000,8.63679296875,7.131973694384097,11.53966855559349,-2.0464269178837537,-0.0334697961807251,0.1544466018676757,0.2008581012487411
1772808360829841000,8.6568408203125,6.491062977999448,11.30037347726226,-2.3689978069253264,-0.6500762701034546,0.0709663555026054,-0.0014047278091311
1772808360849888800,8.676888671875,5.4726171718508,11.369434738528728,-2.594057585285604,-0.8966030478477478,-0.0517468228936195,-0.1667242646217346
1772808360869937000,8.69693701171875,5.062751007324457,11.212911466908457,-2.434363136283308,-1.0141501426696775,-0.0523731932044029,-0.2196511626243591
1772808360889985800,8.71698583984375,4.748721882787347,10.564520039379596,-1.8822934635207056,-1.1319855451583862,-0.1326576471328735,-0.1581041514873504
1772808360910034000,8.737033935546876,4.201322393792867,9.808488905864952,-1.4706670113235711,-1.153567910194397,-0.2353486567735672,-0.0609002746641635
1772808360930081800,8.757081787109374,3.649958677342534,8.563125856921076,-1.0236705550596117,-1.104709506034851,-0.2382411807775497,0.0607913583517074
1772808360950131000,8.777130859375,2.408961422392726,6.8073670617312185,-0.9726214819543064,-1.208796143531799,-0.2302838712930679,0.2210471034049987
1772808360970178800,8.7971787109375,-0.021682547236979,2.947891773727536,-0.1970496355369687,-1.2640279531478882,0.1402923911809921,0.3406020700931549
1772808360990227000,8.81722705078125,-2.3190742307186127,-3.1019156297475097,0.3032727527230978,-1.3847510814666748,0.6279885768890381,0.2754956483840942
1772808361010274800,8.83727490234375,-4.269945848163962,-8.739539823925494,-0.0367900999978184,-2.129389524459839,0.6897491216659546,-0.1433662176132202
1772808361030324000,8.857323974609375,-8.454732702219486,-10.119822799968718,-0.6335802273660898,-2.25974440574646,0.586022138595581,-0.732358992099762
1772808361050371800,8.877371826171874,-10.724746841692925,-12.555152589327095,1.3760998451396822,-1.4150677919387815,0.8083195686340332,-0.6950405836105347
1772808361070420000,8.897419921875,-9.70599182346463,-15.734709677159785,4.039004464419186,-0.844592809677124,0.364778071641922,-0.1701799482107162
1772808361090467800,8.9174677734375,-8.117254313033818,-18.73510963675976,4.347156513616443,-1.3643196821212769,-0.3882970213890075,-0.0139168761670589
1772808361110517000,8.93751708984375,-8.550243578994273,-16.14043333505392,2.726871772277355,-1.9848604202270508,-0.6159566640853882,-0.337711751461029
1772808361130564900,8.95756494140625,-11.436694503331184,-15.063678547799586,1.9114030920185148,-1.916386365890503,-0.8097360134124756,-0.8118716478347778
1772808361150612700,8.97761279296875,-13.641640835088491,-11.771888580971956,2.4650159025698897,-1.042789101600647,-0.6828018426895142,-0.5225080847740173
1772808361170662000,8.997661865234376,-12.754379861164091,-5.651567963856459,2.094382555018365,0.9239348769187928,-1.021388292312622,-0.0873905941843986
1772808361190709800,9.017709716796874,-6.254329859110713,-1.0752607493042945,1.2266254691176115,1.942816972732544,-1.0250251293182373,0.1946843564510345
1772808361210758000,9.0377578125,1.0101403346180915,2.3621266059815884,-0.9458768290221692,1.1131747961044312,-0.11396374553442,0.1800542026758194
1772808361230805800,9.0578056640625,5.39656269069612,4.302886579257249,-1.634244877630472,-0.4222068786621094,0.983876407146454,-0.0508340299129486
1772808361250855000,9.07785498046875,2.651289584809541,6.680854312971234,-0.8896450925819576,0.0034847008064389,0.6606232523918152,-0.0279722139239311
1772808361270902800,9.09790283203125,2.404102291923761,8.876472844412922,-0.8922003300227225,1.5591176748275757,0.2786779701709747,0.3121900856494903
1772808361290951000,9.117950927734377,6.871641673243046,9.273494140413405,-1.0265807434178889,1.8659380674362185,0.0506013929843902,0.4670960307121277
1772808361310999000,9.1379990234375,10.220563978612422,9.602492286023496,-1.2823355197712778,1.1731549501419067,0.1893067061901092,0.416859894990921
1772808361331048000,9.1580478515625,10.477503434705731,9.573349778169392,-1.800179390066117,0.4023934304714203,0.3972293734550476,0.2197858542203903
1772808361351095800,9.178095703125,9.458151035106182,9.305611864686012,-2.447099575998634,-0.1443476378917694,0.1672984957695007,-0.1703828871250152
1772808361371144000,9.19814404296875,8.72901083112657,9.160857356792688,-3.4325875537887214,-0.5911867618560791,0.0428385511040687,-0.699247419834137
1772808361391192800,9.21819287109375,7.2219509024292226,8.942392885044217,-2.7016671883940697,-0.8286791443824768,-0.2708103358745575,-0.7974056005477905
1772808361411240700,9.23824072265625,5.36306666380763,8.12689541708231,-1.735501604580879,-0.6531784534454346,-0.6203029155731201,-0.4957679510116577
1772808361431288800,9.258288818359375,4.473119811800122,7.901677379420399,-1.99589690021649,-0.3196500837802887,-0.5603160858154297,-0.3288014233112335
1772808361451337000,9.2783369140625,4.413290489259362,6.928400502297282,-2.3111031057089564,-0.290264219045639,-0.2655436992645263,-0.3636414110660553
1772808361471385900,9.2983857421875,3.5895717209190128,5.902853339710831,-1.8917459131293,-0.2633824944496155,-0.1236647516489029,-0.3412902653217315
1772808361491434000,9.31843408203125,2.28813899422884,4.2723979174911975,-0.9469909277439116,-0.1837968677282333,-0.1146784350275993,-0.0684456974267959
1772808361511482000,9.338482177734376,0.6597527794986963,2.0842916613757607,-0.6205183550886809,0.1328098624944687,-0.2568008601665497,-0.0039604129269719
1772808361531530800,9.35853076171875,-0.0732207190334796,-1.704233190613985,0.4125347992137074,0.133966252207756,-0.5209065675735474,-0.0041113863699138
1772808361551579000,9.378578857421877,-1.1376374182403086,-4.794462474220991,0.9139553579740226,-0.547890841960907,-0.6064057946205139,0.1590788960456848
1772808361571627000,9.398626953125,-3.866565538525581,-4.239371846202015,-1.2164150407485663,-1.1259740591049194,-0.2232942432165146,-0.1378214210271835
1772808361591675000,9.4186748046875,-6.486157670301199,-5.489668844416737,0.4472741041615605,-0.6229766011238098,0.4263433218002319,-0.2050224244594574
1772808361611723800,9.438723876953125,-7.766506692430377,-7.741639377677441,2.215517848523706,-0.2570441365242004,-0.0254965703934431,0.3608279526233673
1772808361631772000,9.45877197265625,-8.33885357567668,-8.970762070438266,1.6810231415487824,-0.553480863571167,-0.4385056495666504,0.2978940010070801
1772808361651819800,9.47881982421875,-10.104910477519034,-10.236480509668588,1.9985934458240864,-0.8196607828140259,-0.0404858030378818,-0.0413827672600746
1772808361671867600,9.49886767578125,-12.870168971335888,-11.60748010905981,4.496917451494932,-0.552348792552948,0.3521869480609894,0.0534988529980182
1772808361691916800,9.518916748046877,-14.701252764362096,-11.023460908198356,4.978047940289974,0.172142893075943,0.3226835131645202,0.2086775451898574
1772808361711964700,9.538964599609375,-13.966498227632044,-9.312339711636303,4.200915858818591,0.7841660976409912,0.2029474675655365,0.302014946937561
1772808361732012800,9.5590126953125,-10.69784363719821,-7.737607930204271,3.0965614092379807,1.1426316499710083,0.256006509065628,0.3497874140739441
1772808361752060700,9.579060791015625,-5.815963576287031,-5.844602810794115,2.5304244865477084,1.2261799573898315,0.2206172347068786,0.2644559144973755
1772808361772109800,9.59910986328125,-1.2586778730690478,-3.829785667660832,2.804536026716232,1.1804944276809692,-0.4650947153568268,0.2152347564697265
1772808361792157700,9.61915771484375,2.478517189177871,-1.24714817879498,1.3697969456031918,0.6839278340339661,-1.1158032417297363,-0.0147116519510746
1772808361812205800,9.639205810546876,4.082119675785303,0.7278519177347421,-0.2069225025147199,-0.0735590159893035,-0.8673861622810364,-0.1064202114939689
1772808361832254700,9.659254638671875,2.92531870739162,3.2282384088933465,-1.5611774494625628,-0.4466047585010528,-0.326195627450943,-0.1372755914926529
1772808361852302800,9.679302734375,2.148951472812891,5.135968803748488,-2.060616186755896,-0.1296349465847015,0.4759810864925384,-0.18708136677742
1772808361872350700,9.699350830078124,2.8982074131041764,6.184543206179142,-1.868468205655366,0.4366037249565124,0.97037935256958,-0.1462527215480804
1772808361892398600,9.719398681640625,4.374237997287511,6.95725659442544,-1.6221641253449022,0.8580824732780457,0.6152032017707825,-0.0876312851905822
1772808361912447700,9.73944775390625,6.381570922145247,7.517173619687557,-1.825413492304832,0.978474736213684,0.122302159667015,-0.0971479713916778
1772808361932495600,9.75949560546875,7.94945795224905,8.019464969933033,-2.1107959296807643,0.6694753170013428,0.1146180853247642,-0.2067253589630127
1772808361952543700,9.779543701171876,7.847677493685484,7.911372259482741,-1.402001325245947,0.3830541968345642,0.237462505698204,-0.0283308811485767
1772808361972592600,9.799592529296875,6.658784519982338,8.119368528708815,-1.5106339877918362,0.3717601001262665,-0.0585503913462162,0.1799981892108917
1772808361992640800,9.819640869140626,6.065587740930915,8.406666882708668,-2.40114899507612,0.2491548508405685,-0.2296965271234512,0.22221440076828
1772808362012688600,9.839688720703125,5.586859637102484,8.218778166487812,-3.024886166080832,-0.1111924722790718,0.1194294691085815,0.1439309865236282
1772808362032736800,9.85973681640625,4.708189965912699,8.067134483602642,-3.203870568095148,-0.2089215666055679,0.3814496695995331,0.0201308671385049
1772808362052785700,9.87978564453125,4.081040063855052,7.565674323484301,-2.8048300412267446,-0.2024217396974563,0.5225419402122498,-0.0511786118149757
1772808362072833800,9.899833740234374,3.527577329298853,6.713576432877779,-2.396960457345098,-0.252009779214859,0.6298173666000366,-0.041974700987339
1772808362092881700,9.919881591796877,2.3702707494705915,5.348096473690867,-1.440757903011143,0.054953571408987,0.6910145878791809,0.0342963077127933
1772808362112929800,9.9399296875,1.045449548408389,2.546599960801005,-0.1023009753063321,0.4221677780151367,0.0742705091834068,0.2901123762130737
1772808362132978700,9.959978759765624,-0.0074245970427989,-2.2920050220072268,1.3183891221880912,0.7444508075714111,-0.6586452722549438,0.6152976751327515
1772808362153026800,9.98002685546875,-0.6132300977766514,-4.923794372054934,1.782635257808119,0.4006469845771789,-1.1558181047439575,0.841619610786438
1772808362173074700,10.00007470703125,-1.7511112616449591,-7.072966794142126,0.4259847940258681,-1.193138837814331,-1.4751323461532593,0.7891333103179932
1772808362193123800,10.020123779296876,-3.3172552474737165,-7.019607544398308,-0.944977395964414,-2.616215229034424,-0.2895873785018921,0.27138552069664
1772808362213171700,10.040171630859374,-7.334362060600519,-7.016526529517769,0.0279581203751266,-2.982741594314575,-0.0022731134667992,0.2577271163463592
1772808362233219600,10.060219482421877,-9.899757322764396,-7.216624154448509,0.4523261268541216,-2.368854284286499,-0.7908638119697571,0.0950944125652313
1772808362253267700,10.080267822265624,-9.139504187640547,-7.1489862039834255,-0.7205578152038157,-1.484576940536499,-0.8412865400314331,-0.0297597888857126
1772808362273316600,10.100316650390624,-7.14286216814518,-5.320047606292366,-1.237343700878322,-0.6469837427139282,-0.5259650349617004,-0.3070114552974701
1772808362293364700,10.12036474609375,-4.048551168182492,-4.689299972003698,0.3519468403253704,-0.3788029849529266,-0.2520209550857544,-0.409618079662323
1772808362313412600,10.14041259765625,-0.9938847808659076,-3.1722663463026284,1.318348790177703,-0.7840533256530762,0.0590724982321262,-0.2658663094043731
1772808362333460700,10.160460693359376,-0.193994047358632,-0.98569329110384,1.431129366183281,-0.9206562638282776,0.1314862221479416,-0.0721227154135704
1772808362353509600,10.180509521484376,-0.344306189379096,0.7648346176952123,1.3739040886610745,-0.3630694150924682,0.0809539705514907,0.1690496802330017
1772808362373557800,10.200557861328123,0.0380932915508747,2.1733745509296654,0.869735400236398,0.5844296216964722,0.0802667737007141,0.3389869034290313
1772808362393605600,10.220605712890626,1.3703010957330464,2.798779070624709,0.2732793271280825,1.2152701616287231,0.1280558109283447,0.2810392081737518
1772808362413653500,10.240653564453124,2.742520592308044,2.786940164270997,0.0559653405889868,1.2625523805618286,0.0151663338765501,0.1848080158233642
1772808362433702700,10.26070263671875,3.830768248957396,2.453327218341827,0.1218129005059599,0.9684277772903442,0.0673865526914596,0.1415003538131714
1772808362453750500,10.28075048828125,4.060833726650476,1.9905758513242005,0.4504793299436569,0.6422066688537598,0.0910930559039115,0.0773907527327537
1772808362473798700,10.300798583984376,3.976578987905383,1.891466657796502,0.3899864289276301,0.2632370293140411,-0.0082049267366528,0.0409118980169296
1772808362493847600,10.32084765625,3.170570063778758,1.652365640732646,0.3352493149593472,-0.1432574689388275,-0.1273450702428817,-0.0160285849124193
1772808362513895700,10.340895751953123,1.8266829277187584,1.4131751918196678,0.1743153872899711,-0.4776559770107269,-0.3524960279464721,-0.1008055508136749
1772808362533943600,10.360943603515626,0.5635813929885626,0.9605050738334656,-0.1105246868375688,-0.7518907189369202,-0.6374562978744507,-0.1453394293785095
1772808362553991700,10.38099169921875,-0.4391150553643703,0.2659486919790506,-0.4219392449621111,-1.1300963163375854,-0.6577838659286499,-0.1700032353401184
1772808362574040600,10.40104052734375,-1.219222645515203,0.1505751768708229,-0.6961475235033779,-1.449141502380371,-0.4143563508987427,-0.2342235594987869
1772808362594088700,10.421088623046876,-2.37424549832046,-0.5220172104567289,-0.6183460525508969,-1.6211605072021484,-0.3359545767307281,-0.0028195157647132
1772808362614140700,10.441140625,-0.233151753270626,-0.1966232268184423,0.6303253902886062,-1.3247944116592407,-0.0362507849931716,0.0747877210378646
1772808362634188800,10.461188720703126,-1.8855542188823224,-0.4365092567801475,0.1856994625482708,-0.8060899376869202,-0.3612506985664367,-0.0905453711748123
1772808362654237700,10.48123779296875,0.144349434223771,-0.7694406501859427,-0.0453982808019965,-0.4059310555458069,-0.6046931743621826,-0.105135977268219
1772808362674285800,10.501285888671877,-0.7548118208527564,-0.6922410906493663,-0.5037583540581166,-0.2880550920963287,-0.9376131892204284,-0.1469831019639969
1772808362694333700,10.521333740234375,0.1076098953694105,-0.8361445346713066,-0.9953352719351648,-0.3056333661079407,-0.5183728933334351,0.0411571487784385
1772808362714381600,10.541381591796876,-0.2627332370638847,-0.0395920056760311,-1.0756624619729815,-0.4840679466724396,-0.1176378428936004,0.0996735990047454
1772808362734430700,10.5614306640625,-0.175845811727643,-0.1766758328109979,-0.5696529679872095,-0.6860468983650208,-0.0175969917327165,0.1114181131124496
1772808362754478600,10.581478515625,-0.7788543752193451,0.1495738908737897,-0.2658779282977804,-0.5042118430137634,0.0427095852792263,-0.0823478996753692
1772808362774526700,10.601526611328126,-1.950706782272458,0.5707184052616358,-0.2685482069529593,0.032718688249588,-0.3132356405258178,-0.1259198635816574
1772808362794575600,10.62157568359375,-0.9583838438957928,0.0808832164853811,-0.261553964151442,0.35562464594841,-0.3212553560733795,0.0455198474228382
1772808362814623700,10.641623779296877,-0.4995464354515075,0.2214683297395706,0.1211698168294504,0.3879011273384094,-0.4382010400295257,0.1956268548965454
1772808362834671600,10.661671630859376,0.1138975973367691,-0.1616220560640096,0.3268964240904897,0.3097709119319916,-0.3934974670410156,0.334771454334259
1772808362854720000,10.681719970703124,0.435320339256525,0.1936988638043403,0.3806700267888605,0.2028689384460449,-0.2755645513534546,0.3204063177108764
1772808362874768600,10.7017685546875,0.4251794689923525,0.4393336665511131,0.3879980681220069,0.227121889591217,-0.4951023757457733,0.273681491613388
