time,seconds_elapsed,accel_z,accel_y,accel_x,gyro_x,gyro_y,gyro_z
1772808309882567400,0.0835673828125,0.2839069579958915,0.7973121151909232,-0.3999592491485178,0.9783068299293518,0.704429566860199,-0.5069841742515564
1772808309902615300,0.103615234375,0.3531792316645383,0.4733335513085127,-0.4329512720376253,0.9563021063804626,1.0763437747955322,-0.6035397052764893
1772808309922664400,0.12366455078125,0.2605564775466918,0.4614402844190597,-0.5650181477934122,0.77237868309021,1.1934373378753662,-0.6954060196876526
1772808309942713600,0.143713623046875,0.4993710788846016,-0.2353057164341211,-0.1360224815137684,0.4642274379730224,1.1711633205413818,-0.6451036334037781
1772808309962761500,0.163761474609375,0.2894558242946863,-0.5030702256634831,0.0592662818305194,0.1592909842729568,0.947173237800598,-0.499303787946701
1772808309982810600,0.183810546875,0.2650911983668804,-0.6588347878709435,0.2098753609709441,0.0046522421762347,0.690743625164032,-0.3410691022872925
1772808310002858500,0.2038583984375,0.3223836959064006,-0.3652063540667295,0.4528456206835806,0.0020691875834017,0.3856629431247711,-0.239046961069107
1772808310022907400,0.223907470703125,-0.0648041883438825,-0.3875803906992077,0.448339979827404,0.1202784925699234,-0.1530319452285766,-0.1618369966745376
1772808310042955500,0.24395556640625,-0.5783727194070816,-0.3991629842042922,0.2136138168469071,0.3751245737075805,-0.722240686416626,-0.0965256616473198
1772808310063004400,0.26400439453125,-0.3858732945203781,-0.60989423135221,0.2614990190938115,0.6160333156585693,-1.2945610284805298,-0.0248296726495027
1772808310083052300,0.28405224609375,-0.6749824973344802,-0.4270157445088028,0.7466857975423336,0.3562814891338348,-1.745151400566101,-0.0583638586103916
1772808310103101400,0.304101318359375,-0.6568488747507334,-1.405461256441474,0.7269300536494702,0.1274087876081466,-2.2844796180725098,0.0619318597018718
1772808310123149300,0.3241494140625,-0.6280863061249256,-0.9202852916479112,0.6807589618440717,-0.142555221915245,-2.678362369537353,-0.0368537977337837
1772808310143198500,0.344198486328125,-0.0287672448009252,-0.9541130347087978,0.7230225978821515,-0.2628842890262604,-2.7672688961029053,-0.0913422182202339
1772808310163246300,0.364246337890625,0.5324772296726703,-1.2534519551143048,0.7175775572840124,-0.1959226727485656,-2.368354320526123,-0.0886267274618148
1772808310183295500,0.38429541015625,1.5669804366528988,-0.8496922907695174,0.6150895349729806,-0.0320974104106426,-1.0616204738616943,-0.0823828354477882
1772808310203343400,0.40434326171875,2.341214750856161,-1.0521189431697129,0.3742545337233692,0.6394098997116089,0.7595378160476685,0.0620313696563243
1772808310223392500,0.424392578125,1.6463754604071377,-0.5797679731577634,-0.0868581261765211,1.0069280862808228,1.8853459358215328,0.1734518408775329
1772808310243440400,0.4444404296875,-0.0725911889582872,-0.3063648735195398,-0.4374951625449583,0.987223982810974,1.9816186428070068,0.2983514666557312
1772808310263489500,0.464489501953125,-0.3114537210911512,-0.7175353986427188,-0.2283392018897458,0.9762550592422484,1.95960545539856,0.4246079325675964
1772808310283537400,0.484537353515625,-0.4869470661193132,-0.9551286414921284,-0.1092351950163021,0.7763586044311523,1.5219742059707642,0.5359716415405273
1772808310303586600,0.504586669921875,-0.1433072316944599,-0.2565177235499024,-0.4828184784146025,0.3211272656917572,0.9953757524490356,0.2584839165210724
1772808310323634400,0.524634521484375,0.7696089924901723,0.497180583103001,0.058147397335805,-0.0636321157217025,0.6439191699028015,-0.1604861468076706
1772808310343683600,0.54468359375,-0.406375399801135,-0.7043497538551687,0.8216649045504629,0.1485558897256851,0.0810202658176422,-0.1087456345558166
1772808310363731500,0.5647314453125,0.0717863023161888,0.918513605800271,0.1898685649264603,0.7986763715744019,-0.0988717675209045,-0.0881648883223533
1772808310383780400,0.5847802734375,0.5495943686902522,1.634422280023992,-0.2603498490586877,1.2929022312164309,-0.1454319655895233,0.0383596569299697
1772808310403829200,0.604829345703125,0.8971136748969555,1.5608973173469305,0.1423842716306448,1.430903434753418,-0.3158249258995056,0.1571325063705444
1772808310423877400,0.62487744140625,1.56779818277657,1.1809621807038784,0.6043622065903619,1.1375495195388794,-0.6837481260299683,0.1549768596887588
1772808310443926300,0.64492626953125,1.9615660299390556,0.8886252480149268,0.5429600087096914,0.6108092665672302,-0.5952937006950378,0.1597190350294113
1772808310463974400,0.664974365234375,1.7707663947075605,0.9565601355999708,0.0424469201831147,0.0546087734401226,-0.3178432285785675,0.0931058526039123
1772808310484023300,0.685023193359375,1.3465186536073683,1.3992688315421342,-0.2647394988523796,-0.3863941431045532,-0.0734350010752677,-0.0017036078497767
1772808310504071400,0.705071533203125,0.9922796837568284,1.7305583029597995,-0.3450778678713366,-0.7085855603218079,-0.0639401674270629,-0.2102921605110168
1772808310524120300,0.725120361328125,0.2435223406374454,1.8058283557385204,-0.1886709526397287,-0.649416983127594,-0.1388533413410186,-0.4368932843208313
1772808310544168400,0.74516845703125,-0.1922843208312988,1.3432307179778813,0.0856712270800489,-0.3473925590515136,-0.2916395664215088,-0.3500024080276489
1772808310564217300,0.76521728515625,-0.2457768415659666,2.293630577382445,0.4203813479956239,0.0448086112737655,-0.6465600728988647,-0.1654393374919891
1772808310584265500,0.785265380859375,0.4965384858071803,1.0156786795228718,0.7884829851124435,0.6010636687278748,-0.8350980281829834,0.2752375602722168
1772808310604314400,0.805314453125,1.4627794729441403,0.504021535038948,1.0195556670866903,0.979517936706543,-0.9585501551628112,0.6739740371704102
1772808310624362500,0.825362548828125,2.6150433824300765,1.2972726844012736,0.2941964429505169,0.8016247749328613,-0.8412059545516968,0.7428516745567322
1772808310644411400,0.845411376953125,3.2810628211081028,0.9070499624997376,-0.243466737992689,0.6830579042434692,-0.6662815809249878,0.4933546185493469
1772808310664459500,0.86545947265625,2.7770360253721478,1.6283528969824312,-1.1741857453715054,0.8097793459892273,-0.562876284122467,-0.1553680300712585
1772808310684508400,0.88550830078125,2.552052380988002,1.1742249814033507,-1.0725265751000492,0.8262978792190552,-0.1280954033136367,-0.7425206899642944
1772808310704556500,0.905556640625,2.601467277020216,1.5455419273048638,-1.622189405916631,0.958366334438324,1.1026182174682615,-1.3302544355392456
1772808310724605400,0.92560546875,1.6253391021192072,1.252273266723752,-1.1767070074774324,0.9063068628311156,2.170382261276245,-1.694877028465271
1772808310744653600,0.945653564453125,1.4793535911262037,-0.0585030423730611,0.101440778280422,0.6175591945648193,2.817402601242065,-1.622464299201965
1772808310764702200,0.9657021484375,1.5993962670892476,-0.9138596425145864,0.6110792033530771,0.2020675837993621,2.5411489009857178,-1.574678897857666
1772808310784750300,0.985750244140625,-0.1370230368584394,-1.4028320769816636,1.238454146338254,-0.1066500544548034,1.6509336233139038,-1.4946457147598269
1772808310804799200,1.00579931640625,-1.1315011074423789,-2.339927633655071,1.853532648460567,-0.8746651411056519,1.056342601776123,-1.175379514694214
1772808310824847400,1.025847412109375,-4.748703762608766,-3.495026474305987,2.709659356191754,-1.3029544353485107,0.1774454116821289,-0.5945214033126831
1772808310844896300,1.045896240234375,-10.131520252025126,-4.025471321368217,2.6940765871345995,-0.5568566918373108,-0.2979385554790497,0.1066735163331031
1772808310864945400,1.0659453125,-12.935071943879128,-5.285354478573799,2.23710234221369,0.2418530732393264,-0.2283191680908203,0.6473381519317627
1772808310884993300,1.0859931640625,-13.455156140446665,-7.805240619972348,2.1249190014488994,0.5079396367073059,0.0138724576681852,0.903110682964325
1772808310905042400,1.10604248046875,-13.713283345019816,-9.809173965519664,1.5289771614730356,0.8039968013763428,-0.2192199379205703,0.626026451587677
1772808310925090300,1.12609033203125,-12.4161661434412,-10.47156235421896,0.7986901255458593,0.8556857705116272,-0.0928330942988395,0.1436151266098022
1772808310945139500,1.146139404296875,-10.252781656128167,-9.738123576262591,0.5022916425064206,0.67886883020401,0.3295682966709137,-0.2507204711437225
1772808310965187300,1.166187255859375,-8.853878150767088,-8.081174699392914,0.6623062633737922,0.7924075126647949,0.4649661183357239,-0.4555559754371643
1772808310985236500,1.186236572265625,-7.193960487219691,-6.237948633152247,0.9830608967736364,0.9703139662742616,0.1220560073852539,-0.4898878037929535
1772808311005284400,1.206284423828125,-4.923378776991367,-3.554996082100272,0.3419821303457021,1.1771652698516846,-0.0528965480625629,-0.5141991376876831
1772808311025333500,1.22633349609375,-2.0920301466733218,-0.2969622544020414,-0.498086153640598,1.3193305730819702,0.1063843742012977,-0.4140244722366333
1772808311045381400,1.24638134765625,0.5414771132081747,2.6862644520789383,-1.3361002815760672,1.5419548749923706,0.0481180548667907,-0.4169832468032837
1772808311065430500,1.266430419921875,2.8411043006569145,5.197978977459669,-2.3232005168683827,1.682153582572937,-0.1263394653797149,-0.4032885134220123
1772808311085478400,1.286478515625,5.090043503397703,7.279685298517346,-2.674703778144717,1.6041611433029177,-0.1818794459104538,-0.1655588448047638
1772808311105527300,1.30652734375,5.893448382505774,8.923723255887626,-2.488626787520945,1.6610682010650637,-0.2601877152919769,0.2996039390563965
1772808311125575400,1.326575439453125,5.281607693260908,10.294449883556366,-2.420770371999592,2.37210750579834,-0.2810133695602417,0.6314720511436462
1772808311145624300,1.346624267578125,5.702979586663842,11.45195753891468,-2.154552069298923,3.08683705329895,-0.3267374634742737,0.8977550864219666
1772808311165672200,1.366672119140625,6.483050351935625,11.688971812832357,-1.337861592160165,3.479410171508789,-0.5946220755577087,1.1400740146636963
1772808311185721300,1.386721435546875,7.444983412745595,11.856246780091524,-0.9450415472418068,3.4628140926361084,-1.0896052122116089,1.1909046173095703
1772808311205769200,1.406769287109375,8.230833930462598,11.880377012741564,-0.5727770182918757,2.9903337955474854,-1.5809669494628906,1.0320384502410889
1772808311225818400,1.426818359375,8.115097427260876,12.141118199205398,-0.4157639903932809,2.279017210006714,-1.7258942127227783,0.6696800589561462
1772808311245866200,1.4468662109375,7.151475098189711,12.228988205838204,-0.3734236358571797,1.499139666557312,-1.4061899185180664,0.2774140536785126
1772808311265915400,1.466915283203125,6.007841654404998,12.259324891912936,-0.1115831098493188,0.7424348592758179,-0.7832976579666138,0.0659899711608886
1772808311285964300,1.48696435546875,4.382420134699345,11.907102522581814,0.3276508591869845,0.264954537153244,-0.5066688656806946,-0.0163315869867801
1772808311306012400,1.507012451171875,2.31117207929194,10.70655184431076,0.9162567667841912,-0.0352701433002948,-0.9664751291275024,-0.0144988959655165
1772808311326061300,1.527061279296875,0.3098664518997073,8.932827184319496,1.071678799164295,-0.2458216845989227,-1.2001612186431885,-0.1011925190687179
1772808311346109400,1.547109375,-1.176089606231451,5.080012523248792,1.9244452366821467,-0.4042970836162567,-0.8059569001197815,0.0614023506641387
1772808311366158300,1.567158447265625,-2.314888469466567,-0.2943044333696365,3.4574536994978784,-0.6892728209495544,-0.2866017818450928,0.7146829962730408
1772808311386206500,1.58720654296875,-4.3893034644722935,-5.705978768479824,3.4994922215431927,-0.7202771902084351,-0.410784900188446,1.555123209953308
1772808311406255400,1.60725537109375,-6.2084980822622775,-11.36730240267515,1.0004996689610182,-0.5256012082099915,-0.8495672941207886,2.013902187347412
1772808311426303500,1.627303466796875,-7.26100865509808,-16.246804628539085,-2.1415289215967057,-0.3335473239421844,-1.009378433227539,2.0308640003204346
1772808311446352100,1.64735205078125,-8.565946175038814,-20.25616652662754,-5.448755234748125,-0.1528768241405487,-1.0388611555099487,1.58319091796875
1772808311466400500,1.667400390625,-7.649101379233598,-21.28293066378832,-8.72703280905187,-0.3278911411762237,-0.0537738278508186,0.3425955176353454
1772808311486449200,1.68744921875,-4.859039868071675,-20.7234613822937,-7.178883914119004,-1.143662691116333,1.0586143732070925,-0.9414141178131104
1772808311506497300,1.707497314453125,-3.005225772321224,-18.210321208024023,-3.897710910634696,-2.059145450592041,1.4346017837524414,-2.065840482711792
1772808311526546200,1.727546142578125,-3.018509616786241,-12.5350777695477,-1.040484181085974,-2.3330078125,1.4018388986587524,-2.4321987628936768
1772808311546594300,1.74759423828125,-3.531877656841278,-7.145124852380156,1.1714530324719843,-1.6017578840255735,0.9016053676605223,-1.7589361667633057
1772808311566646500,1.767646484375,-4.524527342954277,-2.557618782943487,1.7086023456089197,0.0468821488320827,0.1585345417261123,-0.7769628763198853
1772808311586694400,1.7876943359375,-2.603216751036048,1.1173095004826783,1.369208916582167,1.176411271095276,-0.4142438769340515,-0.1217765733599662
1772808311606743600,1.80774365234375,0.6904226430505513,4.179315144646168,0.0311981982748955,1.4909205436706543,-0.3677381873130798,-0.1609356105327606
1772808311626792400,1.82779248046875,3.710366676554084,6.335998673015832,-0.9259974587496368,1.1374711990356443,0.3276267051696777,-0.5028218030929565
1772808311646840600,1.847840576171875,5.379700403222441,7.436433611065149,-0.732896926164627,0.6689230799674988,0.9039062857627868,-0.7245315909385681
1772808311666889500,1.867889404296875,5.096434665739536,8.263271388208866,0.1771297871235758,0.6471439599990845,0.7466666102409363,-0.5642253160476685
1772808311686937600,1.8879375,4.270254767982662,8.984002660283446,0.9007574382267892,1.01720929145813,0.0886451005935669,-0.2171592712402343
1772808311706986500,1.907986572265625,4.121907204033434,9.262882145506143,0.8170380484674126,1.337423324584961,-0.3857613801956177,0.0199665259569883
1772808311727034600,1.92803466796875,4.17451797349751,9.765776137819886,0.110931952464208,1.410154104232788,-0.2420137524604797,0.061790894716978
1772808311747083500,1.94808349609375,4.064070224353671,9.992523284745216,-0.3033695641610771,1.2134392261505127,0.0620212815701961,-0.0008549387566745
1772808311767131600,1.968131591796875,3.742494629959762,10.287759446007012,-0.5181571009624749,0.959380030632019,0.2601437270641327,-0.0781636759638786
1772808311787180500,1.9881806640625,3.199667563447356,10.489179843974112,-0.497092539493367,0.7975980043411255,0.242474228143692,-0.0918321534991264
1772808311807228700,2.008228759765625,2.4387328758001328,10.807324587136506,-0.41949345924519,0.7988876700401306,0.153495043516159,0.0118382601067423
1772808311827277300,2.02827734375,2.03007784062922,10.784739830362795,-0.339551907524094,0.780909538269043,-0.0603930428624153,0.1420631855726242
1772808311847325400,2.048325439453125,1.8372873238414524,10.570253030073642,-0.6364435809079557,0.7238017916679382,-0.1724723279476165,0.1931032389402389
1772808311867374300,2.068374267578125,1.8547808949559923,9.860888955187797,-0.9331137935608624,0.6252959370613098,-0.1608973443508148,0.1479057669639587
1772808311887422500,2.08842236328125,2.080711610931903,8.481271165055036,-1.2282970555916428,0.3858008086681366,-0.0476011969149112,0.0633302479982376
1772808311907471400,2.108471435546875,2.48817992053628,4.945579502883553,-0.6508980765875428,-0.2157949060201645,0.0080683445557951,0.0485308840870857
1772808311927519500,2.12851953125,2.562812844455242,-0.2224620169520378,-0.1474498844571411,-1.3430813550949097,-0.5477035045623779,0.1560966968536377
1772808311947568400,2.148568359375,0.1279810677468776,-5.851323058959841,0.4829904374480247,-1.9033764600753784,-0.2950129508972168,0.2749784290790558
1772808311967617500,2.168617431640625,-3.618144904452562,-16.103921759736537,3.8530662977442143,-0.9003608226776123,0.0946255698800087,1.170204758644104
1772808311987665400,2.18866552734375,-6.224803904896974,-22.636334985256195,2.7040263187408446,0.5728766918182373,-1.4747856855392456,2.3803133964538574
1772808312007714600,2.208714599609375,-8.19386467450559,-25.51454882712364,-2.4053046534508464,1.866016149520874,-3.560365915298462,2.5434296131134038
1772808312027762400,2.228762451171875,-5.573679253011941,-26.279236729824543,-5.489761783397197,1.4589885473251345,-2.460711479187012,1.692665934562683
1772808312047811600,2.2488115234375,-2.6960481794685123,-22.8413314881444,-7.831194560918211,-0.0993531420826911,0.587453305721283,0.1061732321977615
1772808312067859500,2.268859375,-2.097630450898409,-16.442067672920228,-6.415748501557111,-1.2521650791168213,2.4532392024993896,-1.1968311071395874
1772808312087908600,2.28890869140625,-3.2204110762685536,-9.62965969441235,-1.143319555529952,-1.2893503904342651,1.917466640472412,-1.1289023160934448
1772808312107956500,2.30895654296875,-3.743239310847223,-3.8734932919621454,1.1737477192804218,-0.5267902612686157,0.3913024961948395,-0.2873146831989288
1772808312128005600,2.329005615234375,-2.829196128459275,0.3742226042151451,0.0392376392804086,0.3658766448497772,-0.3425016105175018,0.177067756652832
1772808312148053500,2.349053466796875,-1.1987962358191608,3.46695247246623,-1.8086660633824765,0.8374606370925903,-0.1519588828086853,-0.1025716662406921
1772808312168102400,2.369102294921875,0.8222191774323582,5.875929092428088,-2.459698799200356,0.7048489451408386,0.3295668065547943,-0.6858187317848206
1772808312188151600,2.389151611328125,2.057261323370039,8.145276876947284,-2.080165521356464,0.4992818534374237,0.5786164999008179,-1.1556795835494995
1772808312208199400,2.409199462890625,2.1939519134037195,9.784851425167918,-0.3862100521940738,0.5061060190200806,0.275973916053772,-1.1290968656539917
1772808312228248600,2.42924853515625,2.082042421144247,11.078011998075246,1.047384461993724,0.6519536972045898,-0.2152829468250274,-0.7174922823905945
1772808312248296400,2.44929638671875,1.949749919939041,12.028293784058093,0.8602003869108855,0.8712266683578491,-0.4592579007148742,-0.4499892890453338
1772808312268345600,2.469345703125,2.672277427780628,12.70370999663472,0.3982813790641725,0.6999266147613525,-0.4165250062942505,-0.3609288036823272
1772808312288393500,2.4893935546875,3.491460306257009,12.982497711920738,0.1202586933339014,0.2092902809381485,-0.2040268033742904,-0.4406103193759918
1772808312308442600,2.509442626953125,3.472210831385851,13.161637304496765,0.0789481567695736,-0.2477011680603027,0.1508753597736358,-0.5852556824684143
1772808312328490500,2.529490478515625,3.057801178210973,13.168684300398828,0.0221328482877463,-0.508063793182373,0.5416788458824158,-0.6420013904571533
1772808312348539600,2.54953955078125,2.6364362990707155,12.825209885668754,0.4954551475498825,-0.6150535941123962,0.7840679883956909,-0.4695833027362823
1772808312368587500,2.56958740234375,2.418144845801592,12.315831792032718,0.6382216964963823,-0.6110154390335083,0.566514790058136,-0.2625337839126587
1772808312388636700,2.58963671875,2.1967517732553183,11.483734486925602,0.7625622888490557,-0.6014422178268433,0.0901738330721855,-0.0473150089383125
1772808312408684500,2.6096845703125,2.1054262193411586,10.711143848276135,0.3501752275429666,-0.5769015550613403,0.0609891526401042,0.1283645629882812
1772808312428733700,2.629733642578125,1.5998416727691889,9.376585097053647,-0.0661751113709062,-0.5276769995689392,0.2249985635280609,0.2338594049215316
1772808312448782300,2.6497822265625,1.2673254360355437,7.498712664845585,-0.4480916310895234,-0.52443528175354,0.1986528635025024,0.1380067318677902
1772808312468830500,2.66983056640625,1.864522829030454,3.6785271847009655,0.5430051264930517,-0.7452142834663391,0.3641534149646759,0.2907142341136932
1772808312488879400,2.68987939453125,2.40802151119411,-3.26463717148602,3.1905051828265187,-1.3934930562973022,-0.3277198672294616,0.5911021828651428
1772808312508927500,2.709927490234375,-1.1278294331923129,-10.615088197100162,3.84363737514168,-1.9729124307632449,-1.541779398918152,0.5577563047409058
1772808312528976400,2.729976318359375,-7.409545604139566,-14.747248791861534,1.697439000429213,-1.6817538738250732,-1.236465334892273,0.9721638560295104
1772808312549024500,2.7500244140625,-11.666142725908756,-19.37092215322256,-1.202693243257701,-0.4184761643409729,0.2474317699670791,1.394146203994751
1772808312569070800,2.77007080078125,-12.837927912944554,-23.966026422703266,-2.683908244341612,0.4849678874015808,0.2926941215991974,1.3001869916915894
1772808312589118700,2.79011865234375,-11.964476853185891,-25.714298661530016,-3.4978099675446748,0.924955427646637,0.004792122170329,0.8974822163581848
1772808312609168000,2.81016796875,-10.122976880085467,-22.820330785691738,-4.785593231327831,1.401187777519226,0.4499171674251556,0.29523965716362
1772808312629215700,2.8302158203125,-6.7427242014288895,-18.81187957270741,-3.2602284151330587,1.6502134799957275,0.9858508110046388,0.0405618511140346
1772808312649265000,2.850264892578125,-4.031087115423381,-13.709985472518206,-1.4774451271563769,1.617599606513977,0.9527297616004944,-0.1527371406555175
1772808312669312800,2.870312744140625,-1.1706991453647613,-8.111720644304155,-0.7350847185324877,1.1504113674163818,0.7621744871139526,-0.474251240491867
1772808312689362000,2.89036181640625,1.2939344798892736,-3.0718209357351065,0.051134020575555,0.4406074583530426,0.9750634431838988,-0.6797597408294678
1772808312709410600,2.91041064453125,2.1229361570686103,1.1178647962778807,0.6883455445155501,-0.0958077386021614,1.097700119018555,-0.6279321908950806
1772808312729458700,2.930458740234375,1.251409927892685,4.329697429293394,0.7898056850835681,-0.010038717649877,0.8001483082771301,-0.3708539605140686
1772808312749507600,2.950507568359375,-0.1356745448589325,6.70708473277092,0.6023226270541548,0.6345795392990112,0.2169114202260971,-0.0559727326035499
1772808312769555700,2.9705556640625,-0.1642353073023259,8.663648424378037,-0.1321245242271572,1.1670860052108765,0.0060967300087213,0.1315175294876098
1772808312789604600,2.9906044921875,0.862843156504631,10.145025045764443,-0.718635176578164,1.2921043634414673,0.1217685788869857,0.2261579483747482
1772808312809652700,3.01065283203125,1.524616043654084,11.03499703221321,-0.8407990824788808,1.1805230379104614,0.0711139068007469,0.2405355721712112
1772808312829701600,3.03070166015625,2.006684105560184,11.711849999594689,-1.0839107964888215,0.938826024532318,-0.0584649965167045,0.1328688859939575
1772808312849749800,3.050749755859375,2.1633488314777614,11.984012743782996,-1.2919374608531593,0.7212677597999573,0.0993459373712539,-0.0493072792887687
1772808312869798700,3.070798583984375,2.5863439421683547,12.082270873439311,-1.2543171936415136,0.4459986388683319,0.3459503948688507,-0.1783757805824279
1772808312889846800,3.0908466796875,2.925689294269681,12.017475452923774,-0.9863312967464328,0.1381202191114425,0.4463201761245727,-0.251535952091217
1772808312909895700,3.110895751953125,3.064340224590897,11.957737315797806,-0.8450701839268207,-0.1394194513559341,0.4106621742248535,-0.3182355761528015
1772808312929944800,3.13094482421875,2.5896511670202016,11.743093863642216,-1.0924955233521758,-0.2526088058948517,0.0350038595497608,-0.543845534324646
1772808312949992700,3.15099267578125,1.779931697937846,11.336205838143824,-0.7446503461919725,-0.3099522590637207,-0.4402259290218353,-0.5681012868881226
1772808312970041900,3.171041748046875,1.3127806346565485,10.544870751535893,-0.4082262883648276,-0.3625302612781524,-0.7368267178535461,-0.5454851984977722
1772808312990089700,3.19108984375,1.2301461905896662,9.543204230752586,-0.4236888651084154,-0.5269155502319336,-0.5967588424682617,-0.476252406835556
1772808313010138600,3.211138671875,0.8666209214776753,7.990626413461565,-0.0457796082697808,-0.7254440188407898,-0.257489264011383,-0.3205911517143249
1772808313030186800,3.231186767578125,0.1511135215312242,5.16703672670722,0.3135265818424522,-0.6923413276672363,-0.0650525093078613,-0.183539941906929
1772808313050235600,3.251235595703125,0.0343237098842859,0.6284405263900756,0.7252027184002101,-0.3907060027122497,0.0383777059614658,-0.0380298122763633
1772808313070283800,3.27128369140625,0.5620272954143584,-6.780782421666383,2.8560578318998218,-0.6355352997779846,-0.989798903465271,0.3861834108829498
1772808313090332700,3.291332763671875,-0.8394405074767768,-11.659137815582753,1.9902815445527435,-1.160861253738403,-2.030818462371826,0.4684157967567444
1772808313110380500,3.311380615234375,-4.321034230366349,-17.927419627678393,0.2902372204633429,-1.576436996459961,-1.284226417541504,-0.1448218375444412
1772808313130429700,3.3314296875,-8.222254902687668,-20.98627411433458,0.2653377204738557,-1.7199468612670898,0.9472261667251588,-0.3375442326068878
1772808313150477600,3.3514775390625,-11.596069072729348,-19.61469817636013,0.0715348848383873,-0.8424778580665588,1.6200734376907349,-0.2335354387760162
1772808313170526700,3.371526611328125,-11.280906560248136,-18.316551047211885,1.266946811981499,0.5970651507377625,0.7044740915298462,0.33919757604599
1772808313190575900,3.391575927734375,-6.40980157585144,-16.326773068267105,0.8850649251848459,1.3170816898345947,0.2663213610649109,0.6035125851631165
1772808313210623700,3.411623779296875,-0.1311532680422067,-14.42382698507905,0.0957502384886145,0.8219440579414368,0.2420016974210739,0.4722424149513244
1772808313230673000,3.4316728515625,2.361583731276542,-11.54065289045572,0.0159064115209504,0.1218607202172279,0.1864080280065536,0.3156653344631195
1772808313250720800,3.451720703125,1.197268587860465,-6.727274703362584,-0.7935936061244457,-0.1702320724725723,-0.1322617530822754,-0.1229173988103866
1772808313270770000,3.47177001953125,-0.5497416682064533,-2.8507991807192563,-0.4322195236969739,0.0102480743080377,-0.0686214491724968,-0.4124095439910888
1772808313290817800,3.49181787109375,-2.218355848428607,0.9925532400012016,0.7974839646264911,0.8686143159866333,0.1162693426012992,-0.0740121155977249
1772808313310867000,3.511866943359375,-2.7492992926627395,4.459025235474109,1.185682706419751,1.981296420097351,-0.0887147411704063,0.4178029894828796
1772808313330914800,3.531914794921875,-1.2159399705827236,7.553803852948546,0.3413308998953551,2.583468198776245,-0.2457588016986847,0.5829048156738281
1772808313350963700,3.551963623046875,1.220138518251106,10.53996895096898,-0.8993293051198125,2.3381919860839844,-0.1421546041965484,0.3542357087135315
1772808313371011800,3.57201171875,3.0335902815401554,12.68224752188921,-1.3746167669750748,1.4917622804641724,0.2345671206712722,-0.0199547726660966
1772808313391060700,3.592060791015625,3.011992197716236,14.375831892716883,-1.5494138003021478,0.8118272423744202,0.6875879764556885,-0.4021119773387909
1772808313411109600,3.612109619140625,2.2530349476218223,14.974087708723545,-0.7098284775272011,0.4979169964790344,0.7100342512130737,-0.5453635454177856
1772808313431157800,3.63215771484375,1.3593968398809433,15.319975029814245,-0.0247892080154269,0.4571633636951446,0.412534087896347,-0.5314478874206543
1772808313451206700,3.65220654296875,1.1671686331510542,15.471571950948238,0.0247985603656619,0.3977926969528198,0.1767663061618805,-0.4223410785198211
1772808313471254800,3.6722548828125,1.336636726540327,15.674611474549769,0.0221398625504225,0.1109113469719886,-0.0220630392432212,-0.2740182876586914
1772808313491303700,3.6923037109375,1.4421487728476523,15.161520497870445,-0.2963205954976379,-0.3223676383495331,-0.0119974361732602,-0.2568368911743164
1772808313511351800,3.712351806640625,1.171600478118658,14.289654661476613,-0.7233795215610415,-0.7150933742523193,0.2246174663305282,-0.2855095863342285
1772808313531400700,3.732400634765625,0.6841933932721614,12.928363970673084,-0.6218461696263402,-0.9349204897880554,0.1883622854948043,-0.2036596834659576
1772808313551448800,3.75244873046875,-0.2837187419474125,11.241592786991596,-0.5031014975845813,-0.9231829047203064,0.0461433306336402,-0.0130602484568953
1772808313571497500,3.77249755859375,-0.6498784512162208,8.651229672309755,-0.5379445551678538,-0.938434362411499,-0.0640215575695037,0.0436418503522872
1772808313591545300,3.79254541015625,-0.6133961019933223,4.431021960783005,-0.4699061341430992,-1.038457274436951,0.1092493310570716,0.1250064224004745
1772808313611594500,3.812594482421875,-0.3816051156818866,-0.9733552030563354,0.4748460016980766,-1.2008408308029177,0.2137073725461959,0.4280608296394348
1772808313631643400,3.832643310546875,0.2822486693948507,-7.100065813469886,0.8683437266822904,-1.7264939546585083,0.033303964883089,0.6597515940666199
1772808313651691500,3.85269140625,-0.0497165093272924,-13.151771744042634,-0.1655353570502251,-1.7957649230957031,0.1699209362268448,0.4991477727890014
1772808313671740400,3.872740478515625,-0.686831340560317,-19.124167406535147,0.5297405347177758,-1.4622031450271606,0.247080311179161,0.4789270460605621
1772808313691788500,3.89278857421875,-0.5314379497528076,-24.98990769790411,1.376350020508468,-1.5555460453033447,-0.906179666519165,0.6950143575668335
1772808313711837200,3.912837158203125,-3.4277082573145625,-27.903022172760963,-1.3027265658929943,-1.7456505298614502,-2.415020704269409,0.4666112959384918
1772808313731885300,3.93288525390625,-7.854661361223458,-27.326286114645004,-3.975144278927147,-1.4274795055389404,-1.7459275722503662,-0.0690888091921806
1772808313751934200,3.952934326171875,-10.10516065288782,-24.2592880690217,-4.28506596814543,-0.9581515192985536,0.0414624847471714,-0.5515021085739136
1772808313771982300,3.972982421875,-11.78532673921585,-19.464349793982503,-2.4879040262043475,-0.0181053802371025,0.6466956734657288,-0.7547317743301392
1772808313792031200,3.99303125,-11.144517729640006,-12.650173636758328,-0.4216374855365604,1.2709535360336304,0.2027329057455063,-0.5884974598884583
1772808313812079400,4.013079345703125,-6.415466762006282,-6.778788032978773,0.7539815805736929,1.8089070320129397,0.0390746183693409,-0.4128114581108093
1772808313832128300,4.033128173828125,-1.5462082822591066,-0.7340712306410074,0.3104783001877367,1.7817717790603638,0.5012946724891663,-0.5798761248588562
1772808313852176400,4.05317626953125,1.3281908236257731,4.315112439101934,-0.0463805698376148,1.6888935565948486,0.4273369908332824,-1.0018028020858765
1772808313872225300,4.073225341796875,2.1153608995087443,8.279458552899957,-0.1317816290736198,1.853094696998596,0.2542056441307068,-1.2278761863708496
1772808313892274400,4.0932744140625,2.771130600720644,11.610809545743464,1.193888005511463,1.9299447536468504,0.1498454958200454,-0.688913881778717
1772808313912322300,4.113322265625,3.1935441121309998,14.029867414736747,1.588181045591831,1.881201148033142,-0.3881018161773681,-0.1408626139163971
1772808313932371500,4.133371337890625,3.596380816411972,14.897337646520135,0.5384205021165311,1.479671597480774,-0.8497215509414673,-0.1239101439714431
1772808313952419300,4.15341943359375,3.989067298078537,15.286663127321004,-0.5910492456287145,0.7117632627487183,-0.5701542496681213,-0.3526757359504699
1772808313972468500,4.173468505859375,3.363458195722103,15.397599536764622,-1.248412791903317,-0.0416805855929851,0.1533546596765518,-0.4703662693500519
1772808313992516400,4.193516357421875,2.3574697200864554,15.221272663521766,-0.9139793233714996,-0.541487455368042,0.3817825317382812,-0.4742410778999328
1772808314012565200,4.213565185546875,1.0829840370327233,15.074185913288591,-0.6632537733569741,-0.5984337329864502,0.1819328516721725,-0.3124196529388428
1772808314032613400,4.23361328125,0.1129115454414859,14.749460622692109,-0.7569207758307457,-0.413666158914566,-0.0657053589820861,-0.1614023149013519
1772808314052662300,4.253662353515625,0.0094190222630277,13.933231917846202,-0.8752449574381113,-0.4146447479724884,-0.0755304247140884,0.0557382330298423
1772808314072710400,4.27371044921875,0.2832639839172363,12.93280750607848,-0.9776111069351434,-0.5896376967430115,-0.0679543018341064,0.1548224091529846
1772808314092759300,4.29375927734375,-0.0126513917803764,11.887377246892452,-1.3500526729524134,-0.6944618821144104,-0.0480466820299625,0.1715954691171646
1772808314112808400,4.313808349609375,-0.4637223309416323,10.514577320080996,-1.3166072072073816,-0.7537187337875366,-0.0023896754719316,0.3142208755016327
1772808314132856300,4.333856201171875,-0.9580056582331656,8.417206981423497,-1.4408845981307328,-0.9531303644180298,-0.0711192712187767,0.288937360048294
1772808314152905500,4.353905517578125,-1.2127186704486608,4.660195458072423,-1.1334199466757475,-1.095929741859436,0.26652392745018,0.32046839594841
1772808314172953300,4.373953369140625,-1.272968848749995,-0.6164093123346567,0.4168675677210092,-1.297515630722046,0.3487742841243744,0.387570858001709
1772808314193002500,4.39400244140625,-0.5502383656822145,-7.7194643707484,2.95180047160387,-1.6786214113235474,0.1386458277702331,0.6218526363372803
1772808314213050400,4.41405029296875,-1.6755898644536733,-13.303922791928052,3.344860170497,-1.542717218399048,0.0348421707749366,1.1184360980987549
1772808314233099500,4.434099609375,-3.0111487326294184,-16.0517309692502,1.5844260769724845,-0.8421795964241028,-0.2493416219949722,1.9826632738113403
1772808314253147400,4.4541474609375,-2.3566578191816805,-21.12385887672901,-1.2170895790092646,-0.5519239902496338,-1.244714379310608,2.34046483039856
1772808314273196500,4.474196533203125,-3.762335933244228,-25.383386791253088,-5.71126459992826,-0.4938958287239074,-2.359972715377808,1.4622831344604492
1772808314293244400,4.494244384765625,-3.804441383045912,-24.813744490790366,-9.275504311192035,-1.2094107866287231,-1.1731497049331665,-0.0892061591148376
1772808314313293600,4.51429345703125,-4.277098934789001,-22.255366998434067,-8.203190136733651,-1.9938193559646609,1.0106935501098633,-1.460734486579895
1772808314333341400,4.534341552734375,-7.148225741004944,-16.88389841698408,-2.224401119942218,-1.617195725440979,1.7806044816970823,-1.6790498495101929
1772808314353390300,4.554390380859375,-8.368174947229027,-11.531104140865802,3.213500273966789,-0.501010000705719,0.9148940443992616,-0.8340413570404053
1772808314373439200,4.574439208984375,-6.67500558694303,-6.397282870540023,4.153022473265231,0.4745445251464844,-0.0364647321403026,0.0145566072314977
1772808314393487400,4.5944873046875,-3.4046488687664267,-2.13395848634243,2.95416953882277,0.9169178009033204,-0.4113213717937469,0.4766705632209778
1772808314413536300,4.614536376953125,-0.7279410573229194,1.240301673901081,1.101926491781324,1.0259897708892822,-0.2248394340276718,0.4866141378879547
1772808314433584400,4.63458447265625,0.9713961779430508,4.400469586130977,-0.4468613586422055,1.053936243057251,0.3037417531013489,0.2673825025558471
1772808314453633300,4.65463330078125,2.1849080445960163,7.051530038359761,-0.6426962115619331,1.0430102348327637,0.5336405634880066,0.1161643490195274
1772808314473681400,4.674681396484375,2.4762910375609994,9.511821250495316,-0.1679565928477794,1.2246822118759155,0.3260975480079651,0.1171291694045066
1772808314493730300,4.694730224609375,2.630345580980181,11.262146914720535,0.4432199333999305,1.391079306602478,-0.2330356538295745,0.2360470741987228
1772808314513778400,4.7147783203125,3.096271486380696,12.051431498539449,0.6589207125887274,1.2819669246673584,-0.6191283464431763,0.2883973717689514
1772808314533827300,4.734827392578125,3.537954930928349,12.589673283088208,0.1182478284355253,0.9122927188873292,-0.4776711463928222,0.1634450107812881
1772808314553875700,4.754875732421875,3.773146081072092,12.541567131567,-0.3975419588737189,0.3319792747497558,-0.1245337575674057,-0.1319764703512191
1772808314573924900,4.7749248046875,3.38729792099297,12.120514971637723,-0.6299704393710941,-0.1273761540651321,0.1507759541273117,-0.4004556834697723
1772808314593972700,4.79497265625,2.2769810558766124,11.895298687541484,-0.4240715442830696,-0.1991020441055297,0.2338742315769195,-0.4001609981060028
1772808314614022000,4.81502197265625,1.702685376650095,11.2888431984663,-0.4074298042248934,-0.1663475632667541,0.1227046474814415,-0.3262910544872284
1772808314634070500,4.835070556640625,1.4800782521389424,10.46833345530033,-0.7464882291436195,-0.1706703007221222,0.0026358363684266,-0.3644822835922241
1772808314654118700,4.85511865234375,1.360922003621608,9.703630939552188,-0.6412066305913031,-0.2186812460422516,0.0074930270202457,-0.346344530582428
1772808314674167600,4.87516748046875,1.1055189633153375,8.952963963419199,-0.1104106320038437,-0.1975971609354019,0.0291344057768583,-0.2132691442966461
1772808314694215700,4.895215576171875,0.2523895377039909,7.97894298993051,0.5439640346530824,0.0245150551199913,-0.1016582325100898,0.0237271524965763
1772808314714264600,4.9152646484375,-0.1556948579721152,6.833622031450271,0.5206858887877315,0.2124125212430954,-0.227604791522026,0.2517073452472687
1772808314734312700,4.935312744140625,0.7273585812598466,5.081086874482035,0.1216356442429125,0.0723069682717323,-0.1449267268180847,0.3789430260658264
1772808314754361600,4.955361572265625,2.8081530481696126,2.823186366650462,0.4378714119788259,-0.6877917051315308,0.0158106125891208,0.289307028055191
1772808314774409700,4.97540966796875,2.850388846352696,0.8942378271996975,1.2616845075391232,-1.533216953277588,0.1033881306648254,-0.1080943867564201
1772808314794458600,4.995458740234375,1.667127302665263,-2.5962884130775925,4.127082853105664,-1.7947624921798706,0.2399681508541107,0.167109340429306
1772808314814506800,5.0155068359375,-0.2356570140898227,-6.903772841519117,6.757527802807092,-2.023245096206665,-0.2249352782964706,1.298032522201538
1772808314834555600,5.0355556640625,-3.600669745777547,-11.760724212878944,3.8785035213395953,-2.00915789604187,-0.6822835803031921,2.158970355987549
1772808314854603800,5.055603759765625,-7.544030646952986,-17.53010490168929,-2.2064570285812017,-1.7538341283798218,-0.8143954873085022,1.826334238052368
1772808314874652700,5.075652587890625,-9.70838076442778,-23.30149283866882,-7.494588278391957,-1.520314335823059,0.1456984877586364,0.7958109974861145
1772808314894701800,5.095701904296875,-10.70442301558852,-27.392849129354957,-9.409987600439786,-1.4716686010360718,1.0196735858917236,-0.5040421485900879
1772808314914749700,5.115749755859375,-12.808609464001655,-25.486211205911637,-8.366758066168426,-0.8461194038391113,1.358632206916809,-1.7051972150802612
1772808314934798600,5.135798583984375,-13.029841646897792,-19.91444567756653,-4.484192409956455,0.0337277241051197,1.6504591703414917,-2.189053535461426
1772808314954846700,5.1558466796875,-11.394753888702391,-12.898240050566196,0.2760627473015338,1.15656840801239,1.6401350498199463,-1.5908375978469849
1772808314974895600,5.1758955078125,-9.085097474670407,-5.921845624950528,2.8642148348703977,2.523550033569336,0.9823739528656006,-0.5031346678733826
1772808314994943700,5.19594384765625,-6.442803681743144,0.4137205018669366,2.188372651966661,3.648916721343994,0.2290069907903671,0.0599840581417083
1772808315014992600,5.21599267578125,-2.929991083116829,6.13840513986051,0.1429259042266756,3.870060682296753,0.508070707321167,0.1612788885831833
1772808315035040500,5.23604052734375,0.8194168333627283,11.262851848119496,-1.2329793681889771,3.41657829284668,1.4213557243347168,0.2100491523742675
1772808315055089700,5.256089599609375,2.6698329572379587,13.54329736523628,-0.8095232889231294,2.9489126205444336,1.4220097064971924,0.1854132115840912
1772808315075137500,5.276137451171875,3.928683848786354,14.85917070521116,-0.1567749082937836,2.659611463546753,1.0852985382080078,0.2896853685379028
1772808315095186700,5.296186767578125,4.975049342995882,15.321448024976252,0.1882094726078212,2.1815900802612305,0.5983428359031677,0.4492742419242859
1772808315115234800,5.31623486328125,6.344950041234493,15.156423466992376,-0.0054538084264844,1.3500187397003174,0.2324503809213638,0.3829347193241119
1772808315135283700,5.33628369140625,6.526779603546857,14.91771641768217,-0.380381857497245,0.5319543480873108,0.0374321714043617,0.142586275935173
1772808315155332900,5.356332763671875,5.850404775071143,14.70564369279742,-0.2398967705514282,-0.1512302011251449,-0.0144662307575345,0.0861347615718841
1772808315175380700,5.376380615234375,4.326662591642141,14.423678516519068,0.0513221909582614,-0.5158177614212036,-0.1530470550060272,0.2303432822227478
1772808315195430000,5.396429931640625,3.093575086903572,14.33036894918084,-0.2467076196100562,-0.7627121806144714,-0.2042930424213409,0.3388652205467224
1772808315215477800,5.416477783203125,2.288614795047045,13.831214143395425,-1.036623414004594,-1.0493320226669312,-0.0847089290618896,0.244382232427597
1772808315235527000,5.43652685546875,1.4910183099567889,12.894580943536758,-1.536126010314375,-1.2866510152816772,-0.1158099249005317,0.1225288063287735
1772808315255574800,5.45657470703125,0.5553653533071279,11.828030739432572,-1.6072778141193091,-1.3638699054718018,-0.219799593091011,0.0666269734501838
1772808315275623700,5.476623779296875,-0.1551829629272222,10.664474451559782,-1.6305512838095426,-1.2803436517715454,-0.225913718342781,0.0653534084558487
1772808315295671800,5.496671875,-0.836486406911537,8.377242635303736,-1.5056851332128047,-1.1597347259521484,-0.3031772375106811,0.0066372556611895
1772808315315720700,5.516720703125,-0.514923964260146,5.300084430193901,-1.1015426070302723,-1.4422122240066528,-0.0883051753044128,-0.1419582664966583
1772808315335768600,5.5367685546875,0.1001191012226045,-0.6399234589129686,0.3805588580319657,-1.6394442319869995,0.4353595674037933,-0.1651068478822708
1772808315355817700,5.556817626953125,0.7122723635479807,-8.740044850838183,1.8360127738609908,-2.535882472991944,0.1682477295398712,-0.6305232644081116
1772808315375865600,5.576865478515625,-1.7858884143851697,-13.477433438706395,2.101996829414368,-2.850200653076172,0.2511302828788757,-0.9865303635597228
1772808315395914800,5.596914794921875,-6.977315632113814,-20.13982562779188,3.2453102474644777,-2.243660926818848,-0.0689139440655708,-0.4253912568092346
1772808315415962600,5.616962646484375,-12.291055078172684,-24.853192704081533,1.6386887052968144,-0.9338662028312684,-0.3754150569438934,0.1776537001132965
1772808315436011800,5.63701171875,-14.91087283539772,-26.08009479818344,-0.8982209054864942,0.2828140258789062,-0.3286056518554687,-0.0757905691862106
1772808315456060700,5.657060791015625,-12.98096509552598,-24.103919812655448,-2.761902169126272,0.723101019859314,0.048487901687622,-0.7350301146507263
1772808315476108800,5.67710888671875,-9.639018474388122,-21.26108824981451,-0.7364872057415545,0.8499835729598999,0.6041659712791443,-0.7716345191001892
1772808315496157700,5.69715771484375,-7.29347884607017,-16.28733771445751,1.6545925230018794,1.1993167400360107,0.3943733870983124,-0.4677225649356842
1772808315516205800,5.717205810546875,-3.173679135710001,-10.613054060924052,2.3770237308621405,1.0942068099975586,-0.178126648068428,-0.2131368070840835
1772808315536254700,5.737254638671875,-0.8893246284559368,-5.305287844055891,1.826755554563552,1.1717020273208618,-0.565051794052124,-0.1112046465277671
1772808315556302000,5.757302001953125,0.1914057844310998,-0.7333452544540167,1.1188999845445156,1.1490094661712646,-0.8965463638305664,0.1008589789271354
1772808315576351000,5.77735107421875,2.3224165268838406,2.331639697781205,0.2635084592200815,0.4597412645816803,-0.811081051826477,0.2020411342382431
1772808315596399000,5.797399169921875,3.393408512827754,4.652247129416465,-0.5796034302458166,-0.1789384633302688,-0.3888691961765289,0.1936057358980178
1772808315616448000,5.817447998046875,0.7683353192925453,7.18663350533247,-0.0611755495179444,0.356245219707489,-0.2032938599586486,0.4982187151908874
1772808315636496100,5.83749609375,0.5673398687392472,9.19271087717116,0.7724629206165671,0.731614351272583,-0.1810133457183838,0.861118733882904
1772808315656545000,5.857544921875,2.2980006091602143,10.61370989448428,0.319015826908499,0.4413999021053314,0.1851440966129303,0.7339744567871094
1772808315676593200,5.87759326171875,3.079697952720523,11.852404133188724,0.4281610420864075,-0.1040669977664947,0.6899676322937012,0.4625271260738373
1772808315696642000,5.89764208984375,2.770594594147801,12.192563139760493,0.3519754088327288,-0.423803836107254,0.9485133290290833,0.0998113006353378
1772808315716690200,5.917690185546875,2.898706594797969,12.655233258235452,0.0220360368497669,-0.5843676328659058,0.9719873070716858,-0.1389032155275344
1772808315736738800,5.93773876953125,2.699519070449471,12.588915742719172,0.1010088166039437,-0.6626971364021301,0.6519769430160522,-0.2916638255119324
1772808315756788000,5.9577880859375,2.6113386826932428,12.614329585438966,-0.1303820644740015,-0.6042622923851013,0.4412999749183655,-0.2703465223312378
1772808315776835800,5.9778359375,1.8742380212284624,12.395250781184432,-0.4898885994639247,-0.4594716429710388,0.0891085267066955,-0.341607391834259
1772808315796885000,5.997885009765625,1.9786961745686829,12.157653154420853,-0.8667182443723082,-0.1027414873242378,0.1208701431751251,-0.3250980079174042
1772808315816932900,6.017932861328125,1.7508594788409768,11.43686985989809,-1.134971048575267,0.0182174108922481,-0.0467555448412895,-0.2551581561565399
1772808315836982000,6.03798193359375,2.1558793723799288,10.735616610753535,-1.6942992410987614,-0.0375977978110313,0.1802074611186981,-0.2004542797803878
1772808315857030000,6.05802978515625,2.5405031052306293,9.71981342806816,-1.920140232964605,-0.2586725354194641,0.4857455492019653,-0.2245640009641647
1772808315877079000,6.0780791015625,2.0999059946149585,8.492398708268999,-2.039906722334772,-0.3857423663139343,0.4202648997306824,-0.3171892464160919
1772808315897127000,6.098126953125,1.4578059223152695,6.734473090434074,-1.6551880046769976,-0.4264169037342071,0.0817736908793449,-0.2298821657896042
1772808315917176000,6.118176025390625,0.6582198708429933,3.521775949543714,-1.0396386701725422,-0.4126583337783813,-0.1101176813244819,0.037476509809494
1772808315937224000,6.138223876953125,0.1535591611176729,-2.7737247088670727,0.6562472555957735,-0.3266842663288116,-0.2499163299798965,0.4845266938209533
1772808315957273000,6.158273193359375,-0.6673091862276196,-9.015745121502876,1.5494333817854522,-1.06535542011261,-1.1797599792480469,0.4212608933448791
1772808315977321000,6.178321044921875,-1.469686475853622,-15.24164675850868,2.616989255800843,-1.7360846996307373,-1.4881266355514526,0.5716201066970825
1772808315997370000,6.1983701171875,-5.574453159993887,-24.60397127501965,4.462757407739758,-1.4929457902908323,-1.6824777126312256,1.6675519943237305
1772808316017418000,6.21841796875,-10.777910276603698,-26.657265740585327,-0.2234505530653521,-0.4375430047512054,-1.8323981761932373,1.7619309425354004
1772808316037467000,6.238466796875,-13.235444883507489,-27.33097631828785,-5.317241901221872,0.3328222334384918,-1.630565524101257,0.7337373495101929
1772808316057515000,6.258514892578125,-12.184571556484698,-25.57150697814226,-6.4210723269283765,0.4990830719470978,-0.3722358047962188,-0.214741438627243
1772808316077564000,6.27856396484375,-9.796347801694273,-20.434249303627013,-4.2223090677201744,0.5281614661216736,1.0136717557907104,-0.6111609935760498
1772808316097612000,6.298612060546875,-7.299086164557933,-13.575652989917993,-0.9649937635548412,0.8483263850212097,1.4985803365707395,-0.698947548866272
1772808316117661000,6.318660888671875,-4.649229827421904,-5.7557636668682095,1.5270922245092688,1.3505929708480835,1.0684198141098022,-0.6255918741226196
1772808316137710000,6.3387099609375,-2.026099292387068,0.6355763696193695,2.5469576881974936,1.682931661605835,0.1653260886669159,-0.4545360207557678
1772808316157758000,6.358758056640625,-0.6041143327765166,5.023541278964281,2.990436199468374,2.1168911457061768,-0.2063257843255996,0.147005409002304
1772808316177807000,6.37880712890625,0.4371750272125005,9.831493349355458,1.8987289038844408,2.4471089839935303,0.1866298019886016,0.4735881090164184
1772808316197855000,6.39885498046875,1.9711678248904645,11.894141334199904,0.839525847672671,2.155698776245117,0.6198274493217468,0.2849708795547485
1772808316217904000,6.418904052734375,3.6480566431134935,13.364945708167552,0.0860231366571038,1.5300649404525757,1.1654552221298218,4.10727225244e-05
1772808316237952000,6.438951904296875,4.08035325063467,14.139448902440073,-0.1516673560217022,0.8975147008895874,1.1483571529388428,-0.2009813487529754
1772808316258001200,6.459001220703125,3.0621845078617334,13.49555595537424,0.2435928485903888,0.5383470058441162,0.1640786379575729,-0.2007568329572677
1772808316278049000,6.479049072265625,2.4964514897972343,13.986757756328585,0.023228972961381,0.3826197981834411,-0.550667405128479,0.087410107254982
1772808316298098200,6.49909814453125,2.2956501005113124,14.105427390372752,-0.5228778093414381,0.1131016463041305,-0.8298150300979614,0.1570497155189514
1772808316318146000,6.51914599609375,1.7444716775000095,14.224171843218803,-1.5942593425922096,-0.1166758388280868,-0.665884256362915,-0.1198382079601287
1772808316338195200,6.5391953125,1.4994950464010235,13.886003718203304,-2.034536573603749,-0.4667208790779114,-0.2700002193450928,-0.4573171436786651
1772808316358243000,6.5592431640625,1.2937269746184348,13.303884213483332,-1.7297316428773104,-0.7576743364334106,0.0829108580946922,-0.6254543662071228
1772808316378292000,6.5792919921875,0.7617296374171972,12.736762371408938,-1.4161498237162828,-0.794971227645874,0.1941319555044174,-0.6926292181015015
1772808316398340000,6.599340087890625,0.6186667358726262,11.65250115404725,-0.9329727045897394,-0.8380085825920105,-0.0824731588363647,-0.7483015060424805
1772808316418389000,6.619388916015625,0.8844013467095792,10.54942534610033,-0.5191803065303713,-0.9677206873893738,-0.1382843405008316,-0.7368788719177246
1772808316438438000,6.63943798828125,1.0489034882545472,9.22314634744525,-0.2868677074976265,-1.241402268409729,0.0399027019739151,-0.660123348236084
1772808316458486000,6.659486083984375,1.4790496397435664,6.744989808273315,0.5266495464324951,-1.372967004776001,0.5102559328079224,-0.512758731842041
1772808316478535000,6.679534912109375,3.071248688805103,0.7315677233874798,2.9339538492679598,-1.4784860610961914,0.7257888913154602,-0.152326300740242
1772808316498583000,6.6995830078125,4.213337241235375,-8.230622918060421,6.04198533154726,-1.909366250038147,-0.3840546607971191,0.569770872592926
1772808316518632000,6.7196318359375,1.2547758971944452,-11.85080605034232,4.515334274934232,-1.8445844650268557,-2.293748378753662,1.5171138048171997
1772808316538680000,6.73968017578125,-3.8427576696977015,-13.190706747114657,0.6813469177998602,-0.7535990476608276,-3.584178924560547,2.787689447402954
1772808316558729000,6.75972900390625,-6.491774925661087,-19.34839000341892,-3.047517100083828,0.1195056959986686,-3.8524088859558105,3.418032169342041
1772808316578777000,6.779777099609375,-8.115605376783012,-21.5811888032198,-8.49083160508275,-0.0698408484458923,-3.3171751499176025,2.343758344650269
1772808316598826000,6.799825927734375,-6.734911481851339,-22.090615996694563,-12.382395975786446,-1.4896994829177856,-0.8382664918899536,0.4078767895698547
1772808316618874000,6.8198740234375,-7.65271664712131,-20.23741974058151,-11.690690307188031,-2.214041233062744,1.6682270765304563,-1.4596980810165403
1772808316638923000,6.839923095703125,-10.14137996726036,-16.35362483483553,-5.412120909833908,-1.710275411605835,2.561593532562256,-2.101323127746582
1772808316658971100,6.85997119140625,-9.7482907500118,-11.19671436534524,0.2529110773600638,-1.0328260660171509,2.0003623962402344,-1.6902501583099363
1772808316679020000,6.88002001953125,-8.105460414865613,-6.101432961294055,2.208736225559562,-0.1212350130081176,1.0321506261825562,-0.9151502847671508
1772808316699068200,6.900068115234375,-5.673763429051637,-2.0720786610126494,1.6929025260433554,0.6995790004730225,0.4171077907085418,-0.4764294326305389
1772808316719116800,6.92011669921875,-1.9083494035363195,0.4262123191714286,0.7034514167759567,0.851012110710144,0.4294260442256927,-0.3868991434574127
1772808316739165200,6.940165283203125,0.9181365891814232,2.906469630014896,-0.2699324643855914,0.8039477467536926,0.8537690043449402,-0.4353429973125458
1772808316759213800,6.9602138671875,2.6387796473264693,5.9067544388026,-1.0431145295895636,0.9827252626419068,1.3625580072402954,-0.598638653755188
1772808316779262000,6.980261962890625,3.5341292351603504,9.49362742215693,-0.4801864859431982,1.4335274696350098,1.534702181816101,-0.6096740961074829
1772808316799310800,7.000310791015625,5.226446362531185,12.60730947754383,0.0559450284533202,1.5612642765045166,1.4400609731674194,-0.5261569619178772
1772808316819360000,7.020360107421875,7.441068869650364,14.237337614262104,-0.2621530260231345,1.0195788145065308,1.1024514436721802,-0.6996550559997559
1772808316839407900,7.040407958984375,8.293268467065692,15.173959123682977,-0.418499845097959,0.0668847784399986,0.6775805950164795,-1.0037082433700562
1772808316859457000,7.06045703125,7.336172909414768,14.67795021470785,-0.2340834811627864,-0.4552022218704223,0.7142022252082825,-1.0088634490966797
1772808316879505000,7.0805048828125,5.819947092965245,14.549313313400743,-0.1613340329028666,-0.5997803211212158,0.7499988675117493,-0.7515390515327454
1772808316899554000,7.100553955078125,4.7864548165932295,14.017171599292752,-0.5809248881079256,-0.6867777109146118,0.7451841831207275,-0.4663248658180237
1772808316919602000,7.120601806640625,4.248984600938856,12.919872036659717,-1.0752644025661051,-0.8716205358505249,0.4963626563549042,-0.2816975116729736
1772808316939651000,7.140651123046875,3.369118413440883,11.476380032509566,-1.5915122358411549,-0.8690089583396912,0.3483785986900329,-0.0470294877886772
1772808316959699000,7.160698974609375,2.2908964762434363,9.89635774345398,-1.8665642717301845,-0.68548184633255,0.4022827744483948,0.2206047773361206
1772808316979748000,7.180748046875,1.9928250915557144,8.277864561706782,-1.8801354087039828,-0.6309087872505188,0.0763643458485603,0.4227462112903595
1772808316999796000,7.2007958984375,0.8362976794064044,6.81076021130085,-2.161633551992476,-0.2656762897968292,-0.4591419696807861,0.5413625240325928
1772808317019845000,7.22084521484375,-0.2489730072587728,4.881649759286642,-1.8626226944975557,0.0712059661746025,-0.9250383377075196,0.742056667804718
1772808317039893000,7.24089306640625,-0.6963888579785823,1.2584756284952163,-1.6447253551125525,0.2456072270870208,-1.0236235857009888,0.9606093764305116
1772808317059942000,7.26094189453125,-1.2218836814180016,-4.566829776632786,-1.27282432571277,-0.2738555371761322,-1.8757926225662231,0.9360694885253906
1772808317079990000,7.280989990234375,-2.961347759889066,-10.10061307258606,-2.0885484420374034,-1.2686214447021484,-2.4489200115203857,0.7607522010803223
1772808317100039000,7.301038818359375,-4.9236745450675485,-16.938726570236682,-2.695390592342615,-1.6506630182266235,-1.7380551099777222,0.955834686756134
1772808317120086800,7.321086669921875,-9.91287867014408,-22.21678621562719,-4.445417273621261,-0.9996642470359802,-1.4228055477142334,1.1067523956298828
1772808317140136000,7.341135986328125,-12.344554028648137,-26.261214750921724,-5.254565957078337,-0.2646390497684479,-1.6485440731048584,1.002641201019287
1772808317160183800,7.361183837890625,-11.943533433878422,-29.68752541639805,-4.349607121638954,-0.0669814124703407,-1.8627506494522093,0.5893741250038147
1772808317180233000,7.38123291015625,-11.99450608074665,-28.55337291766405,-3.630021512468159,0.0113760810345411,-1.5484044551849363,-0.1791196465492248
1772808317200280800,7.40128076171875,-11.750786171710493,-22.763505905663965,-2.6244725972935554,0.1561827957630157,-0.3706990778446197,-0.7513322830200195
1772808317220330000,7.421330078125,-9.986257210087777,-15.002399610972404,-0.229155760703329,0.4840360283851623,0.9591884613037108,-0.9226505160331726
1772808317240379100,7.441379150390625,-7.151362285465002,-6.394382472923398,2.5573081095591186,1.2628068923950195,1.159974455833435,-0.4760240912437439
1772808317260427000,7.461427001953125,-4.881136549067497,1.1940683305144308,4.851541036748886,2.5870361328125,-0.2661831378936767,0.5399855375289917
1772808317280476200,7.48147607421875,-0.8452046239614486,7.612683327418566,3.897537015372514,3.4178783893585205,-1.7621967792510986,1.1162216663360596
1772808317300524000,7.50152392578125,3.88715766017735,12.263157017421722,2.0427349314980208,3.153864622116089,-1.8958566188812256,0.917027473449707
1772808317320573200,7.5215732421875,6.716620038357377,14.981981092321872,0.8548144560888409,2.325364351272583,-0.8654129505157471,0.3223914504051208
1772808317340621000,7.54162109375,7.70234489364326,15.407621749085187,1.122136847573891,1.3362751007080078,0.2010114192962646,-0.1309083998203277
1772808317360670200,7.561670166015625,7.415154676192999,15.893290465831756,1.5408080306507643,0.5842421054840088,0.6508432030677795,-0.3186639547348022
1772808317380718000,7.581718017578125,6.442564027768373,15.542690729266404,1.6580905942507087,0.1926071345806121,0.3213650286197662,-0.3143638372421264
1772808317400767000,7.60176708984375,4.936157010021805,15.015429772937296,0.8902206274475902,-0.0588495545089244,-0.3134065866470337,-0.4475196897983551
1772808317420815000,7.621815185546875,4.014588108304142,14.677021993947028,0.0463370229568332,-0.4022952318191528,-0.5542717576026917,-0.6942263245582581
1772808317440864000,7.641864013671875,2.9647838718175885,14.229423187875748,-0.1943773110551759,-0.7577570676803589,-0.3367584645748138,-0.8474928140640259
1772808317460911900,7.661911865234375,1.6539777521044017,13.76030930008888,-0.2231743299398571,-0.913416028022766,0.1545269340276718,-0.845537543296814
1772808317480961000,7.6819609375,1.166225507082045,13.007908047509192,0.0205842580057214,-1.040319800376892,0.4740027785301208,-0.7307382225990295
1772808317501009000,7.7020087890625,0.4886392569899558,11.653984670603275,0.3126788789719343,-0.9308183193206788,0.4540869891643524,-0.6376214027404785
1772808317521058000,7.72205810546875,0.1523120836660265,10.160465776002406,0.3180075266487896,-0.7730796337127686,0.2549756467342376,-0.6607559323310852
1772808317541106000,7.74210595703125,0.1880389383465051,8.438734338098763,0.7788182809926569,-0.6784369349479675,0.2174639701843261,-0.6145849227905273
1772808317561155300,7.7621552734375,0.1870318071305751,5.611221340420842,1.6835139354512094,-0.6282368302345276,0.2746326327323913,-0.3362467586994171
1772808317581203200,7.782203125,-0.4461030145555734,1.9651631776481864,2.2169375060632825,-0.7232111692428589,-0.2021122425794601,-0.0449544750154018
1772808317601252400,7.80225244140625,-1.6840306528016924,-2.792401936808228,1.9518777257479727,-0.7909244894981384,-0.4903790652751922,0.2404187619686126
1772808317621300200,7.82230029296875,-3.265686388278007,-7.033262560263276,1.4265670267038046,-0.7900131940841675,-0.3972741365432739,0.5283389687538147
1772808317641349400,7.842349365234375,-5.818513260769843,-10.595270566952228,1.2311224882759153,-0.1783006340265274,0.2961856424808502,0.8948508501052856
1772808317661397200,7.862397216796875,-5.678501563489437,-13.628429471337794,0.6351873703017831,-0.0989070162177085,0.4071177244186401,1.027595043182373
1772808317681446400,7.8824462890625,-4.459667625030875,-17.55915914673805,0.2035325130165554,-0.4813098013401031,-0.0498131401836872,0.8365058302879333
1772808317701495300,7.902495361328125,-5.068915375173091,-19.522516736269,-0.466799765625596,-0.8283599019050598,-0.2172931432723999,0.4464549422264099
1772808317721543400,7.92254345703125,-5.736040729266405,-19.35322750657797,-1.2152634595606475,-0.8278341293334961,0.3259943127632141,0.0100092086941003
1772808317741592000,7.942592041015625,-6.246499019354581,-17.790127126228807,-1.0392970901932568,-0.6252208352088928,0.523112952709198,-0.2451874017715454
1772808317761640200,7.96264013671875,-5.878478192389011,-15.257528218251466,0.0515615709383971,-0.4653176665306091,0.4081272780895233,-0.3061988055706024
1772808317781689000,7.982689208984375,-4.93366753129363,-11.089330679947135,0.5483775767790153,-0.3467536568641662,0.357756644487381,-0.3694568276405334
1772808317801737200,8.0027373046875,-3.21246303987354,-6.720652070352434,0.7072398492734879,-0.3086985349655151,0.1861763447523117,-0.3765856921672821
1772808317821786000,8.0227861328125,-2.158083750556409,-2.855619148221612,0.5854920133603736,-0.1207644343376159,-0.1173278987407684,-0.2501620352268219
1772808317841834200,8.042834228515625,-1.6146557955414056,0.2842033105939626,-0.5985884089618921,0.1872956603765487,-0.037766620516777,-0.3112483322620392
1772808317861883100,8.062883056640626,-0.8787517965152859,2.965007159179449,-1.501956175817549,0.4493065476417541,0.6486915946006775,-0.4650744497776031
1772808317881931300,8.08293115234375,-0.2432370939552783,5.318501545894145,-1.525749285467714,0.7950036525726318,1.1244767904281616,-0.6196973323822021
1772808317901980200,8.102980224609375,0.4399748870640992,7.266738138660788,-0.8806265774112194,1.205748438835144,1.0480026006698608,-0.6310914754867554
1772808317922028300,8.1230283203125,1.9184061026483772,8.669344005671142,-0.0564767972424626,1.3904304504394531,0.647593080997467,-0.4656763672828674
1772808317942077200,8.1430771484375,2.690692789915204,9.891008199119566,0.0975995196171104,1.4691493511199951,0.2817827463150024,-0.2576473355293274
1772808317962125300,8.163125244140625,3.030067660371959,10.917475399160384,-0.1306798053115606,1.4508342742919922,0.0449203886091709,-0.0925246104598045
1772808317982174200,8.18317431640625,3.3770848622754213,11.755372330456971,-0.9463865321099758,1.2774220705032349,0.0093672359362244,-0.0998134762048721
1772808318002222300,8.203222412109374,3.605857962070405,12.009039633011817,-1.5472522383540868,0.963135540485382,0.1162125766277313,-0.2192735075950622
1772808318022271200,8.223271240234375,3.5394092213898896,12.212892811083792,-1.612691217470169,0.5496999025344849,0.1994209885597229,-0.3491565883159637
1772808318042319400,8.2433193359375,3.463946860909462,12.221648948991298,-1.771195726035535,0.1363068372011184,0.1882862448692321,-0.4698905348777771
1772808318062368300,8.2633681640625,2.829551810029149,12.1239168890357,-1.4640933320216831,-0.0485630966722965,0.1867427825927734,-0.4045141637325287
1772808318082416400,8.28341650390625,2.2463778278201816,11.626786867076158,-0.9520783140107988,-0.0663261115550994,0.0308795608580112,-0.2759568095207214
1772808318102465300,8.30346533203125,2.7392586679026483,10.423633897352218,-0.5500412356749177,-0.2478333860635757,-0.0719375312328338,-0.1965890973806381
1772808318122513400,8.323513427734374,3.2812276562809943,8.871222084277868,-0.4357118227921426,-0.5708117485046387,0.0611219331622123,-0.1799000948667526
1772808318142562000,8.34356201171875,3.4278929662317035,6.22505524930954,0.1830170185312628,-0.9512477517127992,-0.2486864924430847,-0.0183484032750129
1772808318162610200,8.363610107421875,1.712446307685971,0.9184750273555516,0.0690441640011966,-1.1332331895828247,-1.4650787115097046,0.2291080504655838
1772808318182659000,8.3836591796875,-1.1392255642145872,-4.477392082291841,-1.4589184136018156,-0.8438300490379333,-2.0496950149536133,0.0578212440013885
1772808318202707200,8.403707275390625,-3.290873728765547,-9.071620153459904,-1.8246224880576127,-0.8526215553283691,-1.3814799785614014,-0.3193160593509674
1772808318222756000,8.423756103515625,-4.718141743345559,-14.52824714449644,0.9413600822500884,-0.9628949165344238,-0.2825919985771179,-0.1329124271869659
1772808318242805200,8.44380517578125,-7.850731036037206,-17.120241659772397,2.341075780776888,-0.189320757985115,-0.3415732979774475,0.3456316590309143
1772808318262853000,8.46385302734375,-8.742702087348698,-18.303995517021416,2.212555053195357,0.788288414478302,-1.059619426727295,0.4910019934177398
1772808318282902300,8.48390234375,-5.021542214101553,-20.60753432495594,3.1319702840104697,0.3968580365180969,-1.2033615112304688,0.2404852509498596
1772808318302950100,8.5039501953125,-2.7707933315902946,-21.00546046084165,2.714579861459136,-0.646587610244751,-0.584123432636261,-0.2615673840045929
1772808318322999300,8.523999267578125,-4.497255305147171,-18.165256908416747,1.4939561169743536,-0.9183284044265748,0.1262989640235901,-0.6923936009407043
1772808318343047200,8.544047119140625,-6.977560546785592,-13.377868318104744,1.7295558479189872,-0.3431349694728851,0.3686428070068359,-0.4281612932682037
1772808318363096300,8.564096435546874,-7.49995243577361,-8.055992327341437,1.3912060827262698,0.6807651519775391,-0.0386869497597217,-0.050309732556343
1772808318383144200,8.584144287109375,-5.774521558830141,-3.4946868670880797,0.319078224620223,1.4624722003936768,-0.5214284658432007,0.0363925211131572
1772808318403193300,8.604193359375,-2.861156324082613,0.904244257429242,-0.891098433195427,1.757832169532776,-0.2820505797863006,-0.0532435774803161
1772808318423241200,8.6242412109375,-0.2612000361472368,4.572614205253124,-1.91726336235404,1.7714760303497314,0.4484416246414184,-0.3627399504184723
1772808318443290000,8.6442900390625,1.486023278148472,7.594012529218197,-1.7855536294728516,1.7530441284179688,0.7307113409042358,-0.5492396950721741
1772808318463338200,8.664338134765625,1.891410543695092,9.723335172453522,-0.7342348967701197,2.0815017223358154,0.3201889395713806,-0.4173075258731842
1772808318483387100,8.68438720703125,2.6572709973067044,11.14661967035532,0.3091360917985439,2.438344240188598,-0.2561987936496734,-0.1244894489645958
1772808318503435000,8.70443505859375,3.8643227280348538,12.844029152429105,0.7162604102708399,2.359877109527588,-0.6210601925849915,0.2192382216453552
1772808318523484200,8.724484130859375,5.287024457612634,13.14127957612276,0.4316517337463796,1.5777699947357178,-0.8545862436294556,0.2110624015331268
1772808318543532000,8.744531982421876,5.280850737413764,13.903252959167956,-0.3419204632863402,0.7377480268478394,-0.5020850896835327,-0.0790404975414276
1772808318563581000,8.764580810546875,4.022775506412983,14.249157815915344,-0.2796788189068436,0.154100626707077,-0.0294418986886739,-0.2493412494659423
1772808318583628800,8.78462890625,2.869617862957716,14.435785133898255,0.2131131738483905,-0.1812431663274765,0.1484597474336624,-0.1950646787881851
1772808318603678000,8.804677978515626,2.461591188818216,14.448977792948485,0.4097099510513246,-0.5138973593711853,-0.0122120473533868,-0.0455130226910114
1772808318623725800,8.824725830078124,1.9001159743286669,14.183996484696864,0.4657439729623496,-0.7525199055671692,-0.3417396247386932,0.1405310034751892
1772808318643775000,8.84477490234375,1.1989437545310706,13.377472012263537,0.2389396890223026,-0.8701198697090149,-0.511823832988739,0.2595592737197876
1772808318663822800,8.86482275390625,0.5455155749440193,12.244039644497631,-0.2968462268069386,-0.9611008167266846,-0.3975172638893127,0.3432632982730865
1772808318683872000,8.8848720703125,0.358200932284072,10.595054293853044,-0.3419304732237011,-1.1714311838150024,-0.0855719968676567,0.4612824618816376
1772808318703919900,8.904919921875,0.0450625460416078,8.003917272189259,-0.467717830318585,-1.2846187353134155,0.0799676775932312,0.5046543478965759
1772808318723969000,8.924968994140626,-0.0772241094559431,3.374358944442868,0.0283641438927501,-1.527997612953186,0.0011469952296465,0.6061305403709412
1772808318744017000,8.945016845703124,0.4915586515679955,-2.183183412760496,-0.2124363705653697,-1.9555448293685915,-0.0831559300422668,0.6044229865074158
1772808318764066000,8.965066162109375,-0.3749953421533107,-7.322057290300727,-0.7970384858813137,-2.4691195487976074,-0.16155706346035,0.4473146498203277
1772808318784114000,8.985114013671875,-2.091559606552124,-12.274697817611694,-1.0131968726444989,-2.63229775428772,0.1417828500270843,0.5884877443313599
1772808318804163000,9.0051630859375,-3.2271275250419973,-17.217356464612482,-1.1624196119930594,-2.8428637981414795,0.0198498647660017,1.2416930198669434
1772808318824211000,9.0252109375,-6.490504175072908,-21.186140853118896,-3.791791744831204,-2.916468620300293,-1.2096941471099854,1.3317009210586548
1772808318844260000,9.045260009765624,-10.72956447110772,-24.044357032096386,-7.421822901910543,-2.9603962898254395,-1.7838196754455566,1.3011643886566162
1772808318864308000,9.065307861328124,-13.170171324086189,-22.933613466000555,-10.907120009362696,-2.245246648788452,-1.0858373641967771,0.3871106505393982
1772808318884356900,9.08535693359375,-15.10214593335986,-19.27267337591648,-10.740614272910356,-0.6707067489624023,-0.5915466547012329,-0.987170159816742
1772808318904405000,9.105405029296875,-11.973348726427554,-13.761866466403006,-5.319046904817223,0.2560667693614959,-0.6258803009986877,-1.361824870109558
1772808318924454000,9.125453857421874,-5.811093339902162,-7.776914104676246,-0.4884502372238785,-0.0023644417524337,-0.6130692362785339,-1.116635799407959
1772808318944501800,9.145501708984376,-4.037620024323463,-2.149237888538837,0.7389339413065463,0.2344383001327514,-0.8525076508522034,-1.1247570514678955
1772808318964551000,9.165551025390624,-4.464225142204762,2.4684505531936884,1.6467092224061488,1.224348783493042,-0.9659402966499328,-0.9215295910835266
1772808318984600000,9.18560009765625,-2.233864383205771,5.036788298550248,2.482128949934244,1.7393972873687744,-0.5971042513847351,-0.5958447456359863
1772808319004648000,9.20564794921875,0.5101555077493191,7.11244364900589,2.1117001850441097,1.792439341545105,-0.1587451994419098,-0.5580570101737976
1772808319024697000,9.225697021484375,2.3580735311985013,8.52645236904025,1.6339802353449164,1.6975668668746948,0.1605744510889053,-0.676065981388092
1772808319044745000,9.245744873046876,3.6157173850446935,9.06504895837605,1.7100692032910882,1.543321967124939,0.1512800753116607,-0.7128742337226868
1772808319064794000,9.265794189453125,4.110620378604531,9.386491574040054,1.8656373661436136,1.5180391073226929,0.119465135037899,-0.5594841837882996
1772808319084842000,9.285842041015623,4.014859034200012,9.64036638186574,1.6274077250868082,1.5562127828598022,0.0164478905498981,-0.4109944999217987
1772808319104891100,9.30589111328125,4.031652055829763,9.991840563178062,1.0637445720989256,1.5266882181167605,-0.0965122207999229,-0.3583209216594696
1772808319124939000,9.32593896484375,3.644488136976957,10.47519808037281,0.8835353775300085,1.4650750160217283,-0.1349800676107406,-0.2356299757957458
1772808319144988200,9.34598828125,3.541672782407701,10.746467675113678,0.4632488682109862,1.233602523803711,-0.1071013435721397,-0.2474591583013534
1772808319165036000,9.3660361328125,3.443700776216388,10.905502052772045,0.0456183532934635,0.9401761889457704,-0.0153989186510443,-0.2546179592609405
1772808319185085200,9.386085205078125,2.523563953128457,11.16651796452403,0.2544797879815101,0.7855281829833984,-0.0908929631114006,-0.0401333197951316
1772808319205133000,9.406133056640623,1.9269190794497728,11.090447116756438,-0.2514061526898294,0.7543449401855469,-0.1900696456432342,-0.0035510291345417
1772808319225182000,9.426181884765626,2.169903221557289,10.482720877093076,-0.6105229577098041,0.5692554116249084,-0.2369662225246429,-0.0687810108065605
1772808319245230000,9.44622998046875,2.065700212021917,9.670531218504903,-0.2310915328051895,0.4222707152366638,-0.1819964200258255,0.0647562965750694
1772808319265279000,9.466279052734375,1.983258221787214,7.944881145852804,0.2663773657198995,0.2296256422996521,-0.2968971729278564,0.1150825843214988
1772808319285326800,9.486326904296876,2.870181926581264,5.717880803197622,0.3544805965866893,-0.2581119537353515,-0.1730691492557525,0.1053459197282791
1772808319305376000,9.5063759765625,3.571602348986268,3.092120796442032,0.1312166886672377,-1.337864637374878,-0.0058678393252193,0.0422959625720977
1772808319325423900,9.526423828125,1.6568448319733142,1.523117914050817,-0.0947486602306365,-2.1211636066436768,0.1178334727883338,0.0745740979909896
1772808319345473000,9.54647314453125,-2.164997183206677,-1.3530249667614698,1.0070547896929083,-1.993293523788452,0.1369091421365738,0.7594673037528992
1772808319365521000,9.56652099609375,-2.6780168482154605,-7.701741667053103,2.245440546970069,-2.028037548065185,-0.0595314130187034,1.6487936973571775
1772808319385570000,9.586570068359377,-2.7295965210661293,-13.956112442696094,0.8210168159052729,-2.1257283687591557,-0.3849251270294189,2.080432891845703
1772808319405618000,9.606617919921876,-3.81773253403455,-19.388720844763515,-2.464849898353219,-2.1775596141815186,-0.3640339374542236,1.590312361717224
1772808319425667000,9.6266669921875,-4.60803740081191,-22.553388991022107,-4.811732757973671,-2.723597526550293,0.1435769349336624,0.5876263380050659
1772808319445715000,9.64671484375,-7.948731976062059,-23.353466187012195,-4.998243171578645,-3.035708427429199,0.4529374837875366,-0.3069872856140136
1772808319465764000,9.66676416015625,-13.571292456620933,-19.85927148735523,-3.614941432236135,-2.0287177562713623,0.6522159576416016,-0.6035426259040833
1772808319485812000,9.68681201171875,-16.110529195177556,-13.865650666004418,-0.955688613462448,-0.3300795555114746,0.5735226273536682,-0.2788770198822021
1772808319505861000,9.706861083984377,-14.403809448444845,-8.609191442525386,1.293457802288234,1.1707758903503418,0.0423235669732093,0.3442305326461792
1772808319525909000,9.726908935546875,-9.17237945228219,-4.2940082762748,1.2338944372072815,1.9333313703536987,-0.0482645221054554,0.5278560519218445
1772808319545958100,9.746958251953124,-2.197543946546316,-0.5107195713728666,0.3203608483092859,1.6143449544906616,0.7896898984909058,0.3646028637886047
1772808319566006000,9.767006103515625,2.6526304780244825,3.0859868237316608,-0.0970843001039698,0.9751386046409608,1.5007778406143188,0.1857428699731826
1772808319586055200,9.78705517578125,4.46564611491859,6.014239831009506,-0.1425048201372381,0.928320050239563,1.2917072772979736,0.1037347465753555
1772808319606103000,9.80710302734375,4.481455678468943,7.769572509741782,0.4678955615056678,1.587501883506775,0.3700330853462219,0.2342402040958404
1772808319626152000,9.82715185546875,5.923345508119463,8.935687249925731,0.7905340724233537,1.875301003456116,-0.3531060814857483,0.3368695974349975
1772808319646200000,9.847199951171875,8.069178556650877,9.335987129205463,0.3979726419085636,1.3733890056610107,-0.5462968349456787,0.1361061632633209
1772808319666249000,9.8672490234375,8.596798409420252,9.470587322831154,-0.1948941380035132,0.649223804473877,-0.403964638710022,-0.2592803835868835
1772808319686296800,9.887296875,7.55571582404971,9.7844726549834,-0.1699012971747666,0.1261985898017883,-0.42054483294487,-0.5760143995285034
1772808319706346000,9.907345947265624,6.460477285599708,9.01799085460305,0.28441450565923,-0.3587870895862579,-0.715962827205658,-0.5511046051979065
1772808319726393900,9.927393798828126,4.9180116970002645,11.50294655239582,-0.0215828177561284,-0.5879953503608704,-0.8834024667739868,-0.6391069889068604
1772808319746443000,9.947443115234377,4.651414770245552,11.042443841087817,-0.2734331111839972,-0.8500291705131531,-0.7202656269073486,-0.5137994289398193
1772808319766491000,9.967490966796875,4.87324258094728,10.972407597309353,-0.2802542989735491,-1.2961466312408447,-0.3424212634563446,-0.5066083073616028
1772808319786540000,9.9875400390625,3.0274761825740337,10.663704051709177,-0.6247686329443007,-1.63368022441864,-1.0962814092636108,-0.5887330770492554
1772808319806588000,10.007587890625,1.4298276359349489,7.430013807150721,0.3687363913564011,-1.9677919149398804,-2.194627523422241,-0.1542192697525024
1772808319826637000,10.027636962890623,3.452320720523596,7.219162148493527,1.3493062384992838,-1.9479609727859497,-1.935780048370361,-0.1321858316659927
1772808319846685000,10.047684814453126,4.061206067094207,6.99899437995851,1.0967276810292157,-1.7762452363967896,-1.2341277599334717,-0.2448566108942031
1772808319866734000,10.067734130859376,2.2024346411973235,6.02044511539042,1.5509205516032871,-1.7164909839630127,-0.6990877389907837,-0.5855457782745361
1772808319886782000,10.087781982421877,1.3214303895801305,1.1945412087231877,0.8606091869074851,-1.332053303718567,-0.0801567435264587,-0.8604658842086792
1772808319906831000,10.1078310546875,-0.0900017579644918,0.6882996595472097,-0.0068523683791048,-1.5664503574371338,0.2424157112836837,-0.9670875668525696
1772808319926879000,10.12787890625,-5.931715277057886,-1.7718553589880466,-1.0417098504234106,-2.412752866744995,-1.6746346950531006,-0.2766580581665039
1772808319946928000,10.14792822265625,-3.4123464375317094,-4.597375721544027,1.5137500739857557,-3.28344464302063,-1.0376617908477783,0.5268535017967224
1772808319966976000,10.16797607421875,-3.977510715797543,-8.494172147682308,1.54790836417526,-3.937041997909546,-0.4210434556007385,2.149261951446533
1772808319987025000,10.18802490234375,-6.193533737364411,-10.298679483950137,-1.6326064627736805,-4.312881946563721,-0.9858522415161132,2.8664803504943848
1772808320007073000,10.208072998046877,-6.403880369108915,-5.617302706161141,-4.338850457563996,-3.7655491828918457,-0.4263214766979217,1.5672965049743652
1772808320027122000,10.228121826171876,-4.510577143535017,-1.8378227458924052,-6.134516900250316,-1.930747389793396,0.7782309651374817,-0.1166686713695526
1772808320047170000,10.248170166015624,-10.42448846835494,-3.0722891377687453,-1.377450675226748,-0.1685993820428848,0.2416078597307205,-0.7008373737335205
1772808320067219000,10.268218994140623,-7.231479193753004,-3.2402164314568043,-0.1523831030756235,0.14667908847332,-0.2827707827091217,-0.4338136315345764
1772808320087266800,10.288266845703124,-6.799343329751491,-1.4982605361700057,1.2992092054218054,-0.4228724539279938,-0.8126451969146729,0.2661419510841369
1772808320107316000,10.30831591796875,-4.70673392188549,-1.0633744966775178,1.5372504842996595,-0.8557711839675903,-0.595734715461731,1.4349782466888428
1772808320127363800,10.32836376953125,-2.613452313846349,1.009867362895608,1.5252547799490392,-0.3516615927219391,0.1329229176044464,1.8206350803375244
