time,seconds_elapsed,accel_z,accel_y,accel_x,gyro_x,gyro_y,gyro_z
1.7726357323341248e+18,0.295124755859375,0.0047404766082763,0.0809488296508789,0.0316147804260253,-0.0019973691087216,0.0141147412359714,-0.0053263176232576
1.7726357323541187e+18,0.31511865234375,0.0001864433288574,0.0671262741088867,0.0074086189270019,-0.0078563187271356,0.0093210563063621,-0.0061252652667462
1.7726357323741125e+18,0.335112548828125,-0.0142701864242553,0.0869293212890625,0.0638093948364257,-0.0105194775387644,0.0047936858609318,-0.0018642111681401
1.7726357323941064e+18,0.3551064453125,-0.0328842401504516,0.1013622283935546,0.1307711601257324,-0.0129163200035691,-0.0031957905739545,-0.0011984214652329
1.7726357324141e+18,0.375099853515625,-0.0329877138137817,0.0383939743041992,0.1516451835632324,-0.0118510564789175,-0.0071905287913978,-0.0006657897029072
1.7726357324340938e+18,0.39509375,-0.0339758396148681,0.009622573852539,0.0727572441101074,-0.0110521093010902,-0.017310531809926,-0.0001331579405814
1.7726357324540877e+18,0.415087646484375,-0.0303279161453247,0.0419225692749023,0.0601215362548828,-0.0157126374542713,-0.0239684283733367,-0.00093210558407
1.7726357324740815e+18,0.43508154296875,-0.0043224096298217,0.0738840103149414,0.0323891639709472,-0.0170442163944244,-0.0292947478592395,-0.0014647373463958
1.7726357324940751e+18,0.4550751953125,-0.0166840553283691,0.1490354537963867,0.0239157676696777,-0.0143810575827956,-0.0245010610669851,0.0035952643956989
1.772635732514069e+18,0.475069091796875,0.0531671047210693,0.1422414779663086,0.0793766975402832,-0.0087884236127138,-0.0157126374542713,0.0094542140141129
1.7726357325340628e+18,0.495062744140625,0.0270131826400756,0.1263694763183593,0.0237441062927246,-0.002130527049303,-0.0165115855634212,0.0099868457764387
1.7726357325540567e+18,0.515056640625,-0.010205864906311,0.0867948532104492,-0.02177095413208,0.0030626326333731,-0.0034621064551174,0.0085221081972122
1.7726357325740503e+18,0.53505029296875,-0.021071434020996,0.0678224563598632,-0.0154647827148437,0.0147805316373705,0.0031957905739545,0.0055926335044205
1.7726357325940442e+18,0.555044189453125,-0.0182852745056152,0.0482549667358398,0.081827163696289,0.0163784269243478,-0.0005326317623257,0.0103863198310136
1.772635732614038e+18,0.5750380859375,-0.0175362825393676,0.0664148330688476,0.1795291900634765,0.0171773750334978,0.0085221081972122,0.0151800047606229
1.7726357326340319e+18,0.595031982421875,-0.0360667705535888,0.1259632110595703,0.2036185264587402,0.0123836882412433,-0.0013315794058144,0.0114515833556652
1.7726357326540255e+18,0.615025390625,-0.0189439058303833,0.1043367385864257,0.1653699874877929,-0.0065247388556599,0.0002663158811628,0.0143810575827956
1.7726357326740193e+18,0.635019287109375,0.0093791484832763,0.0492362976074218,0.147407054901123,-0.0171773750334978,0.0005326317623257,0.0090547399595379
1.7726357326940132e+18,0.65501318359375,0.0764130353927612,-0.0186357498168945,0.2315201759338379,-0.0153131633996963,0.0023968429304659,0.0085221081972122
1.772635732714007e+18,0.675007080078125,0.0050973892211914,0.010354995727539,0.2086710929870605,0.0001331579405814,0.0077231605537235,0.0101200034841895
1.7726357327340006e+18,0.695000732421875,0.0298389196395874,0.0300149917602539,0.1327638626098632,0.010785792954266,0.0242347456514835,0.0183757953345775
1.7726357327539945e+18,0.714994384765625,0.0774271488189697,-0.0215167999267578,0.1224989891052246,0.0118510564789175,0.0471379123628139,0.0213052704930305
1.7726357327739884e+18,0.73498828125,0.1101758480072021,-0.0188245773315429,0.0670619010925293,0.0171773750334978,0.0780305564403534,0.0191747434437274
1.7726357327939822e+18,0.754982177734375,0.2065129280090332,0.1042728424072265,-0.0100030899047851,0.0272973775863647,0.092677928507328,0.0003994738217443
1.7726357328139758e+18,0.774975830078125,0.2003947496414184,0.2320070266723632,-0.1028661727905273,0.0368847511708736,0.114249512553215,-0.0126500045880675
1.7726357328339697e+18,0.7949697265625,0.1825759410858154,0.2698221206665039,-0.2261319160461425,0.0515321232378482,0.1408811062574386,-0.0193079020828008
1.7726357328539635e+18,0.814963623046875,0.1734880208969116,0.2739505767822265,-0.2821321487426758,0.0629837065935134,0.1488705724477768,-0.0291615892201662
1.7726357328739569e+18,0.834956787109375,0.1395200490951538,0.2827625274658203,-0.2759528160095215,0.0544615983963012,0.1302284598350525,-0.0419447496533393
1.7726357328939497e+18,0.85494970703125,0.0815116167068481,0.301030158996582,-0.18833589553833,0.0446079112589359,0.0854873955249786,-0.0456731729209423
1.7726357329139428e+18,0.87494287109375,0.0766823291778564,0.3098382949829101,-0.1102180480957031,0.0280963256955146,0.0338221155107021,-0.0456731729209423
1.7726357329339356e+18,0.894935546875,-0.0051937103271484,0.3280200958251953,-0.1321229934692382,0.019840532913804,-0.0010652635246515,-0.0427436977624893
1.7726357329539284e+18,0.914928466796875,0.0003310441970825,0.3313989639282226,-0.1855106353759765,0.0078563187271356,-0.0295610632747411,-0.0439421199262142
1.7726357329739213e+18,0.93492138671875,0.0425071716308593,0.215799331665039,-0.1780371665954589,-0.0027963167522102,-0.0567252822220325,-0.0399473831057548
1.772635733013907e+18,0.974906982421875,-0.0444566011428833,0.0837459564208984,-0.0664262771606445,-0.0179763212800025,-0.0892158225178718,-0.0343547500669956
1.7726357330339e+18,0.994900146484375,0.0599400997161865,0.084202766418457,0.0568881034851074,-0.0416784361004829,-0.1182442530989646,-0.0287621151655912
1.7726357330538929e+18,1.014892822265625,-0.1288608312606811,0.1287040710449218,0.0496149063110351,-0.0741689726710319,-0.1288968920707702,-0.0234357975423336
1.7726357330738857e+18,1.0348857421875,-0.1507412195205688,0.1784963607788086,0.0228590965270996,-0.0874847695231437,-0.1398158371448516,-0.0093210563063621
1.7726357330938785e+18,1.05487841796875,-0.0999159812927246,0.2147130966186523,0.0432004928588867,-0.0978710874915123,-0.1744368970394134,-0.0082557927817106
1.7726357331338642e+18,1.0948642578125,-0.1975152492523193,0.1738300323486328,0.1186971664428711,-0.1197089850902557,-0.1749695390462875,-0.0239684283733367
1.7726357331538573e+18,1.114857177734375,-0.1164451837539672,0.12664794921875,0.2276549339294433,-0.0808268710970878,-0.189883217215538,-0.0359526425600051
1.77263573317385e+18,1.13485009765625,-0.1301628351211547,0.1082134246826171,0.2638063430786133,-0.067511074244976,-0.1901495456695556,-0.0431431718170642
1.772635733193843e+18,1.154843017578125,-0.2098071575164795,-0.0947198867797851,0.1166596412658691,-0.0765658169984817,-0.1651158481836319,-0.0456731729209423
1.7726357332138358e+18,1.174835693359375,-0.3331145048141479,-0.3340177536010742,0.0166115760803222,-0.0757668688893318,-0.1432779431343078,-0.0541952811181545
1.772635733233828e+18,1.194828125,-0.176749587059021,-0.2670154571533203,0.1332769393920898,-0.106126882135868,-0.0894821360707283,-0.0589889660477638
1.7726357332738122e+18,1.234812255859375,-0.2999782562255859,0.3131351470947265,0.6473655700683594,-0.1095889881253242,-0.0892158225178718,-0.0739026591181755
1.772635733293804e+18,1.254803955078125,-0.3423827886581421,0.3589715957641601,0.842850923538208,-0.0834900289773941,-0.0956073999404907,-0.0818921327590942
1.772635733313796e+18,1.274796142578125,-0.5286313891410828,0.1379299163818359,1.1189167499542236,-0.043010015040636,-0.1070589870214462,-0.0624510757625103
1.7726357333337882e+18,1.2947880859375,-0.5802921652793884,-0.1079177856445312,1.6821916103363037,-0.0416784361004829,-0.1174453049898147,-0.0334226414561271
1.7726357333537802e+18,1.3147802734375,-0.6712290048599243,0.7905669212341309,2.1667842864990234,-0.0187752693891525,-0.1094558238983154,-0.0330231711268425
1.7726357333737725e+18,1.3347724609375,-0.8457993268966675,2.794539451599121,2.408273458480835,0.0776310786604881,-0.0732368677854538,-0.0580568611621856
1.7726357333937654e+18,1.354765380859375,-1.109251856803894,4.408452033996582,2.611086368560791,0.0645816028118133,-0.0801610797643661,-0.0471379123628139
1.7726357334137582e+18,1.37475830078125,-0.9550278782844543,5.28571891784668,2.053858995437622,0.0363521166145801,-0.0884168744087219,-0.046338964253664
1.772635733433751e+18,1.3947509765625,-0.287550687789917,4.272380828857422,0.9700119495391846,-0.0291615892201662,-0.1507347822189331,-0.1166463568806648
1.7726357334537439e+18,1.414743896484375,-0.306755781173706,1.309722900390625,0.2391376495361328,-0.040080539882183,-0.1752358525991439,-0.2399506121873855
1.7726357334737367e+18,1.43473681640625,-0.6097918152809143,-0.1349191665649414,0.2828993797302246,0.0142478998750448,-0.114249512553215,-0.2157158702611923
1.7726357334937295e+18,1.4547294921875,-0.246728777885437,1.8574986457824707,0.5349483489990234,-0.0126500045880675,-0.0902810841798782,-0.0263652727007865
1.7726357335137224e+18,1.474722412109375,0.476696252822876,3.278370857238769,0.7662310600280762,-0.0536626502871513,-0.0828242376446724,0.1890842765569687
1.7726357335337152e+18,1.494715087890625,0.2840970754623413,2.9221057891845703,0.1730780601501464,0.0480700172483921,-0.1110537201166153,0.337688535451889
1.7726357335537078e+18,1.514707763671875,-0.1096811294555664,1.259559154510498,-0.547884464263916,0.0773647651076316,-0.1664474308490753,0.3154511749744415
1.7726357335737009e+18,1.534700927734375,0.1471050977706909,0.0086050033569335,-1.5835671424865725,-0.0326236970722675,-0.2364885061979293,0.0704405531287193
1.7726357336136863e+18,1.574686279296875,1.0139857530593872,-1.0510845184326172,-2.48738431930542,-0.0540621243417263,-0.1486042588949203,-0.0017310532275587
1.772635733633679e+18,1.59467919921875,1.464614748954773,-2.1921606063842773,-3.374267101287842,0.1070589870214462,-0.1251684576272964,0.1998700648546219
1.772635733653672e+18,1.614671875,2.281845569610596,-4.133502960205078,-4.559562683105469,0.2679137885570526,-0.15180005133152,0.5695165395736694
1.7726357336736648e+18,1.634664794921875,2.447331428527832,-6.401269912719727,-6.4693217277526855,0.295610636472702,-0.0865526646375656,0.7756450176239014
1.7726357337136504e+18,1.674650390625,2.954719305038452,-10.105132102966309,-8.672346115112305,0.2282327115535736,-0.0098536871373653,0.7087997198104858
1.7726357337336433e+18,1.694643310546875,2.8498339653015137,-9.73316478729248,-8.43443489074707,0.3518032729625702,-0.1121189892292022,0.6925544738769531
1.772635733753636e+18,1.714635986328125,2.0249111652374268,-8.899463653564453,-7.647294044494629,0.3049316704273224,-0.1893505901098251,0.7663239240646362
1.7726357337936218e+18,1.754621826171875,1.0547735691070557,-5.78203010559082,-3.253213405609131,0.3130543231964111,-0.2213084995746612,0.6705833673477173
1.7726357338136146e+18,1.774614501953125,0.0504944324493408,-3.827437400817871,-0.2843632698059082,0.225702702999115,-0.1890842765569687,0.4775043725967407
1.7726357338336074e+18,1.794607421875,-1.0328741073608398,-1.4820184707641602,2.108025312423706,-0.0464721210300922,-0.0410126447677612,0.0378168560564518
1.7726357338536003e+18,1.814600341796875,-1.866063356399536,0.927149772644043,3.959129571914673,-0.1114531978964805,-0.1126516163349151,-0.0580568611621856
1.772635733893587e+18,1.8545869140625,-2.299790859222412,6.166406631469727,6.285988807678223,-0.4097269773483276,-0.0972052961587905,-0.1520663648843765
1.7726357339135803e+18,1.874580322265625,-1.7537124156951904,8.753902435302734,7.119359970092773,-0.8430229425430298,0.1587242633104324,-0.7275750041007996
1.772635733933574e+18,1.894573974609375,-1.347330093383789,10.203822135925291,7.774292945861816,-0.9402282238006592,0.1906821727752685,-0.8649939894676208
1.7726357339535675e+18,1.9145673828125,-1.060351014137268,10.744608879089355,7.454980850219727,-0.967658758163452,0.2042642831802368,-0.8769782185554504
1.7726357339935547e+18,1.9545546875,-0.6490256786346436,9.957069396972656,5.511421203613281,-0.8781766295433044,0.2141179740428924,-0.8319708108901978
1.7726357340135483e+18,1.97454833984375,-0.8464604616165161,8.806838035583496,5.406638145446777,-0.5492765307426453,0.2250369191169738,-0.5006738305091858
1.7726357340335416e+18,1.994541748046875,-0.5836318731307983,7.467213153839111,4.915571689605713,-0.2813627421855926,0.2569948136806488,-0.2822948396205902
1.7726357340535352e+18,2.01453515625,-0.5357873439788818,6.411086082458496,3.5992088317871094,-0.0081226341426372,0.331563264131546,-0.3872233033180237
1.7726357340735288e+18,2.03452880859375,-0.7024783492088318,6.08184289932251,2.41898775100708,0.128763735294342,-0.0527305454015731,-0.1243695169687271
1.772635734113516e+18,2.07451611328125,-0.7309240698814392,3.622394561767578,3.781388521194458,0.2499374598264694,-0.2000032216310501,0.1925463825464248
1.772635734153503e+18,2.1145029296875,0.173526644706726,-1.90388298034668,2.698082208633423,0.2158490270376205,-0.2716422080993652,0.3933485448360443
1.7726357341734966e+18,2.13449658203125,-0.3294534683227539,-8.15218448638916,-0.1194911003112793,0.02569948323071,-0.2958769500255584,0.3970769643783569
1.7726357341934902e+18,2.154490234375,-1.4249250888824463,-12.951165199279783,-4.093613147735596,-0.1141163557767868,-0.1565937399864196,0.211721122264862
1.7726357342134838e+18,2.17448388671875,1.1795060634613037,-4.223400115966797,-5.118983268737793,-0.1122521460056305,0.1073253005743026,-0.1629853248596191
1.7726357342334774e+18,2.194477294921875,1.98505973815918,3.9411792755126953,-5.3114333152771,-0.1519332081079483,0.2588590383529663,-0.6567349433898926
1.772635734253471e+18,2.214470947265625,3.3938729763031006,1.6142573356628418,-5.515275478363037,0.3247722089290619,-0.0945421382784843,-0.9723193049430848
1.7726357342734646e+18,2.234464599609375,2.706946611404419,-3.745917320251465,-7.197014808654785,0.5367596745491028,-0.4892222881317138,-0.3515369594097137
1.772635734293458e+18,2.2544580078125,2.3354082107543945,-7.312065601348877,-8.562707901000977,0.3165164291858673,-0.5462138652801514,0.6290380954742432
1.7726357343134515e+18,2.274451416015625,1.967419505119324,-6.58478307723999,-9.835193634033203,0.710663914680481,-0.4370243549346924,1.3784509897232056
1.772635734333445e+18,2.294445068359375,2.826695919036865,-8.301197052001953,-7.964944362640381,1.3298484086990356,0.1771000623703003,2.4282681941986084
1.7726357343534387e+18,2.314438720703125,3.042137622833252,-9.314001083374023,-7.084969997406006,1.326119899749756,0.1392832100391388,3.062366247177124
1.7726357343734318e+18,2.334431884765625,2.492823362350464,-7.039312839508057,-8.148780822753906,0.720517635345459,0.023169482126832,2.3017680644989014
1.7726357343934236e+18,2.354423583984375,1.8838558197021484,-7.034649848937988,-8.370034217834473,0.1460742652416229,-0.0876179262995719,0.4412854015827179
1.7726357344134154e+18,2.37441552734375,1.3518297672271729,-7.156498908996582,-7.023324012756348,0.1074584573507309,-0.114249512553215,-0.4175832867622375
1.7726357344334075e+18,2.394407470703125,0.8863571882247925,-4.987478733062744,-4.515340805053711,-0.0464721210300922,-0.2154495418071746,-0.2282327115535736
1.7726357344533993e+18,2.4143994140625,-0.1406975984573364,-2.945073127746582,-1.035902976989746,-0.1295626759529113,-0.2436790317296981,-0.0007989476434886
1.7726357344933832e+18,2.454383056640625,-2.3970112800598145,1.6798110008239746,4.446354866027832,-0.043010015040636,-0.1091895103454589,0.262054830789566
1.772635734513375e+18,2.474375,-2.208779811859131,4.988393783569336,6.020000457763672,-0.02569948323071,0.1808284819126129,0.536892831325531
1.7726357345333668e+18,2.49436669921875,-1.8548624515533447,7.790815353393555,7.596329689025879,-0.3396859169006347,0.3051980137825012,0.1275653094053268
1.7726357345533588e+18,2.51435888671875,-1.6862478256225586,9.69133186340332,8.928752899169922,-0.6563354730606079,0.4189148843288421,-0.8444876670837402
1.7726357345933425e+18,2.554342529296875,-0.5000985264778137,11.905278205871582,7.359523296356201,-0.9293092489242554,0.5352949500083923,-1.689241647720337
1.7726357346333263e+18,2.594326416015625,-0.6435998678207397,7.934745311737059,4.8340253829956055,-1.126915693283081,0.536892831325531,-1.894304871559143
1.7726357346533181e+18,2.614318115234375,-0.6604865193367004,6.327160835266113,5.127906322479248,-0.7500786781311035,0.2934800982475281,-1.1827088594436646
1.77263573467331e+18,2.63431005859375,-0.7866847515106201,5.966808319091797,4.87804126739502,-0.2456763982772827,0.05139896646142,-0.2964095771312713
1.772635734693302e+18,2.654302001953125,-0.4939963817596435,6.334026336669922,3.407384395599365,-0.0470047518610954,0.1283642500638961,0.2585927248001098
1.7726357347132938e+18,2.6742939453125,-0.8963039517402649,5.973245620727539,2.8835933208465576,0.0624510757625103,0.3273022174835205,0.0500673875212669
1.7726357347332856e+18,2.69428564453125,-1.5224597454071045,5.486352920532227,3.5493357181549072,0.565521776676178,0.0508663319051265,0.2034653276205063
1.7726357347532777e+18,2.714277587890625,-0.1937114596366882,5.335179328918457,3.299166679382324,0.5455480813980103,-0.1962748020887375,0.3771032989025116
1.7726357347732695e+18,2.73426953125,-0.671830415725708,1.8441553115844729,4.634933948516846,0.2059953361749649,-0.3009369373321533,0.3358243405818939
1.7726357347932613e+18,2.75426123046875,-1.219607710838318,-6.092386245727539,6.609854221343994,-0.133823737502098,-0.2577937841415405,0.1736379563808441
1.7726357348332452e+18,2.7942451171875,3.284367322921753,-4.688327789306641,-9.829143524169922,-0.231827974319458,-0.0665789693593978,-0.0287621151655912
1.772635734853237e+18,2.814237060546875,-0.2133711576461792,-1.4302091598510742,-6.048030853271484,-0.3343595862388611,0.0639158114790916,-0.3680485486984253
1.7726357348732293e+18,2.834229248046875,-1.050849199295044,-1.984391212463379,-5.197268962860107,-0.2227732390165329,0.1019989848136901,-0.6114612817764282
1.772635734893223e+18,2.854222900390625,3.197762489318848,-4.002551078796387,-8.06401252746582,0.1455416232347488,0.1925463825464248,-0.6918886303901672
1.7726357349332099e+18,2.8942099609375,4.2520294189453125,-2.7031984329223637,-9.62698745727539,0.1346226781606674,0.2255695462226867,-1.00667405128479
1.7726357349532032e+18,2.914203125,3.2211556434631348,-6.138655185699463,-7.859518527984619,0.4251733124256134,-0.9637971520423888,1.7028237581253052
1.7726357349731968e+18,2.93419677734375,2.664592266082764,-9.408649444580078,-7.7822065353393555,1.282976746559143,0.0031957905739545,2.3041648864746094
1.7726357350131837e+18,2.974183837890625,1.66519296169281,-9.49802303314209,-7.994158267974853,1.1855051517486572,0.8801739811897278,2.0636818408966064
1.772635735033177e+18,2.994177001953125,2.1965484619140625,-5.269966125488281,-7.2610554695129395,1.1833746433258057,0.6886928677558899,1.602955341339111
1.7726357350531707e+18,3.014170654296875,2.174243450164795,-2.6233930587768555,-5.873187065124512,0.0637826547026634,-0.6138581037521362,0.3510043323040008
1.7726357350731643e+18,3.034164306640625,1.3418360948562622,-1.750925064086914,-3.482861995697021,-0.5037364959716797,-0.4940159618854522,-0.1872200667858123
1.7726357350931576e+18,3.05415771484375,-0.0289859771728515,-0.5559148788452148,-0.0515980720520019,-0.3213101029396057,-0.2652506232261657,-0.4724443852901459
1.7726357351131512e+18,3.074151123046875,-1.533346176147461,0.8468928337097168,2.9836153984069824,0.1652490049600601,0.3472759127616882,0.2271674424409866
1.7726357351331446e+18,3.09414453125,-2.0829765796661377,2.676949977874756,5.174304008483887,0.1354216188192367,0.4024032950401306,0.2545979917049408
1.7726357351531382e+18,3.11413818359375,-2.0102686882019043,5.345492362976074,6.441944122314453,-0.0685763359069824,0.2162484973669052,-0.3046653568744659
1.772635735193125e+18,3.154125,-1.913083791732788,10.848341941833496,7.747612953186035,-0.5660544037818909,-0.0420779101550579,-0.9909613728523254
1.772635735233112e+18,3.194112060546875,-1.9049477577209477,10.790377616882324,7.444592475891113,-1.0978872776031494,-0.2628537714481354,-1.3254541158676147
1.772635735273099e+18,3.23409912109375,-2.1460978984832764,5.702245235443115,6.429296016693115,-1.2502199411392212,-0.331563264131546,-1.38857102394104
1.772635735313086e+18,3.2740859375,-2.229068756103516,5.5645270347595215,5.764107704162598,-1.0123997926712036,-0.2756369411945343,-1.2634025812149048
1.7726357353330796e+18,3.29407958984375,-1.876789093017578,6.708086013793945,5.238274097442627,-0.5852291584014893,-0.3083937764167785,-0.8625971674919128
1.7726357353530732e+18,3.3140732421875,-1.81074333190918,6.035886764526367,4.898509979248047,0.0083889504894614,0.1203747764229774,0.1294295191764831
1.7726357353730662e+18,3.334066162109375,-0.8006460070610046,3.651946544647217,4.203008651733398,0.017710005864501,-0.0894821360707283,-0.046338964253664
1.772635735393059e+18,3.35405908203125,-0.2814521789550781,0.2555494308471679,3.660452365875244,0.1524658352136612,-0.3486074805259704,-0.1411474198102951
1.7726357354130516e+18,3.3740517578125,-0.6635989546775818,-3.792379379272461,2.3359336853027344,-0.1247689872980117,0.0045273699797689,-0.1115863546729087
1.7726357354330445e+18,3.39404443359375,-0.1074855327606201,-7.301960945129394,-3.6892123222351074,-0.1487374156713485,0.2783001065254211,-0.1363537311553955
1.7726357354530373e+18,3.414037353515625,1.6887784004211426,-3.5493946075439453,-8.527085304260254,0.0667121261358261,0.4799012243747711,-0.2540653645992279
1.77263573547303e+18,3.43402978515625,0.9149913787841796,3.230330467224121,-7.894891262054443,0.2912164032459259,0.5888243913650513,-0.4213117361068725
1.7726357354930227e+18,3.454022705078125,2.5252444744110107,0.8457221984863281,-6.843950748443604,0.53436279296875,0.5352949500083923,-0.4977443814277649
1.7726357355130153e+18,3.474015380859375,3.4352564811706543,-6.143466949462891,-7.566933631896973,0.6632596850395203,0.2588590383529663,-0.4293012022972107
1.772635735553001e+18,3.5140009765625,4.288017272949219,-4.06512451171875,-8.787969589233398,0.6203828454017639,0.054328441619873,0.2247706055641174
1.7726357355729935e+18,3.53399365234375,3.3148064613342285,-7.700630187988281,-7.703203201293945,0.8214513063430786,-0.4439485669136047,1.4069467782974243
1.772635735612979e+18,3.57397900390625,2.8364877700805664,-9.119281768798828,-8.728837013244629,1.0989525318145752,-0.329166442155838,2.2905828952789307
1.7726357356329718e+18,3.5939716796875,2.17318058013916,-7.024130344390869,-8.847904205322266,1.1061429977416992,0.1288968920707702,2.521212339401245
1.7726357356529646e+18,3.613964599609375,1.8214274644851685,-5.708866596221924,-7.018077373504639,0.7815039753913879,0.2636527121067047,1.644766926765442
1.7726357356729572e+18,3.633957275390625,1.4177396297454834,-4.753096580505371,-4.9378275871276855,0.3101248443126678,0.1384842544794082,-0.1930790096521377
1.77263573569295e+18,3.653949951171875,0.2513768672943115,-2.717514514923096,-2.3751049041748047,-0.0555268600583076,0.097737930715084,-0.1922800689935684
1.7726357357129426e+18,3.673942626953125,-0.4939536452293396,-0.8972702026367188,0.9151902198791504,-0.0121173728257417,-0.0055926335044205,0.2335590273141861
1.7726357357529283e+18,3.71392822265625,-1.976401090621948,2.5452680587768555,5.167355537414551,-0.0254331659525632,-0.201068490743637,0.7685876488685608
1.7726357357729208e+18,3.7339208984375,-2.6581015586853027,5.439265251159668,6.232344627380371,-0.2137184888124466,-0.1424790024757385,0.6178528666496277
1.7726357357929137e+18,3.75391357421875,-2.687635660171509,8.021038055419922,8.136842727661133,-0.4747080504894256,-0.1091895103454589,-0.3296990692615509
1.7726357358129062e+18,3.77390625,-1.4737988710403442,9.424616813659668,9.61784553527832,-0.9215860962867736,0.065247394144535,-1.143294095993042
1.772635735832899e+18,3.793899169921875,-0.3624383211135864,10.04232692718506,9.427711486816406,-1.186570405960083,0.2029327005147934,-1.4317141771316528
1.772635735852892e+18,3.813891845703125,-0.9403793811798096,10.337113380432127,7.394330978393555,-0.6430196762084961,0.1217063590884208,-1.0655298233032229
1.7726357358928768e+18,3.853876708984375,-1.5361361503601074,7.310990333557129,5.696216106414795,-0.2411490231752395,0.0897484496235847,-0.4375569820404053
1.7726357359128694e+18,3.873869384765625,-1.5753417015075684,6.514976501464844,5.250688552856445,-0.0794952884316444,0.1837579607963562,0.1155810952186584
1.7726357359328617e+18,3.89386181640625,-1.16960608959198,6.700008392333984,4.581085681915283,-0.122638463973999,0.3914843499660492,0.185355857014656
1.7726357359528543e+18,3.913854248046875,-0.9397671222686768,6.901486396789551,4.199537754058838,-0.0938763469457626,0.3701790869235992,-0.1813611090183258
1.7726357359728468e+18,3.933846923828125,-1.0134544372558594,5.739850997924805,4.332707405090332,0.1181110963225364,0.3126548528671264,-0.4753738343715668
1.7726357359928392e+18,3.953839111328125,-0.0777009129524231,2.820766925811768,4.135112285614014,0.3569964468479156,-0.1073253005743026,-0.1081242486834526
1.7726357360128317e+18,3.973831787109375,0.3442761898040771,-0.5351839065551758,3.299933195114136,0.0845552906394004,-0.392549604177475,0.0042610540986061
1.772635736032824e+18,3.993823974609375,-0.4375960826873779,-5.146346092224121,1.5405583381652832,-0.2251700758934021,-0.4508727788925171,-0.002130527049303
1.7726357360528166e+18,4.013816650390625,-2.4757866859436035,-8.10396671295166,-3.929966449737549,-0.307461678981781,-0.3749727606773376,-0.0769652873277664
1.772635736072809e+18,4.03380908203125,1.393850803375244,-1.6956214904785156,-7.353761196136475,-0.2198437601327896,-0.0729705542325973,-0.2250369191169738
1.7726357361127939e+18,4.0737939453125,3.5753159523010254,0.2383027076721191,-5.302638530731201,-0.0709731802344322,0.0500673875212669,-0.5219791531562805
1.7726357361327864e+18,4.093786376953125,2.6137428283691406,-8.37234115600586,-6.2648444175720215,0.2027995437383651,0.0633831769227981,-0.7779086828231812
1.7726357361527788e+18,4.11377880859375,1.8051875829696653,-10.220102310180664,-9.80402374267578,0.6483460068702698,-0.0756337121129036,-0.7376949787139893
1.7726357361727713e+18,4.133771240234375,2.992964744567871,-5.562335968017578,-10.66404151916504,0.3431480228900909,-0.2806969285011291,-0.023169482126832
1.772635736192764e+18,4.153763916015625,3.887918472290039,-7.494799613952637,-8.988280296325684,0.4254396259784698,-0.4282359480857849,1.356879472732544
1.7726357362127562e+18,4.173756103515625,3.400702714920044,-10.320756912231444,-8.78908634185791,0.9269124269485474,-0.461525410413742,2.961965322494507
1.7726357362327488e+18,4.193748779296875,2.6005964279174805,-8.26275634765625,-9.182639122009276,0.6134586334228516,-0.2649843096733093,2.038648128509521
1.772635736252741e+18,4.2137412109375,2.2398271560668945,-6.976051330566406,-7.770763397216797,0.2773679792881012,0.0274305362254381,0.2948116660118103
1.7726357362727337e+18,4.233733642578125,1.648724913597107,-6.989960670471191,-6.031343936920166,0.3553985357284546,0.3073285222053528,-0.2785664200782776
1.7726357363127186e+18,4.273718505859375,-0.10812509059906,-2.107593536376953,-0.8756270408630371,0.1380847841501236,0.2197106033563614,-0.0882837176322937
1.7726357363527035e+18,4.313703369140625,-0.984466016292572,2.483344554901123,3.5513012409210205,-0.0683100223541259,-0.0122505305334925,-0.133823737502098
1.772635736372696e+18,4.333696044921875,-1.3472074270248413,5.727923393249512,4.32964563369751,-0.0944089815020561,-0.1123853027820587,-0.0834900289773941
1.7726357363926897e+18,4.353689697265625,-2.201581716537476,8.496382713317871,5.506222724914551,0.0006657897029072,0.0101200034841895,0.0242347456514835
1.772635736412683e+18,4.37368310546875,-2.4661850929260254,10.13436508178711,7.54532527923584,-0.176966905593872,0.0940095037221908,-0.3075948357582092
1.7726357364326766e+18,4.393676513671875,-1.31416654586792,10.484835624694824,8.869342803955078,-0.5311670303344727,0.2410158663988113,-0.9076045155525208
1.77263573645267e+18,4.413669921875,-0.8475374579429626,10.53274154663086,8.245736122131348,-0.8211849927902222,0.4705801606178283,-1.4053488969802856
1.7726357364726633e+18,4.433663330078125,-1.2461000680923462,10.08570671081543,6.58077335357666,-0.7788407802581787,0.4466117322444916,-1.544632077217102
1.7726357364926566e+18,4.45365673828125,-0.8885154724121094,8.282106399536133,6.138707637786865,-0.5359607338905334,0.1177116185426712,-0.9076045155525208
1.7726357365126502e+18,4.473650146484375,-1.3228225708007812,6.906752109527588,6.065319061279297,-0.4171838164329529,-0.1752358525991439,-0.0585894957184791
1.7726357365326436e+18,4.4936435546875,-1.518726110458374,6.555976867675781,5.311435222625732,-0.4685827791690826,-0.0532631762325763,0.358993798494339
1.772635736552637e+18,4.513636962890625,-1.0248150825500488,6.246844291687012,4.328477382659912,-0.3759048581123352,0.2114548087120056,0.1470063626766204
1.7726357365726305e+18,4.533630615234375,-1.1243630647659302,5.597517013549805,3.752810955047608,-0.0925447717308998,0.0886831879615783,-0.2937464118003845
1.7726357366126172e+18,4.5736171875,-0.2459759712219238,3.3671669960021973,3.09663987159729,0.110920563340187,0.0130494777113199,-0.3685811758041382
1.7726357366326108e+18,4.59361083984375,-0.0797571539878845,0.0065784454345703,2.696627378463745,0.2233058661222458,-0.0886831879615783,-0.212786391377449
1.7726357366526042e+18,4.613604248046875,1.167151689529419,-2.5974340438842773,1.1007895469665527,0.1607216298580169,-0.2977411448955536,-0.1840242743492126
1.772635736692591e+18,4.653591064453125,3.332976818084717,-4.367918968200684,-9.291117668151855,-0.0187752693891525,-0.3400853872299194,-0.1725726872682571
1.7726357367125844e+18,4.67358447265625,0.3771153688430786,-5.193265914916992,-9.50811767578125,-0.149003729224205,-0.3163832724094391,-0.1107874065637588
1.7726357367525714e+18,4.7135712890625,3.19050931930542,-7.2861409187316895,-7.593496799468994,-0.1324921548366546,-0.1896169036626815,-0.0753673911094665
1.7726357367725647e+18,4.733564697265625,4.423205375671387,-3.554775714874268,-10.381349563598633,-0.2195774465799331,0.0559263341128826,-0.2173137664794922
1.772635736792558e+18,4.75355810546875,4.172175884246826,-4.4499993324279785,-11.690874099731444,-0.1599226891994476,0.1209074109792709,-0.4657864868640899
1.772635736832545e+18,4.793544921875,2.442164182662964,-12.900997161865234,-8.507699966430664,0.0331563279032707,-0.0647147595882415,-0.8013445138931274
1.7726357368525386e+18,4.81353857421875,2.0011520385742188,-11.207422256469728,-7.724981784820557,0.1934784948825836,-0.2079927027225494,-0.8386287093162537
1.772635736872532e+18,4.833531982421875,1.3641369342803955,-6.5704498291015625,-5.3613128662109375,0.2251700758934021,-0.9640634655952454,1.830122709274292
1.7726357369125181e+18,4.87351806640625,0.4926245212554931,-2.5711565017700195,-1.0389971733093262,0.8049397468566895,-0.3414169549942016,2.593384027481079
1.7726357369325112e+18,4.89351123046875,-0.0229376554489135,0.3206148147583008,0.4908485412597656,1.01266610622406,0.2135853320360183,1.7230637073516846
1.7726357369724974e+18,4.933497314453125,-1.3621200323104858,5.888439655303955,3.779129505157471,0.686961829662323,-0.206661120057106,1.0333056449890137
1.7726357369924908e+18,4.95349072265625,-2.4855542182922363,8.60397720336914,5.419928073883057,-0.0075900023803114,-0.4332959353923797,0.356596976518631
1.7726357370124838e+18,4.97348388671875,-2.614200592041016,10.54613208770752,7.373020172119141,-0.3636543452739715,-0.2322274446487426,-0.837030827999115
1.77263573705247e+18,5.013469970703125,-0.9093496799468994,10.896589279174805,9.070253372192385,-0.1777658462524414,-0.0058589493855834,-0.5816338658332825
1.7726357370724634e+18,5.03346337890625,-1.4662764072418213,9.714085578918455,7.355581283569336,-0.0672447606921196,0.4737759530544281,-0.2466085106134414
1.7726357370924564e+18,5.05345654296875,-1.4441263675689695,7.845399379730225,6.63856315612793,-0.2600574493408203,0.5523391366004944,-0.738760232925415
1.7726357371124495e+18,5.073449462890625,-1.5592753887176514,6.5653486251831055,6.270221710205078,-0.5133238434791565,0.3379548490047455,-1.1094719171524048
1.7726357371524357e+18,5.113435791015625,-1.4905381202697754,6.5350422859191895,2.849936485290528,-0.7538071274757385,-0.1885516494512558,-1.0780466794967651
1.772635737172429e+18,5.133428955078125,-1.163333773612976,6.85993766784668,3.015413999557495,-0.6805702447891235,-0.3470095992088318,-0.7073349952697754
1.7726357371924221e+18,5.153422119140625,-1.717198371887207,6.917712211608887,4.178378105163574,-0.6318344473838806,-0.1552621573209762,-0.3312969505786896
1.7726357372124152e+18,5.173415283203125,-0.9241302609443665,5.518566131591797,4.5877461433410645,-0.1532647907733917,0.0511326491832733,-0.1808284819126129
1.7726357372324083e+18,5.193408203125,-0.5740541219711304,2.3458385467529297,4.428264141082764,0.5809680819511414,0.1747032105922699,0.0090547399595379
1.7726357372723948e+18,5.233394775390625,-0.1721134781837463,-2.6221399307250977,-0.0962424278259277,0.5705817937850952,0.0439421199262142,0.0886831879615783
1.7726357372923878e+18,5.253387939453125,4.276648044586182,-3.8825178146362314,-6.592991828918457,0.0448742248117923,0.1081242486834526,0.2588590383529663
1.772635737312381e+18,5.273380859375,3.977856159210205,-7.421315193176269,-11.070429801940918,-0.0805605575442314,0.1680453270673751,0.1123853027820587
1.772635737352367e+18,5.3133671875,0.2419842481613159,-9.128535270690918,-8.376533508300781,-0.1988048106431961,0.1616537421941757,-0.1901495456695556
1.7726357373723602e+18,5.333360107421875,5.620861530303955,-3.4798412322998047,-8.437088012695312,-0.187619537115097,0.2820285260677337,-0.4684496223926544
1.772635737392353e+18,5.35335302734375,6.918960094451904,-2.88593864440918,-11.614831924438477,0.0312921144068241,0.3009369373321533,-0.6404896974563599
1.7726357374123459e+18,5.373345947265625,4.328046798706055,-9.50177001953125,-13.261297225952148,0.2004027068614959,-0.4338285624980926,-0.0018642111681401
1.7726357374323384e+18,5.39333837890625,2.4880099296569824,-13.162375450134276,-12.081998825073242,0.378568023443222,-0.4000064432621002,1.1459572315216064
1.7726357374523313e+18,5.413331298828125,2.3432741165161133,-10.433101654052734,-9.357696533203123,0.4597943723201751,-0.9052076935768129,2.0916450023651123
1.7726357374723238e+18,5.43332373046875,1.830404996871948,-7.053127288818359,-7.070950031280518,0.8547407984733582,0.5997433662414551,0.7344992160797119
1.7726357374923167e+18,5.453316650390625,1.207094430923462,-4.2872419357299805,-3.93350601196289,1.0795114040374756,0.4617917239665985,0.8958866000175476
1.7726357375123095e+18,5.4733095703125,0.5357578992843628,-1.8365745544433596,-0.8685579299926758,0.5647228360176086,-0.0348873808979988,1.1922961473464966
1.772635737552295e+18,5.513294921875,-1.0291106700897217,2.5117783546447754,3.63386869430542,0.0478036999702453,-0.0330231711268425,0.3139864206314087
1.7726357375722877e+18,5.533287841796875,-1.983756184577942,5.089167594909668,4.826628684997559,-0.236887976527214,0.049268439412117,-0.6332991719245911
1.7726357375922803e+18,5.5532802734375,-2.431548833847046,7.811596870422363,6.131377220153809,-0.2720416784286499,0.0189084280282259,-0.6799044609069824
1.7726357376122732e+18,5.573273193359375,-2.126694202423096,9.587010383605955,7.717779159545898,-0.313586950302124,0.0804273933172226,-0.4090611934661865
1.7726357376522586e+18,5.613258544921875,-0.5537049770355225,11.002927780151367,8.874595642089844,-0.4336954057216644,0.2047969102859497,-0.4569980502128601
1.7726357376722514e+18,5.63325146484375,-1.731985092163086,10.215024948120115,6.881033897399902,-0.559396505355835,0.2431464046239853,-0.6929539442062378
1.772635737692244e+18,5.653243896484375,-1.8911347389221191,8.515130996704102,5.756725311279297,-0.7769765853881836,0.0053263176232576,-1.04182767868042
1.7726357377122368e+18,5.67323681640625,-1.69378924369812,7.357861518859863,5.250636577606201,-0.6872281432151794,-0.212786391377449,-0.9257140159606934
1.7726357377522222e+18,5.71322216796875,-1.6279561519622805,5.374338150024414,3.754504919052124,-0.5018723011016846,-0.2860232591629028,-0.5736443996429443
1.772635737772215e+18,5.733215087890625,-1.319732427597046,5.585982799530029,3.810510873794556,-0.3553985357284546,-0.0556600205600261,-0.2253032326698303
1.7726357377922076e+18,5.75320751953125,-1.835575580596924,6.788416862487793,4.057728290557861,0.0890826657414436,0.1669800579547882,-0.1235705688595771
1.7726357378122004e+18,5.773200439453125,-1.1368601322174072,6.392604827880859,4.782588005065918,0.2925480008125305,0.1560611128807068,-0.1805621683597564
1.7726357378521859e+18,5.813185791015625,-0.4525109529495239,-1.885419845581055,4.015714168548584,0.4302332997322082,0.1347558349370956,-0.1363537311553955
1.7726357378721787e+18,5.8331787109375,0.1039075851440429,-6.585437774658203,-0.4041159152984619,0.508263885974884,-0.0290284305810928,-0.0311589576303958
1.7726357378921715e+18,5.853171630859375,0.974747896194458,-8.027203559875488,-7.931576728820801,0.0384826436638832,-0.1400821506977081,0.2167811244726181
1.7726357379121644e+18,5.873164306640625,3.754982471466065,-0.9509515762329102,-11.873266220092772,-0.1197089850902557,-0.0295610632747411,0.0213052704930305
1.7726357379521503e+18,5.913150390625,3.5895490646362305,-9.901001930236816,-9.170171737670898,-0.1015995070338249,0.5699160099029541,-0.4271706640720367
1.772635737972143e+18,5.93314306640625,3.368109703063965,-8.212924003601074,-11.240798950195312,0.1183774098753929,0.3645864427089691,-1.135304570198059
1.7726357379921362e+18,5.95313623046875,4.58795976638794,-3.5686817169189453,-10.21096420288086,0.5109270215034485,0.2207758724689483,-0.6615286469459534
1.772635738012129e+18,5.97312890625,4.63307523727417,-7.438465118408203,-10.249794960021973,0.3340932726860046,-0.1981390118598938,0.7219823598861694
1.772635738052115e+18,6.013114990234375,3.087904453277588,-11.226848602294922,-8.872098922729492,0.6603302359580994,-0.5376917719841003,2.1526312828063965
1.7726357380721078e+18,6.033107666015625,2.1805083751678467,-7.818843841552734,-7.7548747062683105,0.6390249729156494,0.2588590383529663,1.59709632396698
1.7726357380921009e+18,6.053100830078125,0.9336411952972412,-4.771346092224121,-4.7464094161987305,0.4177164733409881,0.0268979035317897,0.2335590273141861
1.7726357381320865e+18,6.09308642578125,-0.5380327701568604,-0.6156597137451172,0.1377453804016113,0.2483395636081695,0.1294295191764831,-0.1006674021482467
1.7726357381520796e+18,6.11307958984375,-1.6390361785888672,1.3039002418518066,2.566236019134521,-0.1093226671218872,-0.1451421529054641,-0.1368863582611084
1.7726357381720724e+18,6.133072509765625,-2.327201128005981,3.8399767875671382,4.418668746948242,-0.2661827206611633,-0.2572611272335052,-0.4005391001701355
1.7726357381920653e+18,6.153065185546875,-2.6703882217407227,6.740253925323486,5.500072002410889,-0.2685795724391937,-0.3033337891101837,0.0620516017079353
1.7726357382320512e+18,6.19305126953125,-2.2051339149475098,10.275191307067873,7.411613464355469,-0.328234314918518,-0.2181127071380615,0.2359558641910553
1.772635738272037e+18,6.233037109375,-0.6231564283370972,11.240276336669922,6.940969467163086,-0.7636607885360718,-0.1938779652118683,-0.7166560292243958
1.77263573829203e+18,6.253030029296875,-0.8960791826248169,10.296845436096191,5.651119232177734,-1.0265145301818848,-0.1272989958524704,-1.1179940700531006
1.772635738312023e+18,6.27302294921875,-0.7122852206230164,8.41744613647461,6.206942081451416,-1.0100029706954956,-0.1866874396800995,-1.2540814876556396
1.7726357383320159e+18,6.293015869140625,-1.4803040027618408,7.20521879196167,6.0998406410217285,-0.6957502365112305,-0.3355579972267151,-0.936366617679596
1.7726357383520087e+18,6.3130087890625,-1.4868425130844116,6.314328193664551,4.334360122680664,-0.2552637755870819,0.0388821177184581,0.1147821471095085
1.7726357383720018e+18,6.333001708984375,-0.9992958307266236,5.82677173614502,2.5454468727111816,-0.0571247562766075,0.1994705945253372,-0.1757684797048568
1.772635738411989e+18,6.372989013671875,-1.2972474098205566,6.456049919128418,3.0715317726135254,0.2185121774673462,0.2226400822401046,-0.2058621793985366
1.7726357384319826e+18,6.392982666015625,0.2093517184257507,5.499699592590332,3.011220932006836,0.4270375072956085,0.0383494868874549,-0.0910800322890281
1.7726357384519762e+18,6.41297607421875,-0.8234860897064209,1.6795382499694824,4.018661022186279,0.3990743458271026,-0.1230379343032836,0.0159789528697729
1.7726357384719695e+18,6.432969482421875,0.2966315746307373,-4.555086135864258,4.606783390045166,0.1785648018121719,-0.1629853248596191,0.147805318236351
1.7726357384919631e+18,6.452963134765625,4.077253818511963,-8.425164222717285,-3.210862636566162,0.0435426458716392,-0.1217063590884208,0.1818937510251999
1.7726357385319503e+18,6.492950439453125,-1.779336929321289,-6.250472068786621,-7.7641520500183105,0.0035952643956989,0.1608547866344452,-0.1131842508912086
1.772635738551944e+18,6.51294384765625,1.0881001949310305,-4.531251907348633,-8.554579734802246,-0.0294279046356678,0.1089231967926025,-0.3371559083461761
1.7726357385719375e+18,6.5329375,4.864880084991455,-3.390110969543457,-12.179147720336914,-0.1234374120831489,0.0846884474158287,-0.591221272945404
1.7726357385919311e+18,6.55293115234375,5.502894878387451,-1.5266695022583008,-11.631916046142578,-0.1404816210269928,0.1680453270673751,-0.794952929019928
1.7726357386119245e+18,6.572924560546875,4.402729511260986,-4.355719566345215,-9.157281875610352,0.2254363894462585,-0.8274434208869934,0.1187768802046775
1.772635738631918e+18,6.59291796875,2.960408926010132,-9.390976905822754,-8.704292297363281,1.5282536745071411,0.4900212287902832,2.4884555339813232
1.7726357386519117e+18,6.61291162109375,1.7836719751358032,-11.79049301147461,-6.754477500915527,1.570864200592041,1.0197235345840454,2.037849187850952
1.7726357386719053e+18,6.6329052734375,1.305620193481445,-11.29709243774414,-5.679795265197754,1.2840420007705688,0.514255940914154,1.2721909284591677
1.772635738691899e+18,6.65289892578125,1.988498330116272,-7.445562362670898,-6.262077808380127,0.475506991147995,-0.3296990692615509,0.495081216096878
1.7726357387118925e+18,6.672892578125,2.667340040206909,-4.153654098510742,-6.136138916015625,-0.4155859351158142,-0.5424854755401611,-0.196008488535881
1.7726357387518797e+18,6.712879638671875,0.7932701110839844,-0.3685483932495117,-2.3680648803710938,-0.783900797367096,-0.5036033391952515,-0.5131906867027283
1.772635738771873e+18,6.732873046875,-0.1004455089569091,1.49583101272583,0.5323400497436523,-0.4715122580528259,-0.1616537421941757,-0.5563338994979858
1.7726357387918666e+18,6.75286669921875,-0.9834368228912354,3.241580009460449,3.2648420333862305,-0.1250353008508682,0.1576589941978454,-0.2087916433811187
1.7726357388318538e+18,6.792853759765625,-2.4663703441619877,7.54546594619751,6.278327941894531,0.1412805765867233,0.4207790791988373,0.3560643196105957
1.772635738871841e+18,6.832841064453125,-0.931810736656189,10.22893524169922,8.393144607543945,0.1703090071678161,0.4388885796070099,0.3086601197719574
1.7726357388918351e+18,6.852835205078125,-0.8379113674163818,10.781758308410645,7.923659324645996,-0.1729721575975418,0.2069274336099624,-0.2977411448955536
1.772635738931823e+18,6.892822998046875,-1.467756271362305,8.956426620483398,4.926051139831543,-0.6880270838737488,-0.0005326317623257,-0.8769782185554504
1.772635738971811e+18,6.93281103515625,-1.4954705238342283,6.751955986022949,5.056785583496094,-1.0097366571426392,-0.1669800579547882,-1.1222550868988037
1.7726357389918052e+18,6.95280517578125,-1.439033269882202,6.839447021484375,4.376355171203613,-1.0057419538497925,-0.3510043323040008,-1.106009840965271
1.772635739011799e+18,6.972799072265625,-1.2180187702178955,6.324267387390137,3.518209457397461,-0.5644565224647522,-0.4737759530544281,-0.4234422445297241
1.7726357390317932e+18,6.992793212890625,-1.2612168788909912,4.930887699127197,3.842398643493652,-0.3183806240558624,0.3273022174835205,-0.0932105556130409
1.772635739051787e+18,7.012787109375,-0.6644282937049866,2.6642799377441406,3.59608793258667,-0.1809616386890411,0.2652506232261657,-0.3683148622512817
1.772635739071781e+18,7.032781005859375,0.0655661225318908,0.2626237869262695,2.5019311904907227,0.2360890358686447,-0.0146473739296197,-0.3696464300155639
1.772635739091775e+18,7.05277490234375,0.8243759870529175,-3.2374725341796875,-0.2350227832794189,0.0909468755125999,-0.2450106143951416,-0.0825579240918159
1.772635739131763e+18,7.092762939453125,2.3070664405822754,-5.953307151794434,-8.817075729370117,-0.0936100333929061,0.0,-0.0529968589544296
1.772635739151757e+18,7.112757080078125,2.1407721042633057,1.012786865234375,-8.988203048706055,-0.0382163301110267,0.1169126704335212,-0.0966726616024971
1.7726357391717512e+18,7.132751220703125,2.5115466117858887,-2.2796363830566406,-7.495663642883301,0.0547279119491577,0.2074600756168365,-0.2474074512720108
1.772635739191745e+18,7.1527451171875,3.514815330505371,-7.948928833007812,-9.17983341217041,0.0805605575442314,0.194943219423294,-0.4921517372131347
1.7726357392117391e+18,7.1727392578125,3.876652479171753,-7.132542610168457,-11.129679679870604,0.2382195591926574,0.0359526425600051,-0.5318328142166138
1.772635739231733e+18,7.19273291015625,3.622600793838501,-5.997579574584961,-10.518417358398438,0.6408891677856445,-0.2711095809936523,-0.1403484642505645
1.772635739271721e+18,7.232720947265625,3.133669376373291,-11.9795560836792,-9.131654739379885,0.6028059720993042,-0.600275993347168,1.56194269657135
1.772635739291715e+18,7.252715087890625,2.8484556674957275,-7.957027435302734,-8.590814590454102,1.013198733329773,0.1097221449017524,2.320410251617432
1.7726357393117092e+18,7.272709228515625,2.2770204544067383,-6.637969017028809,-6.609704971313477,1.184706211090088,0.4114580452442169,2.4652860164642334
1.772635739331703e+18,7.292703125,1.924173355102539,-4.785422325134277,-4.083099842071533,0.852876603603363,0.1709747910499572,1.4950973987579346
1.7726357393516972e+18,7.312697265625,1.178557276725769,-1.509627342224121,-1.3999872207641602,0.2065279632806778,-0.0537958070635795,0.2016011178493499
1.7726357393716908e+18,7.332690673828125,0.1482437849044799,1.0272507667541504,1.086909532546997,-0.0083889504894614,0.064981073141098,-0.2897516787052154
1.7726357393916828e+18,7.352682861328125,-1.1973745822906494,3.379337310791016,3.294150829315185,-0.2518016695976257,0.0804273933172226,-0.3211769461631775
1.7726357394316675e+18,7.39266748046875,-2.2704954147338867,9.353926658630373,5.697017669677734,-0.0472710691392421,0.0796284452080726,0.169643223285675
1.7726357394716518e+18,7.43265185546875,-1.260209083557129,10.281814575195312,8.805466651916504,-0.0882837176322937,0.1547295302152633,0.4522043764591217
1.7726357394916442e+18,7.45264404296875,-0.9212005734443665,10.143418312072754,8.176054000854492,-0.3050648272037506,0.1757684797048568,-0.0330231711268425
1.7726357395116362e+18,7.47263623046875,-0.9076098799705504,10.143664360046388,6.029080390930176,-0.6142575740814209,0.1131842508912086,-0.8972182273864746
1.7726357395316285e+18,7.492628662109375,-0.8490530848503113,8.999855041503906,5.44262170791626,-0.9311735033988952,0.1525990068912506,-1.4772541522979736
1.7726357395516209e+18,7.512620849609375,-1.5144822597503662,7.452886581420898,5.244810104370117,-1.1128009557724,0.0537958070635795,-1.5294520854949951
1.772635739571613e+18,7.532613037109375,-1.6995899677276611,6.423151969909668,3.6499950885772714,-0.616121768951416,-0.4692485928535461,-0.4772380590438843
1.7726357395916052e+18,7.552605224609375,-1.2516720294952393,6.0388712882995605,1.9114201068878172,-0.1023984551429748,0.0657800212502479,0.2482064068317413
1.7726357396115973e+18,7.572597412109375,-1.072083830833435,6.709591865539551,1.9266033172607424,0.0715058147907257,0.1022652983665466,0.002130527049303
1.772635739651582e+18,7.61258203125,-0.6475843191146851,6.291069507598877,3.7180237770080566,0.2776342928409576,0.1414137333631515,-0.0564589649438858
1.772635739671574e+18,7.632573974609375,-0.138029932975769,4.335273265838623,4.056987762451172,0.46485435962677,0.1129179298877716,0.0711063370108604
1.7726357396915663e+18,7.65256640625,-0.3444377779960632,-1.1641836166381836,6.126450061798096,0.3631217181682586,-0.0295610632747411,0.0580568611621856
1.7726357397315507e+18,7.69255078125,2.9109444618225098,-7.736008644104004,-8.260843276977539,0.0920121371746063,-0.081758975982666,-0.0924116075038909
1.7726357397715354e+18,7.732535400390625,0.0741891860961914,-3.127479553222656,-9.221735000610352,-0.1255679428577423,-0.066046342253685,-0.1821600645780563
1.7726357397915274e+18,7.75252734375,2.7264246940612797,-5.565959930419922,-10.328081130981444,-0.2462090253829956,-0.0828242376446724,-0.1808284819126129
1.7726357398315118e+18,7.79251171875,5.491523742675781,-2.685586929321289,-12.638389587402344,-0.2960101068019867,-0.1027979329228401,-0.2383527159690857
1.7726357398714964e+18,7.832496337890625,3.5304250717163086,-11.866878509521484,-8.551351547241211,-0.18655426800251,-0.1613874286413192,-0.2564621865749359
1.7726357399114819e+18,7.87248193359375,2.17588210105896,-8.57005786895752,-8.902326583862305,0.0786963403224945,-0.0447410680353641,-0.4828307032585144
1.7726357399514675e+18,7.912467529296875,2.028482437133789,-4.267400741577148,-5.029824256896973,0.4384891092777252,-0.4577969908714294,0.9246487617492676
1.7726357399714604e+18,7.93246044921875,1.171497106552124,-1.5824909210205078,-1.98187255859375,1.2427630424499512,-0.0852210819721221,2.459693431854248
1.772635739991453e+18,7.952452880859375,0.3511373996734619,0.6386632919311523,1.3343284130096436,1.360474705696106,0.5651223063468933,2.795517921447754
1.7726357400114458e+18,7.97244580078125,-0.805076003074646,2.51641845703125,3.5952486991882324,1.0411618947982788,0.575242280960083,2.29963755607605
1.7726357400314383e+18,7.992438232421875,-1.5823032855987549,5.279813766479492,4.898060321807861,-0.0584563352167606,-0.5134570002555847,0.1973400712013244
1.7726357400514312e+18,8.01243115234375,-2.0486297607421875,8.268473625183105,6.007724761962891,-0.4384891092777252,-0.1523326784372329,-0.6745781302452087
1.772635740071424e+18,8.032424072265625,-2.5438365936279297,10.59699821472168,7.105022430419922,-0.0358194857835769,0.2825611531734466,0.0013315794058144
1.7726357400914168e+18,8.052416748046875,-1.8385108709335327,11.41434097290039,7.793036460876465,-0.4246406853199005,0.266582190990448,-0.6639254689216614
1.7726357401114094e+18,8.072409423828125,-0.4321309328079223,10.933402061462402,7.100037574768066,-0.7559376358985901,0.2324937582015991,-1.2538151741027832
1.7726357401314022e+18,8.09240234375,-0.6745531558990479,9.83482551574707,5.469078540802002,-1.0089377164840698,0.1107874065637588,-1.4274531602859497
1.772635740151395e+18,8.11239501953125,-1.2815998792648315,8.678520202636719,4.225898265838623,-1.0811092853546145,-0.1334242522716522,-1.3329110145568848
1.7726357401713876e+18,8.1323876953125,-1.4721779823303225,7.402070045471191,3.930432796478272,-0.8118639588356018,-0.301735907793045,-1.027180314064026
1.7726357401913805e+18,8.15238037109375,-1.6079976558685305,6.613360404968262,3.688589811325073,-0.3649859130382538,-0.2330264002084732,-0.5595296621322632
1.7726357402113733e+18,8.172373291015624,-1.305069923400879,6.523322105407715,3.79111123085022,-0.0715058147907257,0.1547295302152633,-0.1004010885953903
1.772635740231366e+18,8.192365966796874,-1.0909119844436646,6.856156826019287,4.400521278381348,-0.0094542140141129,0.5856286287307739,0.0668452829122543
1.7726357402513587e+18,8.212358642578126,-0.865871787071228,7.934957504272461,4.578423500061035,0.0962731912732124,0.5432844161987305,-0.103330560028553
1.7726357402713516e+18,8.2323515625,-0.9811202883720398,7.632837295532227,4.695633411407471,0.2709763944149017,0.270576924085617,-0.3446127474308014
1.7726357402913441e+18,8.25234423828125,0.2087211012840271,4.460240364074707,4.291673183441162,0.3093259036540985,0.0889495015144348,-0.3749727606773376
1.772635740311337e+18,8.2723369140625,-0.1941754817962646,-0.5767803192138672,3.714644908905029,0.2009353339672088,0.020240006968379,-0.2918822169303894
1.7726357403313298e+18,8.292329833984375,0.0318250060081481,-4.834001541137695,-0.2927727699279785,0.0131826363503932,0.0071905287913978,-0.2122537642717361
1.7726357403713152e+18,8.332315185546875,4.190541744232178,-6.370111465454102,-10.58659553527832,-0.09014792740345,0.0431431718170642,-0.1315600425004959
1.7726357403913073e+18,8.352307373046875,0.3896137475967407,-2.1803207397460938,-8.764304161071777,-0.1031974032521247,0.1267663538455963,-0.0825579240918159
1.7726357404112993e+18,8.37229931640625,1.567716121673584,-5.38712215423584,-7.489154815673828,-0.1913479566574096,0.1880190074443817,-0.0423442237079143
1.7726357404312914e+18,8.39229150390625,3.1696159839630127,-6.976883888244629,-9.36579704284668,-0.1703090071678161,0.3395527601242065,-0.1209074109792709
1.7726357404712758e+18,8.43227587890625,3.7864832878112793,-0.025853157043457,-6.8243608474731445,0.1066595092415809,0.4165180325508117,-0.3177148401737213
1.7726357404912678e+18,8.452267822265625,2.2305803298950195,-5.069025993347168,-3.8891677856445312,0.574043869972229,0.2354232370853424,-0.4820317327976227
1.77263574051126e+18,8.472260009765625,0.7870573997497559,-7.558376312255859,-4.456217288970947,0.8318376541137695,-0.2612558901309967,-0.0428768582642078
1.772635740531252e+18,8.492251953125,0.8295888900756836,-5.434345245361328,-4.3226423263549805,0.5985449552536011,-0.5560675859451294,2.194176435470581
1.772635740551244e+18,8.512244140625,1.1409562826156616,-1.3485260009765625,-2.7789459228515625,1.003078818321228,-0.0585894957184791,2.22933030128479
1.772635740571236e+18,8.532236083984374,1.171998143196106,0.0633516311645507,-1.5200729370117188,0.9902955889701844,0.3126548528671264,2.118809223175049
1.7726357405912282e+18,8.552228271484376,1.2575795650482178,-0.0255212783813476,-1.277115821838379,0.7812376618385315,-0.1613874286413192,1.4346436262130735
1.7726357406112205e+18,8.572220458984376,0.5539376735687256,0.8606481552124023,-1.6547832489013672,-0.1868205964565277,-0.2708432376384735,0.0197073742747306
1.7726357406312125e+18,8.592212646484375,0.1801477670669555,1.935135841369629,-0.9029827117919922,-0.3966774940490722,-0.1720400601625442,-0.5336970090866089
1.7726357406711967e+18,8.63219677734375,-0.2165055274963379,3.093183994293213,1.2728838920593262,-0.4307659268379211,-0.0958737134933471,-0.6889591813087463
1.7726357406911887e+18,8.652188720703125,-0.390142023563385,3.1572327613830566,1.6683545112609863,-0.1969406008720398,-0.0516652800142765,-0.2556632459163666
1.7726357407111808e+18,8.672180908203124,-0.6795898675918579,2.3791093826293945,2.3638250827789307,0.0241015870124101,-0.0255663245916366,0.3251716792583465
1.772635740731173e+18,8.692173095703126,-0.7249323129653931,1.908746719360352,1.839393138885498,0.1261005699634552,0.1105210930109024,0.5472791194915771
1.7726357407511652e+18,8.712165283203126,-0.8423404693603516,2.1876111030578613,1.102922439575195,0.0645816028118133,0.0812263414263725,0.1400821506977081
1.7726357407711572e+18,8.7321572265625,-0.5713226795196533,2.545529842376709,0.9976718425750732,-0.1359542608261108,-0.0034621064551174,-0.3374222218990326
1.7726357407911493e+18,8.7521494140625,-0.196354866027832,2.649613857269287,1.1926748752593994,-0.345012217760086,-0.0157126374542713,-0.5872265100479126
1.7726357408111414e+18,8.772141357421875,0.0027905702590942,2.552329540252685,1.4573190212249756,-0.3633880317211151,-0.0117178987711668,-0.6559360027313232
1.7726357408311334e+18,8.792133544921874,0.1304954290390014,2.1130895614624023,1.5212962627410889,-0.2030658572912216,0.0591221265494823,-0.4330296218395233
1.7726357408711178e+18,8.832117919921876,0.1331279277801513,0.0134487152099609,-0.3023285865783691,-0.1151816174387931,0.0790958181023597,-0.3137201070785522
1.772635740891111e+18,8.85211083984375,-0.0425114631652832,-0.7254428863525391,-1.2016282081604004,-0.0826910808682441,0.0159789528697729,-0.2575274705886841
1.7726357409111043e+18,8.872104248046876,-0.4177581667900085,-0.5546731948852539,-1.6564455032348633,-0.0411458052694797,0.0287621151655912,-0.1709747910499572
1.7726357409310973e+18,8.892097412109376,0.0646810531616211,0.0982751846313476,-1.4686121940612793,0.0089215822517871,0.0969389826059341,-0.1288968920707702
1.7726357409710835e+18,8.93208349609375,0.4697890281677246,1.196948528289795,-0.4508805274963379,0.0211721118539571,0.0908137187361717,-0.1304947882890701
1.7726357409910766e+18,8.95207666015625,0.4414130449295044,1.0663976669311523,-0.4846854209899902,-0.0533963330090045,0.0074568446725606,-0.129962146282196
1.7726357410110697e+18,8.972069580078125,0.0033199787139892,0.434758186340332,-0.2781877517700195,-0.1181110963225364,-0.1259674131870269,-0.1419463604688644
1.7726357410310628e+18,8.992062744140625,-0.334623634815216,0.0251054763793945,-0.0338106155395507,-0.0611194930970668,-0.3182474672794342,0.0359526425600051
1.7726357410510559e+18,9.012055908203124,-0.4748656153678894,0.2127113342285156,0.0324869155883789,0.0310258008539676,-0.3557980060577392,0.158457949757576
1.772635741071049e+18,9.032049072265623,-0.4214131832122803,0.3446760177612304,0.0750870704650878,0.0214384291321039,-0.2798979878425598,0.2119874358177185
1.7726357410910423e+18,9.052042236328123,-0.3712792992591858,0.2128362655639648,0.1726236343383789,0.0030626326333731,-0.129962146282196,0.1890842765569687
1.7726357411310285e+18,9.092028564453123,-0.1752533912658691,0.28436279296875,0.0912933349609375,-0.1274321526288986,-0.1041295081377029,0.0609863363206386
1.7726357411710147e+18,9.1320146484375,0.0976202487945556,0.4599685668945312,-0.4283170700073242,-0.1138500422239303,-0.1462074220180511,0.0918789803981781
1.7726357411910077e+18,9.1520078125,0.4101312160491943,0.6950759887695312,-1.067338943481445,-0.09014792740345,-0.1683116406202316,0.0777642354369163
1.7726357412110008e+18,9.172000732421877,0.4708634614944458,1.129124641418457,-1.4943828582763672,-0.0944089815020561,-0.1464737355709076,-0.0529968589544296
1.7726357412509873e+18,9.2119873046875,0.515312671661377,0.7997465133666992,-1.3338408470153809,-0.0565921254456043,-0.0716389715671539,-0.1549958437681198
1.7726357412709804e+18,9.23198046875,0.3837567567825317,0.4699592590332031,-1.3401813507080078,-0.0174436904489994,-0.0338221155107021,-0.1525990068912506
1.7726357412909734e+18,9.251973388671876,0.4080862998962402,0.373417854309082,-0.9294643402099608,0.0123836882412433,0.0396810658276081,-0.0929442420601844
1.7726357413109665e+18,9.271966552734376,0.5220228433609009,0.8353095054626465,-0.510108470916748,0.1567268967628479,0.2676474750041961,-0.0213052704930305
1.7726357413309596e+18,9.291959716796876,0.439298152923584,1.276198387145996,-0.5357799530029297,0.2589921951293945,0.4410190880298614,0.0327568538486957
1.772635741370946e+18,9.331946044921876,0.2264425754547119,0.2866353988647461,-0.6937088966369629,0.2320942878723144,0.4311653971672058,0.0407463312149047
1.7726357413909402e+18,9.351940185546876,0.1019233465194702,-0.0807905197143554,-0.649444580078125,0.1367532014846801,0.3379548490047455,0.0415452793240547
1.7726357414109343e+18,9.371934326171877,0.047200322151184,0.1465473175048828,-0.4944734573364258,0.0334226414561271,0.1243695169687271,-0.0932105556130409
1.7726357414309284e+18,9.391928466796877,0.1853586435317993,0.4859046936035156,-0.1094646453857421,0.0563258081674575,0.0796284452080726,-0.0892158225178718
1.7726357414509228e+18,9.4119228515625,0.3269708156585693,0.8869295120239258,-0.0971627235412597,0.0717721283435821,0.0735031813383102,-0.0676442310214042
1.7726357414709169e+18,9.431916748046875,0.3908965587615967,0.8789129257202148,-0.5627665519714355,0.0848216116428375,0.1006674021482467,-0.0769652873277664
1.772635741510905e+18,9.471905029296876,0.4285870790481567,0.2703571319580078,-1.3984241485595703,0.03715106472373,0.1206410974264144,-0.0415452793240547
1.7726357415308992e+18,9.491899169921876,0.3549461364746094,0.5164976119995117,-1.2090511322021484,0.0035952643956989,0.1099884584546089,-0.0250336937606334
1.7726357415508933e+18,9.511893310546874,0.4659056663513183,0.9624924659729004,-0.9212207794189452,0.0291615892201662,0.1589905768632888,-0.0782968699932098
1.7726357415708874e+18,9.531887451171874,0.5136157274246216,1.1489500999450684,-0.7909159660339355,0.0778973922133445,0.2303632348775863,-0.1129179298877716
1.7726357415908818e+18,9.5518818359375,0.4194127321243286,0.8511114120483398,-0.7827415466308594,0.1418132036924362,0.3328948616981506,-0.1288968920707702
1.772635741610876e+18,9.5718759765625,0.4145909547805786,0.5387401580810547,-0.880195140838623,0.1852227002382278,0.4053327739238739,-0.1198421493172645
1.77263574163087e+18,9.5918701171875,0.3861037492752075,0.4746847152709961,-0.967796802520752,0.1846900582313537,0.4394212067127228,-0.045540016144514
1.772635741650864e+18,9.611864013671877,0.3633323907852173,0.5685567855834961,-0.834296703338623,0.209457442164421,0.3464769721031189,-0.0591221265494823
1.7726357416708582e+18,9.631858154296877,0.3432396650314331,0.7209386825561523,-0.6464729309082031,0.1950763761997223,0.3091927468776703,-0.1525990068912506
1.7726357416908524e+18,9.651852294921875,0.3451429605484009,0.6691141128540039,-0.584345817565918,0.1436774134635925,0.258060097694397,-0.185355857014656
1.7726357417308408e+18,9.6918408203125,0.2782149314880371,0.476541519165039,-0.701136589050293,0.1053279340267181,0.2231727093458175,-0.1525990068912506
1.772635741750835e+18,9.7118349609375,0.3038328886032104,0.6391801834106445,-0.7492585182189941,0.0832237154245376,0.197073757648468,-0.1326253116130828
1.772635741770829e+18,9.7318291015625,0.323508620262146,0.6541070938110352,-0.7707839012145996,0.0861531868577003,0.1832253336906433,-0.1307611018419265
1.7726357418108173e+18,9.7718173828125,0.2613090276718139,0.5403337478637695,-0.8268852233886719,0.0752342343330383,0.157392680644989,-0.1259674131870269
1.7726357418308116e+18,9.791811767578125,0.2703436613082886,0.5703229904174805,-0.7008299827575684,0.0547279119491577,0.1344895213842392,-0.1177116185426712
1.7726357418508058e+18,9.8118056640625,0.226549744606018,0.6289577484130859,-0.6554498672485352,0.040080539882183,0.1278316229581833,-0.1097221449017524
1.7726357418707996e+18,9.831799560546877,0.1676918268203735,0.4899196624755859,-0.584169864654541,0.0472710691392421,0.1296958327293396,-0.0913463458418846
1.772635741910787e+18,9.871787109375,0.2262541055679321,0.4494485855102539,-0.6853694915771484,0.0462058037519454,0.1278316229581833,-0.0402136966586113
1.7726357419307807e+18,9.89178076171875,0.2051362991333007,0.5906276702880859,-0.6822104454040527,0.0584563352167606,0.1075916141271591,-0.0290284305810928
1.772635741970768e+18,9.931767822265623,0.2821710109710693,0.7030868530273438,-0.6867756843566895,0.0608531795442104,0.0854873955249786,-0.0327568538486957
1.7726357419907615e+18,9.951761474609375,0.2492784261703491,0.5606489181518555,-0.748161792755127,0.022770008072257,0.0330231711268425,-0.0266315881162881
1.772635742010755e+18,9.971755126953123,0.1921784877777099,0.4757394790649414,-0.8180489540100098,0.0123836882412433,0.0247673764824867,-0.025300009176135
1.7726357420307487e+18,9.991748779296875,0.1831220388412475,0.5315990447998047,-0.7453207969665527,0.0158457942306995,0.037550538778305,-0.0260989554226398
1.7726357420707361e+18,10.031736083984375,0.2148457765579223,0.5582304000854492,-0.6429219245910645,0.0230363234877586,0.0332894846796989,-0.0516652800142765
1.7726357420907297e+18,10.051729736328124,0.1258429288864135,0.5668277740478516,-0.6658554077148438,0.02569948323071,0.0348873808979988,-0.0657800212502479
1.7726357421107233e+18,10.071723388671876,0.1656841039657592,0.5036239624023438,-0.645596981048584,0.0267647467553615,0.0367515906691551,-0.0561926513910293
1.772635742130717e+18,10.091717041015626,0.1512781381607055,0.455052375793457,-0.687568187713623,-0.0067910552024841,0.0010652635246515,-0.0207726396620273
1.7726357421507105e+18,10.11171044921875,0.0782216787338256,0.4440650939941406,-0.651674747467041,0.0035952643956989,-0.0260989554226398,-0.0279631670564413
1.7726357421707041e+18,10.1317041015625,0.1187272071838378,0.4519729614257812,-0.577153205871582,-0.0014647373463958,-0.05139896646142,-0.0250336937606334
1.7726357421906977e+18,10.15169775390625,0.0856462717056274,0.459507942199707,-0.5742521286010742,-0.0067910552024841,-0.0585894957184791,-0.0015978952869772
1.7726357422106916e+18,10.171691650390626,0.0680692195892334,0.4619150161743164,-0.6182360649108887,-0.0097205294296145,-0.0665789693593978,0.0034621064551174
1.7726357422306852e+18,10.191685302734374,0.1085121631622314,0.4980506896972656,-0.5810437202453613,-0.0121173728257417,-0.0601873882114887,0.0037284223362803
1.7726357422506788e+18,10.2116787109375,0.0914957523345947,0.5685806274414062,-0.5886931419372559,-0.0163784269243478,-0.0599210746586322,0.0047936858609318
1.772635742290666e+18,10.251666015625,0.0427865982055664,0.3873014450073242,-0.7096991539001465,-0.0121173728257417,-0.0679105520248413,0.0055926335044205
1.7726357423106596e+18,10.27165966796875,-0.0064309835433959,0.3847103118896484,-0.6808433532714844,-0.0235689561814069,-0.0761663392186164,0.0151800047606229
1.7726357423306532e+18,10.291653076171874,0.0355310440063476,0.4354991912841797,-0.5449666976928711,-0.0251668505370616,-0.0785631835460662,0.0175768472254276
1.7726357423506468e+18,10.311646728515624,0.0404893159866333,0.4920969009399414,-0.537696361541748,-0.0134489517658948,-0.0671116039156913,0.0154463211074471
1.7726357423706404e+18,10.331640380859374,0.0823817253112793,0.3903875350952148,-0.6268601417541504,-0.010785792954266,-0.0567252822220325,0.0199736915528774
1.7726357423906332e+18,10.35163330078125,0.0398420095443725,0.3282022476196289,-0.6639852523803711,-0.0075900023803114,-0.0521979108452796,0.0151800047606229
1.772635742410626e+18,10.3716259765625,0.0702424049377441,0.3756141662597656,-0.582240104675293,-0.0099868457764387,-0.0460726469755172,0.006657897029072
1.772635742430619e+18,10.391618896484376,0.0877891778945922,0.5145292282104492,-0.534510612487793,-0.0118510564789175,-0.0644484460353851,0.0255663245916366
1.7726357424506117e+18,10.41161181640625,0.1195333003997802,0.5384511947631836,-0.4860386848449707,-0.019840532913804,-0.0559263341128826,0.0263652727007865
1.7726357424706045e+18,10.4316044921875,0.0613802671432495,0.3954143524169922,-0.5186939239501953,-0.0142478998750448,-0.0410126447677612,0.0106526352465152
1.7726357425105902e+18,10.471590087890624,0.1714704036712646,0.3561420440673828,-0.5741105079650879,-0.0118510564789175,-0.020240006968379,0.004660528153181
1.7726357425505759e+18,10.511575927734375,0.1528618335723877,0.4868927001953125,-0.5888581275939941,-0.0041278963908553,-0.019441058859229,0.004660528153181
1.7726357425705687e+18,10.531568603515623,0.1166129112243652,0.4389333724975586,-0.5679264068603516,-0.0089215822517871,-0.0109189506620168,-0.0014647373463958
1.7726357425905615e+18,10.5515615234375,0.1136691570281982,0.362706184387207,-0.5347013473510742,-0.0161121115088462,-0.011185267008841,-0.0054594753310084
1.7726357426105544e+18,10.571554443359377,0.1234772205352783,0.3109016418457031,-0.4650135040283203,-0.022770008072257,-0.0058589493855834,-0.0025300008710473
1.7726357426305472e+18,10.591547119140625,0.1520060300827026,0.4875354766845703,-0.454228401184082,-0.0219710599631071,0.0018642111681401,-0.0023968429304659
1.77263574265054e+18,10.6115400390625,0.1704635620117187,0.5389699935913086,-0.5189414024353027,-0.0121173728257417,0.0117178987711668,-0.0045273699797689
1.772635742670533e+18,10.631533203125,0.146415114402771,0.4462251663208008,-0.5723714828491211,0.0067910552024841,0.0186421126127243,-0.0045273699797689
1.7726357426905257e+18,10.651525634765624,0.155977725982666,0.3594627380371094,-0.5940513610839844,0.0105194775387644,0.0061252652667462,0.0079894764348864
1.7726357427105188e+18,10.671518798828124,0.1709307432174682,0.3931007385253906,-0.5797052383422852,-0.0070573706179857,0.0069242129102349,0.0
1.7726357427505044e+18,10.71150439453125,0.1728270053863525,0.4503364562988281,-0.541501522064209,0.0019973691087216,0.0292947478592395,-0.0143810575827956
1.7726357427704973e+18,10.731497314453126,0.1587762832641601,0.4745855331420898,-0.4988880157470703,0.008655265904963,0.0311589576303958,-0.0207726396620273
1.77263574279049e+18,10.751489990234376,0.1772022247314453,0.4933710098266601,-0.5318779945373535,0.0150468470528721,0.0335558019578456,-0.0130494777113199
1.7726357428304758e+18,10.791475830078124,0.124089241027832,0.4443349838256836,-0.543522834777832,0.0163784269243478,0.0311589576303958,-0.0002663158811628
1.7726357428504686e+18,10.811468505859375,0.1151171922683715,0.3080024719238281,-0.6124887466430664,0.0139815835282206,0.0322242230176925,0.0058589493855834
1.7726357428704612e+18,10.831461181640623,0.1521345376968383,0.3838796615600586,-0.6065220832824707,0.0150468470528721,0.0351536944508552,-0.0010652635246515
1.7726357428904532e+18,10.851453369140623,0.217544674873352,0.4938116073608398,-0.558344841003418,0.0145142152905464,0.0364852771162986,-0.0117178987711668
1.772635742910445e+18,10.871445068359376,0.1799973249435424,0.5803432464599609,-0.5811920166015625,0.0083889504894614,0.0308926422148942,-0.0167779009789228
1.7726357429304369e+18,10.891436767578124,0.1549590826034546,0.5454702377319336,-0.5740299224853516,0.008655265904963,0.0268979035317897,-0.0154463211074471
1.772635742950429e+18,10.911428955078126,0.1170935630798339,0.361785888671875,-0.5373163223266602,0.010785792954266,0.0221042186021804,-0.0098536871373653
,,,,,0.0739026591181755,0.0298273786902427,0.013315794058144
,,,,,0.0613858103752136,0.0234357975423336,0.0042610540986061
,,,,,0.0153131633996963,0.0205063223838806,-0.0055926335044205
,,,,,-0.0174436904489994,0.0082557927817106,-0.0090547399595379
,,,,,-0.0347542241215705,0.0007989476434886,-0.0039947382174432
,,,,,0.0041278963908553,0.0013315794058144,0.0034621064551174
,,,,,0.0187752693891525,-0.0085221081972122,0.011185267008841
