time,seconds_elapsed,accel_z,accel_y,accel_x,gyro_x,gyro_y,gyro_z
1772635764202978300,0.303978271484375,-0.0501593351364135,0.0743818283081054,-0.0177059173583984,-0.0062584234401583,-0.0135821104049682,-0.0185089539736509
1772635764222970600,0.323970703125,-0.0741859674453735,0.0646781921386718,-0.0031342506408691,-0.003328948514536,-0.022370534017682,-0.017310531809926
1772635764242962700,0.343962646484375,-0.0079249143600463,0.0691814422607421,0.069188117980957,-0.0097205294296145,-0.023169482126832,-0.0117178987711668
1772635764262955000,0.363955078125,-0.0378897190093994,0.0737133026123046,0.1842226982116699,-0.0022636849898844,-0.0221042186021804,-0.0095873717218637
1772635764282947000,0.383947021484375,-0.0781165361404419,0.0917806625366211,0.2384247779846191,-0.0022636849898844,-0.0279631670564413,-0.0050600017420947
1772635764302939400,0.403939453125,-0.078803539276123,0.042302131652832,0.241037368774414,-0.0070573706179857,-0.0303600095212459,0.0053263176232576
1772635764322931500,0.423931396484375,-0.0841704607009887,-0.0337495803833007,0.1811985969543457,-0.0145142152905464,-0.0314252749085426,0.0042610540986061
1772635764342923500,0.443923583984375,-0.0731384754180908,0.0055437088012695,0.1547021865844726,-0.0174436904489994,-0.0290284305810928,0.006657897029072
1772635764362915800,0.463915771484375,-0.0275914669036865,0.0310115814208984,0.1466197967529297,-0.0123836882412433,-0.0378168560564518,0.0055926335044205
1772635764382908700,0.48390869140625,0.0071274042129516,-0.0096712112426757,0.1415581703186035,-0.0054594753310084,-0.031691588461399,0.0098536871373653
1772635764402901500,0.503901611328125,-0.0277373790740966,0.0313224792480468,0.1267457008361816,-0.0030626326333731,-0.0157126374542713,0.0207726396620273
1772635764422894300,0.523894287109375,0.032069444656372,0.0621213912963867,0.1082134246826171,0.003328948514536,-0.0002663158811628,0.0327568538486957
1772635764442887400,0.543887451171875,0.074669599533081,0.0411920547485351,0.1218190193176269,0.0019973691087216,0.0138484258204698,0.0394147485494613
1772635764462880300,0.56388037109375,0.043103814125061,0.0035820007324218,0.0837268829345703,0.0041278963908553,0.0306263267993927,0.0356863290071487
1772635764482873000,0.583873046875,0.002846360206604,-0.0128679275512695,0.0950398445129394,0.0113184247165918,0.0407463312149047,0.0237021129578351
1772635764502866200,0.6038662109375,-0.0161430835723876,0.0005712509155273,0.1621551513671875,0.011584741063416,0.045540016144514,0.0189084280282259
1772635764522859000,0.62385888671875,0.0154404640197753,0.0379800796508789,0.185770034790039,0.0131826363503932,0.0535294935107231,0.0245010610669851
1772635764542852000,0.64385205078125,0.0364112854003906,0.0702180862426757,0.1620378494262695,0.0163784269243478,0.0668452829122543,0.0197073742747306
1772635764562845000,0.663844970703125,0.068263292312622,0.1068782806396484,0.1007466316223144,0.0099868457764387,0.0822916105389595,-0.0034621064551174
1772635764582837800,0.683837646484375,0.1091206073760986,0.1714181900024414,-0.0123100280761718,0.0123836882412433,0.0969389826059341,-0.0260989554226398
1772635764602830800,0.703830810546875,0.0952422618865966,0.1787939071655273,-0.1163535118103027,0.0089215822517871,0.1086568832397461,-0.0392815917730331
1772635764622823700,0.72382373046875,0.1174236536026001,0.1956977844238281,-0.2112002372741699,0.019840532913804,0.1174453049898147,-0.0456731729209423
1772635764642816500,0.74381640625,0.1634653806686401,0.2415647506713867,-0.2633371353149414,0.0286289565265178,0.1254347860813141,-0.0427436977624893
1772635764662809600,0.7638095703125,0.2276902198791504,0.2262706756591797,-0.2408852577209472,0.0315584316849708,0.1342232078313827,-0.0392815917730331
1772635764682802400,0.783802490234375,0.1923609375953674,0.3173131942749023,-0.2487492561340332,0.0296942200511693,0.1328916251659393,-0.0374173820018768
1772635764702795500,0.80379541015625,0.1351338624954223,0.3114585876464844,-0.1973280906677246,0.032091062515974,0.1155810952186584,-0.0339552760124206
1772635764722788400,0.823788330078125,0.051815390586853,0.1984691619873047,-0.1588568687438964,0.0275636930018663,0.0857537165284156,-0.0318247489631176
1772635764742781400,0.843781494140625,-0.0199612975120544,0.1654491424560547,-0.1405911445617675,0.0121173728257417,0.0508663319051265,-0.0307594835758209
1772635764762774300,0.863774169921875,0.0991214513778686,0.1466293334960937,-0.1124758720397949,-0.0081226341426372,0.0125168468803167,-0.0344879068434238
1772635764782767000,0.88376708984375,0.0840741395950317,0.1201562881469726,0.007969856262207,-0.0363521166145801,-0.0306263267993927,-0.0427436977624893
1772635764802760200,0.90376025390625,-0.0815295577049255,0.1550741195678711,0.0563263893127441,-0.0422110669314861,-0.0655137076973915,-0.0342215895652771
1772635764822753000,0.9237529296875,-0.1355345845222473,0.0999784469604492,0.1822113990783691,-0.0398142226040363,-0.097471609711647,-0.0171773750334978
1772635764842745900,0.943745849609375,-0.1829009652137756,-0.0174274444580078,0.3020744323730469,-0.0608531795442104,-0.1155810952186584,0.0038615802768617
1772635764862739000,0.963739013671875,-0.1280855536460876,-0.0862503051757812,0.2929048538208008,-0.079228974878788,-0.1318263560533523,0.0150468470528721
1772635764882731800,0.983731689453125,-0.1018771529197692,-0.087620735168457,0.2776923179626465,-0.0744352862238884,-0.1802958548069,0.0011984214652329
1772635764902724600,1.003724609375,-0.0586195588111877,-0.0548744201660156,0.2892589569091797,-0.0874847695231437,-0.2029327005147934,-0.003328948514536
1772635764922717700,1.0237177734375,-0.058734118938446,-0.0352869033813476,0.2798824310302734,-0.0962731912732124,-0.1922800689935684,0.0022636849898844
1772635764942710500,1.04371044921875,-0.0309268832206726,0.032571792602539,0.2648634910583496,-0.094142660498619,-0.1672463715076446,-0.0019973691087216
1772635764962703400,1.063703369140625,-0.0515794157981872,-0.0041065216064453,0.2762885093688965,-0.09014792740345,-0.1395495235919952,-0.0110521093010902
1772635764982696400,1.083696533203125,-0.1352129578590393,-0.1732501983642578,0.2572884559631347,-0.0781637132167816,-0.1171789914369583,-0.0182426385581493
1772635765002689300,1.103689208984375,-0.140296995639801,-0.2548894882202148,0.2353630065917968,-0.0651142299175262,-0.1019989848136901,-0.0259657986462116
1772635765022682000,1.12368212890625,-0.1138452887535095,-0.1488313674926757,0.2938590049743652,-0.0531300194561481,-0.097737930715084,-0.0395479090511798
1772635765042675200,1.14367529296875,-0.0960758328437805,0.0848073959350586,0.3114981651306152,-0.0464721210300922,-0.0897484496235847,-0.0480700172483921
1772635765062668000,1.16366796875,0.0331981182098388,0.2532186508178711,0.2763843536376953,-0.035020537674427,-0.0751010775566101,-0.0573910735547542
1772635765082661000,1.1836611328125,0.0843803882598877,0.2280397415161132,0.1498875617980957,-0.0139815835282206,-0.0575242303311824,-0.0720384493470192
1772635765102654000,1.203654052734375,0.061866283416748,0.0763330459594726,-0.0752463340759277,-0.0105194775387644,-0.0306263267993927,-0.0921452939510345
1772635765122646800,1.223646728515625,0.0263168811798095,-0.0635862350463867,-0.2307538986206054,-0.0051931599155068,0.0106526352465152,-0.1073253005743026
1772635765142639900,1.243639892578125,0.0040796995162963,0.0003538131713867,-0.1434030532836914,0.0003994738217443,0.0378168560564518,-0.1019989848136901
1772635765162632700,1.2636328125,0.0578832626342773,0.1152229309082031,0.0862483978271484,0.0166447423398494,0.048469491302967,-0.0777642354369163
1772635765182625500,1.28362548828125,0.0074411630630493,0.1595926284790039,0.2407917976379394,0.0467384383082389,0.040480013936758,-0.049268439412117
1772635765202618600,1.30361865234375,-0.1329471468925476,0.017578125,0.428128719329834,0.0531300194561481,0.0135821104049682,-0.0303600095212459
1772635765222611500,1.323611572265625,-0.1840690970420837,-0.1806955337524414,0.69297194480896,0.0395479090511798,-0.0130494777113199,-0.0362189598381519
1772635765242604300,1.343604248046875,-0.2826849818229675,-0.1389760971069336,0.6974165439605713,0.0166447423398494,-0.0127831622958183,-0.0633831769227981
1772635765262597400,1.363597412109375,-0.2359158396720886,-0.1304550170898437,0.954967737197876,0.0035952643956989,-0.0189084280282259,-0.1030642464756965
1772635765282590200,1.383590087890625,-0.2764847874641418,-0.2251796722412109,1.5376760959625244,0.0163784269243478,-0.0420779101550579,-0.1209074109792709
1772635765302583000,1.4035830078125,-0.7911015748977661,0.3800039291381836,1.85245943069458,0.0480700172483921,-0.0428768582642078,-0.141680046916008
1772635765322576100,1.423576171875,-1.6453057527542114,1.828381061553955,2.32536244392395,0.1705753207206726,0.0114515833556652,-0.1818937510251999
1772635765342569000,1.44356884765625,-2.084167957305908,3.768309593200684,3.372272729873657,0.2456763982772827,-0.1179779320955276,-0.2577937841415405
1772635765362562300,1.463562255859375,-1.445935606956482,6.642529487609863,3.2823486328125,0.3079943060874939,-0.3083937764167785,-0.371244341135025
1772635765382555600,1.4835556640625,-0.1840943098068237,9.039917945861816,2.30082368850708,0.2962764203548431,-0.3795001208782196,-0.4524706900119781
1772635765402549200,1.50354931640625,0.8987637758255005,9.32351779937744,1.209867000579834,0.0161121115088462,0.1701758503913879,-0.331563264131546
1772635765422542800,1.52354296875,1.2912367582321167,6.913485527038574,-0.6652965545654297,0.2299637645483017,0.5044022798538208,0.7575355172157288
1772635765462529800,1.56352978515625,0.8550046682357788,0.4035220146179199,-4.211097717285156,0.5050680637359619,0.2396842986345291,1.1634008884429932
1772635765482523100,1.583523193359375,1.1775431632995603,-2.513667106628418,-3.5743417739868164,0.5942838788032532,-0.2063948065042495,1.3729915618896484
1772635765522510300,1.62351025390625,1.728096842765808,-3.8433446884155273,-5.1300950050354,0.361790120601654,-0.4221106767654419,1.4620741605758667
1772635765542503700,1.643503662109375,1.9793730974197388,-5.485709190368652,-4.171863079071045,0.1077247709035873,-0.4980106949806213,1.327451467514038
1772635765562497300,1.663497314453125,2.4099669456481934,-7.432589530944824,-5.4335527420043945,-0.0019973691087216,-0.4777706861495971,0.8291745185852051
1772635765582491000,1.683490966796875,3.168583869934082,-10.953792572021484,-8.671318054199219,0.0736363381147384,-0.3789674937725067,0.5447491407394409
1772635765602484200,1.703484130859375,3.3068463802337646,-12.10167407989502,-10.45650863647461,0.0142478998750448,-0.1794968992471695,0.3972101509571075
1772635765622477800,1.723477783203125,2.857019662857056,-9.391454696655272,-8.823871612548828,0.0470047518610954,0.1318263560533523,0.39534592628479
1772635765642471400,1.743471435546875,2.2786004543304443,-7.805327892303467,-7.391543865203857,0.0372842252254486,0.1952095478773117,0.3024016916751861
1772635765662464800,1.76346484375,1.3242616653442385,-7.225470066070557,-5.455951690673828,-0.1544632166624069,0.0953410863876342,0.0880173966288566
1772635765682458400,1.783458251953125,0.6362113952636719,-5.843917846679688,-2.280036449432373,-0.3800327479839325,0.0260989554226398,-0.1777658462524414
1772635765702451700,1.80345166015625,-0.5904130935668945,-3.22260856628418,0.6926474571228027,-0.6344975829124451,0.0902810841798782,-0.4833633303642273
1772635765742439000,1.84343896484375,-1.973327159881592,2.6559791564941406,4.944446086883545,-0.7511439323425293,0.2071937620639801,-0.7755118608474731
1772635765762432300,1.863432373046875,-2.153531312942505,5.1010847091674805,6.712518692016602,-0.9463534951210022,0.1209074109792709,-0.707068681716919
1772635765782425900,1.88342578125,-2.4491703510284424,7.20482063293457,8.017777442932129,-0.8273102641105652,0.0625842288136482,-0.4474106729030609
1772635765802419500,1.90341943359375,-1.7872262001037598,8.813766479492188,8.84299087524414,-0.5229112505912781,0.0447410680353641,-0.1818937510251999
1772635765822412800,1.923412841796875,-1.0871474742889404,9.95655632019043,8.771665573120117,-0.2480732500553131,0.0697747617959976,-0.0447410680353641
1772635765842406400,1.943406494140625,-1.2223243713378906,10.78725814819336,7.742425441741943,-0.210522711277008,0.2474074512720108,-0.1768337488174438
1772635765862399700,1.963399658203125,-1.5422745943069458,10.139752388000488,6.741989135742188,-0.2118542790412902,0.3334274888038635,-0.4719117283821106
1772635765882392800,1.983392822265625,-1.3909382820129397,8.267847061157227,5.790802478790283,0.1194426715373992,0.1627189964056015,-0.2450106143951416
1772635765902385400,2.003385498046875,-1.577343225479126,6.743363380432129,4.936777114868164,0.2946785092353821,0.0343547500669956,0.0279631670564413
1772635765922378200,2.023378173828125,-1.2810072898864746,5.952593803405762,4.345348834991455,0.2635195553302765,-0.0471379123628139,0.0559263341128826
1772635765942370800,2.043370849609375,-0.7566359043121338,5.53387451171875,4.172067642211914,0.1093226671218872,0.0444747507572174,-0.0852210819721221
1772635765962363400,2.06336328125,-0.501418948173523,5.770107269287109,4.23033332824707,-0.0035952643956989,0.1675126850605011,-0.2583264112472534
1772635765982356200,2.083356201171875,-0.8525169491767883,5.698646068572998,4.542181968688965,-0.0757668688893318,0.2711095809936523,-0.3970769643783569
1772635766002348800,2.103348876953125,-0.2869542241096496,4.112389087677002,4.527928829193115,-0.03795001283288,0.3201116919517517,-0.5150549411773682
1772635766022341600,2.123341552734375,0.8799536824226379,2.551218032836914,3.458650588989258,0.0573910735547542,0.3568632900714874,-0.6604633927345276
1772635766042334200,2.143334228515625,1.1959823369979858,1.5816311836242676,-0.2288455963134765,0.309059590101242,0.0793621316552162,-0.7430213093757629
1772635766062326800,2.163326904296875,1.9010666608810425,-2.423595428466797,-4.51526403427124,0.6115944385528564,-0.4862928092479706,-0.3472759127616882
1772635766082319600,2.183319580078125,2.2424466609954834,-7.345060348510742,-8.630739212036133,0.7447523474693298,-0.8341013193130493,0.5901560187339783
1772635766102312200,2.203312255859375,1.3760300874710083,-8.036296844482422,-6.140524864196777,0.4978775382041931,-0.8325034379959106,1.4764552116394043
1772635766122305000,2.223304931640625,0.1601660251617431,-4.184389114379883,-3.851937770843506,0.0672447606921196,-0.6095970273017883,1.29216468334198
1772635766142297600,2.243297607421875,1.0429998636245728,-2.5583648681640625,-3.905381202697754,0.4986764788627624,0.189883217215538,0.6601970791816711
1772635766162290400,2.26329052734375,3.00136137008667,-2.572476387023926,-7.210971832275391,1.1021482944488523,0.7813708186149597,0.8341013193130493
1772635766182283000,2.283282958984375,3.0912232398986816,-3.93526029586792,-9.089849472045898,1.0768482685089111,0.3680485486984253,1.3382372856140137
1772635766202275600,2.303275634765625,2.157588481903076,-7.438167095184326,-7.840051651000977,0.7458176016807556,-0.114249512553215,1.4644709825515747
1772635766222268400,2.323268310546875,1.8135294914245603,-9.780540466308594,-8.131355285644531,0.3290332853794098,-0.4016043543815613,0.8633961081504822
1772635766242261000,2.343260986328125,2.79085111618042,-9.12393856048584,-8.56386661529541,0.0272973775863647,-0.3033337891101837,0.1890842765569687
1772635766262253800,2.36325390625,2.371012687683105,-8.66586685180664,-7.406286239624023,-0.0720384493470192,-0.1051947697997093,-0.0117178987711668
1772635766282246400,2.383246337890625,1.5182534456253052,-7.724924087524414,-7.003670692443848,-0.0145142152905464,0.032490536570549,0.0319579057395458
1772635766322231800,2.423231689453125,1.5872948169708252,-5.18211555480957,-5.481944561004639,-0.1796300560235977,0.2026663869619369,-0.0631168633699417
1772635766342224400,2.443224365234375,0.9521045684814452,-3.6477608680725098,-3.0685019493103027,-0.2384858727455139,0.3864243328571319,-0.26418536901474
1772635766362217200,2.46321728515625,0.2602542638778686,-1.5573654174804688,-0.5967049598693848,-0.7090660333633423,0.1400821506977081,-0.74248868227005
1772635766382210300,2.483210205078125,-0.7867300510406494,0.2117266654968261,1.856173515319824,-0.8249134421348572,0.0564589649438858,-0.830905556678772
1772635766422197800,2.52319775390625,-1.9300395250320437,4.860432147979736,5.816137313842773,-0.6744449734687805,-0.0271642208099365,-0.6623275876045227
1772635766442191600,2.543191650390625,-1.931258201599121,7.998373031616211,7.335710525512695,-0.2981406152248382,0.1973400712013244,-0.1451421529054641
1772635766462185200,2.563185302734375,-1.8902559280395508,10.346517562866213,8.799078941345215,-0.3644532859325409,0.366716980934143,-0.2202432304620742
1772635766482179000,2.583178955078125,-1.9397127628326416,11.182727813720703,9.523584365844728,-0.3844269812107086,0.22849902510643,-0.5211801528930664
1772635766502172700,2.603172607421875,-1.587357521057129,10.153517723083496,8.276334762573242,-0.1388837248086929,-0.0386158041656017,-0.6625939011573792
1772635766522166500,2.62316650390625,-1.5982666015625,7.89516019821167,6.324190139770508,0.1516668945550918,-0.3012032508850097,-0.5880254507064819
1772635766542160100,2.64316015625,-1.4903122186660769,6.212404251098633,5.484366416931152,0.2323606014251709,-0.3510043323040008,-0.3954790830612182
1772635766562154000,2.663154052734375,-1.3634161949157717,5.772443771362305,5.627633571624756,0.0573910735547542,-0.1496695280075073,-0.31238853931427
1772635766582147600,2.683147705078125,-1.7409969568252563,6.158604621887207,6.028293132781982,-0.1830921620130539,0.1557947844266891,-0.3731085360050201
1772635766602141200,2.70314111328125,-2.004501819610596,6.7992472648620605,5.447111129760742,-0.1966742724180221,0.4234422445297241,-0.4431496262550354
1772635766622135000,2.723135009765625,-1.4061719179153442,7.284770488739014,4.495718955993652,0.1492700576782226,0.6751107573509216,-0.7329013347625732
1772635766642128600,2.743128662109375,-0.215684711933136,6.715938091278076,4.3962249755859375,0.4400869905948639,0.4601938426494598,-0.952345609664917
1772635766682116000,2.7831162109375,0.7624480128288269,-1.0900354385375977,3.229341506958008,0.8731166124343872,0.2063948065042495,-0.4540685713291168
1772635766702109700,2.803109619140625,0.2626316547393799,-4.675737380981445,-0.9794378280639648,0.829707145690918,-0.4090611934661865,1.1105371713638306
1772635766722103600,2.823103515625,-0.1315651535987854,-6.360124588012695,-7.707686424255371,0.9396955966949464,-0.5573991537094116,2.928675651550293
1772635766742097200,2.84309716796875,1.2376972436904907,-1.68524169921875,-8.593194007873535,1.1207903623580933,-0.3680485486984253,3.5220274925231934
1772635766762091000,2.863091064453125,2.3642501831054688,2.2910966873168945,-7.548702239990234,1.1010830402374268,-0.3203780055046081,3.3294811248779297
1772635766782084600,2.883084716796875,3.5037684440612797,1.0812139511108398,-7.559138774871826,0.790026068687439,-0.4087948799133301,2.055425882339477
1772635766802078500,2.903078369140625,3.2033350467681885,-3.19188928604126,-6.276831150054932,0.0691089704632759,-0.8024097681045532,0.4559327960014343
1772635766842066000,2.94306591796875,2.33728551864624,-3.7747302055358887,-4.475951194763184,-0.3002711534500122,-0.6937528848648071,-0.2418148219585418
1772635766862059500,2.9630595703125,1.256450891494751,-9.36103057861328,-4.078643321990967,-0.1774995326995849,-0.2806969285011291,-0.2692453563213348
1772635766882052600,2.983052490234375,0.7020679712295532,-12.392452239990234,-6.0335869789123535,0.0885500311851501,0.1166463568806648,-0.0260989554226398
1772635766902045200,3.003045166015625,2.078720569610596,-9.444336891174316,-8.424093246459961,0.5026712417602539,0.5480780601501465,0.3118558824062347
1772635766922038000,3.0230380859375,3.4634432792663574,-7.29047966003418,-10.734369277954102,0.4376901388168335,0.2511358857154846,0.675909698009491
1772635766942030800,3.04303076171875,3.5874335765838623,-6.08298921585083,-10.827829360961914,-0.269378513097763,-0.0242347456514835,-0.348341166973114
1772635766962023700,3.063023681640625,2.655086040496826,-4.997543811798096,-8.261543273925781,-0.8225166201591492,-0.0902810841798782,-1.217063546180725
1772635766982016300,3.083016357421875,1.615862488746643,-3.640567779541016,-4.711555480957031,-1.3428977727890017,0.086818978190422,-1.4242572784423828
1772635767002009000,3.103009033203125,-0.1523507833480835,-3.177072048187256,0.6060452461242676,-0.5277048945426941,0.4127896130084991,-1.0175930261611938
1772635767022002000,3.123001953125,-2.0361289978027344,-2.5805768966674805,5.065232753753662,-0.1596563756465912,0.2972085177898407,-0.4998749196529388
1772635767041994500,3.142994384765625,-2.7297234535217285,-0.0510444641113281,5.966475963592529,-0.0145142152905464,0.3137201070785522,-0.0937431901693344
1772635767061987300,3.1629873046875,-2.61380672454834,3.481635093688965,6.138584613800049,-0.0390152782201767,0.366716980934143,0.064182125031948
1772635767081980200,3.182980224609375,-2.7988553047180176,6.821705341339111,6.439791679382324,0.2549974620342254,0.1725726872682571,-0.1435442566871643
1772635767101973000,3.202972900390625,-2.8458495140075684,9.365306854248049,7.172365188598633,0.4225101470947265,0.086818978190422,0.0074568446725606
1772635767121965600,3.222965576171875,-1.5645956993103027,11.112228393554688,8.409337997436523,0.3370227515697479,-0.0143810575827956,0.0719052851200103
1772635767141958400,3.24295849609375,-0.6539269089698792,11.86501693725586,8.598257064819336,0.0712395012378692,-0.0663126558065414,-0.0338221155107021
1772635767161951200,3.262951171875,-1.0822904109954834,10.112717628479004,7.135923862457275,-0.1860216408967971,0.0830905586481094,-0.2138516455888748
1772635767181943800,3.28294384765625,-1.831908941268921,7.089115142822266,6.632817268371582,-0.1932121664285659,0.2972085177898407,-0.3075948357582092
1772635767201936600,3.3029365234375,-1.6809124946594238,5.2747111320495605,6.4433794021606445,-0.0382163301110267,0.4988096356391907,-0.2713758945465088
1772635767221929500,3.322929443359375,-1.662393569946289,4.965974807739258,5.175981998443604,-0.0533963330090045,0.5976128578186035,-0.2263685017824173
1772635767241922300,3.34292236328125,-1.2867064476013184,5.733695030212402,3.778253078460693,0.5671196579933167,0.0330231711268425,-0.3020022213459015
1772635767261915000,3.362914794921875,-0.7634645104408264,6.885299682617188,3.6650116443634033,0.6171870827674866,-0.3837611973285675,-0.0668452829122543
1772635767281907700,3.38290771484375,-0.9847366809844972,7.247509479522705,4.731174945831299,0.4145206809043884,-0.3507380187511444,1.1326414346694946
1772635767301900500,3.402900634765625,-0.2422268986701965,6.066798210144043,5.576347351074219,0.8853671550750732,-0.7020086646080017,2.513489246368408
1772635767321893000,3.42289306640625,1.2830579280853271,2.984102725982666,5.150146007537842,0.7367628812789917,-0.1446095257997512,2.36834716796875
1772635767341886000,3.442885986328125,0.1539955139160156,-2.574247360229492,4.055878162384033,0.6392912864685059,0.1917474269866943,1.3624720573425293
1772635767361878800,3.462878662109375,-0.4908262491226196,-7.473540306091309,-1.935189247131348,0.6368944048881531,0.120108462870121,0.6852307915687561
1772635767381872000,3.4828720703125,4.055241584777832,-6.052285194396973,-10.855047225952148,0.3274353742599487,-0.4937496483325958,0.8026760816574097
1772635767401865500,3.502865478515625,3.026923179626465,-0.9674954414367676,-10.78674030303955,0.02490053512156,-0.5225117802619934,0.6532728672027588
1772635767421859000,3.522859130859375,0.1763867139816284,-2.827955722808838,-6.70637321472168,-0.3199785351753235,-0.4181159436702728,-0.3597927689552307
1772635767441852700,3.542852783203125,1.2286521196365356,-6.754818439483643,-6.5247955322265625,-0.2496711313724517,-0.1422126740217209,-0.7651255130767822
1772635767461846000,3.562845947265625,3.118561029434204,-5.42335844039917,-7.3539228439331055,-0.1362205743789672,-0.0303600095212459,-0.4354264736175537
1772635767481839600,3.582839599609375,4.690177917480469,-1.8715276718139648,-9.260269165039062,-0.1039963513612747,0.2229063957929611,-0.1475390046834945
1772635767501833000,3.6028330078125,3.387425422668457,-4.774540901184082,-9.142627716064451,-0.1790974289178848,0.2820285260677337,-0.3097253739833832
1772635767521826600,3.62282666015625,2.4303946495056152,-9.642596244812012,-8.726258277893066,-0.5498091578483582,0.0870852917432785,-0.8229160904884338
1772635767541820200,3.642820068359375,2.5146284103393555,-10.391731262207031,-9.155574798583984,-1.2624704837799072,-0.1094558238983154,-1.725993275642395
1772635767561813500,3.6628134765625,2.349574089050293,-8.505763053894043,-8.693113327026367,-0.7948197722434998,-0.3004043102264404,-1.3510204553604126
1772635767581807000,3.68280712890625,2.0127763748168945,-5.427972316741943,-7.971773624420166,-0.4448806941509247,-0.2982738018035888,-0.7499455213546753
1772635767621794000,3.7227939453125,1.4550374746322632,-3.174978733062744,-4.686129093170166,-0.2478069216012954,-0.0367515906691551,-0.1637842655181884
1772635767641787600,3.74278759765625,0.0057836771011352,-1.3045902252197266,-0.8230223655700684,-0.1479384750127792,0.270576924085617,0.0340884327888488
1772635767661781000,3.762781005859375,-0.9873740077018738,-0.2726469039916992,2.3530080318450928,-0.0536626502871513,0.4170506596565246,-0.1086568832397461
1772635767701768200,3.802768310546875,-2.425286293029785,4.096428871154785,5.532887935638428,0.2691121995449066,0.4428833127021789,-0.1544632166624069
1772635767721761500,3.822761474609375,-3.0527117252349854,7.212792873382568,6.633893013000488,0.5775060057640076,0.2474074512720108,0.0559263341128826
1772635767741755100,3.842755126953125,-2.5013585090637207,9.780241012573242,8.280776977539062,0.5162533521652222,-0.0234357975423336,0.168577954173088
1772635767761748700,3.862748779296875,-1.413990497589111,11.476018905639648,9.36522388458252,0.1681784838438034,-0.0998684540390968,0.1443432122468948
1772635767781742000,3.8827421875,-1.149127721786499,12.51485824584961,8.264215469360352,-0.1111868768930435,-0.0045273699797689,0.0154463211074471
1772635767801735700,3.902735595703125,-0.8912939429283142,11.138022422790527,5.879288196563721,-0.1482047885656356,0.1632516384124755,-0.1464737355709076
1772635767841722600,3.94272265625,-1.074461579322815,6.066359043121338,5.609832286834717,-0.1327584683895111,0.2897516787052154,-0.2213084995746612
1772635767861716200,3.96271630859375,-1.5316779613494873,5.473334312438965,4.776717185974121,-0.1514005810022354,0.2964095771312713,-0.3185137808322906
1772635767881709000,3.982708984375,-1.4967153072357178,5.441922664642334,3.642329692840576,-0.0113184247165918,0.0287621151655912,-0.4189148843288421
1772635767901701600,4.00270166015625,-1.2964143753051758,5.960504531860352,3.4600987434387207,0.127698466181755,-0.163517951965332,-0.323041170835495
1772635767941687000,4.04268701171875,0.0032263398170471,5.642768383026123,4.8189239501953125,0.5178512334823608,-0.5174517631530762,0.1669800579547882
1772635767961679600,4.0626796875,0.480912446975708,4.0509419441223145,4.3031158447265625,0.7785744667053223,-0.3864243328571319,1.3081436157226562
1772635767981672400,4.08267236328125,0.8575948476791382,1.1336636543273926,3.326122999191284,0.8214513063430786,0.3198453783988952,1.6333153247833252
1772635768001665000,4.1026650390625,2.7540841102600098,-3.416487693786621,-0.5628147125244141,1.3484904766082764,0.8998813629150391,1.9656774997711184
1772635768041650200,4.142650146484375,-0.9916115999221802,-10.112382888793944,-8.411980628967285,0.8890955448150635,0.0655137076973915,1.685513257980347
1772635768061643000,4.16264306640625,0.1551277637481689,0.3189167976379394,-9.372201919555664,-0.5628586411476135,-0.8929571509361267,0.0620516017079353
1772635768081635600,4.182635498046875,3.618951320648194,-0.4261770248413086,-8.481302261352539,-0.4986764788627624,-0.3336938023567199,-0.4127896130084991
1772635768101628200,4.202628173828125,6.180611610412598,-5.034361839294434,-11.286272048950195,-0.2611227333545685,0.1462074220180511,-0.3051980137825012
1772635768141613600,4.242613525390625,3.3215787410736084,-8.565526962280273,-9.88560390472412,-0.1261005699634552,0.3624559044837951,-0.2351569235324859
1772635768161606100,4.262606201171875,2.7536308765411377,-10.790632247924805,-7.269878387451172,-0.2808300852775574,0.2069274336099624,-0.5121254324913025
1772635768181598700,4.2825986328125,1.7404892444610596,-11.241046905517578,-7.651546478271484,-0.7111965417861938,0.0037284223362803,-1.0391645431518557
1772635768201591600,4.302591552734375,1.787353754043579,-9.44297218322754,-8.181914329528809,-1.072587251663208,-0.0061252652667462,-1.428784728050232
1772635768221584100,4.322584228515625,1.8722248077392576,-6.0096821784973145,-7.587636470794678,-1.2728567123413086,-0.0018642111681401,-1.524658441543579
1772635768241576700,4.34257666015625,1.1791229248046875,-3.702349185943604,-5.077542781829834,-1.0550103187561035,-0.1499358415603637,-1.3283835649490356
1772635768261569500,4.362569580078125,0.1815574169158935,-1.6628599166870115,-1.754934310913086,-0.6022733449935913,-0.2226400822401046,-0.8839024305343628
1772635768281562000,4.38256201171875,-0.620566189289093,0.4562625885009765,1.4067440032958984,-0.2083921730518341,0.0300936941057443,-0.3813643455505371
1772635768301554700,4.4025546875,-1.2804721593856812,2.332979202270508,4.233654499053955,-0.0185089539736509,0.4103927612304687,-0.1502021551132202
1772635768321547500,4.422547607421875,-1.7326912879943848,4.798794269561768,6.47104549407959,-0.0121173728257417,0.3560643196105957,-0.1794968992471695
1772635768341540000,4.4425400390625,-2.523207664489746,8.103959083557129,7.870274543762207,0.462457537651062,-0.0607200190424919,-0.0250336937606334
1772635768361532700,4.46253271484375,-2.3409793376922607,10.416614532470703,9.019207000732422,0.4640554189682007,-0.1382179409265518,0.1107874065637588
1772635768381525800,4.48252587890625,-1.615067720413208,11.642291069030762,9.402731895446776,-0.0688426569104194,0.0892158225178718,0.0268979035317897
1772635768401519000,4.50251904296875,-0.9265041947364808,11.840078353881836,7.995894432067871,-0.1308942586183548,0.2537990212440491,-0.2972085177898407
1772635768441505800,4.542505859375,-0.9282379746437072,7.879797458648682,5.145066261291504,-0.2020006030797958,0.3185137808322906,-0.4982770085334778
1772635768461499100,4.5624990234375,-1.617526650428772,5.976222991943359,5.044409275054932,0.3359574973583221,0.0519315972924232,-0.5105275511741638
1772635768481492500,4.582492431640625,-1.834873914718628,5.363847732543945,4.334423542022705,0.8254460692405701,-0.4348938465118408,0.3078611493110657
1772635768501485800,4.60248583984375,-1.718791961669922,5.893935203552246,3.73502779006958,1.1554114818572998,-0.6870949864387512,1.8133448362350464
1772635768541472300,4.64247216796875,-1.888358235359192,6.106561183929443,4.740488052368164,0.6422207355499268,-0.5286370515823364,2.5052335262298584
1772635768581459000,4.682458984375,0.5574214458465576,2.683712959289551,4.897610187530518,0.4259722530841827,0.1270326822996139,1.422659397125244
1772635768601452300,4.702452392578125,0.936263620853424,1.355978012084961,3.531121730804444,0.816923975944519,0.6639254689216614,1.1566098928451538
1772635768621445600,4.722445556640625,2.4942994117736816,-1.6757936477661133,-2.1744909286499023,0.989496648311615,0.1677789986133575,1.2820446491241455
1772635768641439000,4.74243896484375,1.24694561958313,-6.871101379394531,-10.490238189697266,0.4600606858730316,-0.4881570041179657,1.284175157546997
1772635768661432300,4.762432373046875,-0.8845853209495544,-9.968448638916016,-8.99094295501709,-0.0651142299175262,-0.4751075208187103,0.7451518177986145
1772635768681425700,4.78242578125,-0.6596176624298096,-3.6729583740234375,-6.4731974601745605,-0.2709763944149017,-0.1709747910499572,-0.1198421493172645
1772635768701419000,4.8024189453125,3.446625232696533,-0.5541009902954102,-5.16666841506958,-0.1245026737451553,0.0564589649438858,-0.3576622307300567
1772635768741405700,4.84240576171875,3.884648084640503,-4.613635063171387,-10.457239151000977,-0.1918805986642837,0.0418115928769111,-0.3081274628639221
1772635768761399000,4.86239892578125,2.301497220993042,-7.665671825408935,-10.37492847442627,-0.2328932434320449,0.2133190184831619,-0.1557947844266891
1772635768781392400,4.882392333984375,2.7009334564208984,-9.412027359008787,-8.705350875854492,-0.2853574752807617,0.1699095368385315,-0.1605884730815887
1772635768801385500,4.902385498046875,3.1955933570861816,-10.183340072631836,-8.361523628234863,-0.5490102171897888,0.0490021221339702,-0.6242444515228271
1772635768821378800,4.92237890625,2.299017429351806,-8.58169937133789,-9.284625053405762,-0.7889608144760132,0.0900147706270217,-1.1792466640472412
1772635768841372200,4.9423720703125,2.4514970779418945,-5.850575923919678,-8.944877624511719,-0.9897629618644714,0.0657800212502479,-1.5286531448364258
1772635768861365500,4.962365478515625,2.579735517501831,-5.597989559173584,-6.943004608154297,-1.0747177600860596,0.0761663392186164,-1.557415246963501
1772635768881358300,4.9823583984375,1.546952486038208,-4.38681697845459,-4.555023193359375,-0.9460871815681458,0.0601873882114887,-1.2759194374084473
1772635768901350700,5.0023505859375,0.5326247215270996,-2.2500133514404297,-1.539259433746338,-0.6502102017402649,-0.1105210930109024,-0.7044054865837097
1772635768921343000,5.022343017578125,-0.0810787677764892,-0.3403139114379883,0.9339485168457032,-0.2643185257911682,-0.1017326638102531,0.2652506232261657
1772635768941335300,5.042335205078125,-0.7319319844245911,1.8757333755493164,3.007692337036133,0.0054594753310084,-0.0593884401023387,-0.1438105702400207
1772635768961327900,5.062327880859375,-0.9994158744812012,4.678544998168945,4.726443767547607,0.3071953654289245,0.0135821104049682,-0.1872200667858123
1772635768981320200,5.0823203125,-1.700984239578247,7.676979064941406,6.0949225425720215,0.3908185660839081,-0.0260989554226398,-0.207726389169693
1772635769001312500,5.1023125,-2.1513473987579346,10.129961967468262,7.877579689025879,0.1854890137910843,-0.0359526425600051,-0.2500706017017364
1772635769021304800,5.122304931640625,-2.09326696395874,10.794586181640623,9.644781112670898,-0.0416784361004829,0.0913463458418846,-0.2167811244726181
1772635769041297200,5.142297119140625,-1.6266162395477295,10.714035034179688,9.199400901794434,-0.0997352972626686,0.2977411448955536,-0.1840242743492126
1772635769061289500,5.16228955078125,-1.4020801782608032,9.916647911071776,6.877506256103516,-0.0856205523014068,0.4061317145824432,-0.2191779762506485
1772635769081282000,5.182281982421875,-1.5637099742889404,7.914033889770508,5.589217662811279,-0.1572595238685608,0.3720432817935943,-0.3800327479839325
1772635769101274400,5.2022744140625,-1.6474227905273438,6.443005561828613,5.654212951660156,-0.0563258081674575,-0.0287621151655912,-0.4969454407691955
1772635769121266700,5.2222666015625,-1.535099983215332,6.248831748962402,5.075162410736084,0.559396505355835,-0.3595264256000519,0.2042642831802368
1772635769141259000,5.242259033203125,-1.3041725158691406,6.730476379394531,4.18053674697876,0.8286418914794922,-0.6410223245620728,1.2207920551300049
1772635769161251600,5.26225146484375,-1.076915979385376,7.185405254364014,4.139980792999268,0.7354313135147095,-0.5672528147697449,1.7933712005615234
1772635769181244000,5.282243896484375,-1.1632903814315796,6.935439109802246,4.592205047607422,0.758867084980011,-0.1057274043560028,1.641571044921875
1772635769201236200,5.302236328125,-0.7135475873947144,5.334018707275391,4.628192901611328,1.0241177082061768,0.2287653386592865,1.6354458332061768
1772635769221228500,5.322228515625,0.8542498350143433,2.7102303504943848,3.2332451343536377,0.8861660957336426,-0.0444747507572174,1.3630046844482422
1772635769241221000,5.34222119140625,0.2169592976570129,0.6434392929077148,1.454911470413208,0.4249069988727569,-0.4788359403610229,0.9166592359542848
1772635769261213400,5.36221337890625,2.285689353942871,-0.8613128662109375,-1.3776707649230957,0.2786995768547058,-0.4285022616386413,0.5709812641143799
1772635769281205800,5.382205810546875,2.006224632263184,-4.25936222076416,-5.1414289474487305,-0.1689774245023727,-0.2468748241662979,-0.2386190295219421
1772635769301198000,5.402197998046875,0.4951792955398559,-7.956823348999023,-6.644015312194824,0.0022636849898844,0.0415452793240547,-0.1334242522716522
1772635769321190400,5.4221904296875,-0.0320769548416137,-4.386987686157227,-8.506725311279297,-0.4001396000385284,0.3707117140293121,-0.3922832906246185
1772635769341183000,5.442182861328125,3.079946517944336,-1.4374074935913086,-7.658139705657959,-0.6230459809303284,0.4892222881317138,-0.8426234722137451
1772635769381168400,5.48216845703125,3.9944159984588623,-4.070913791656494,-10.81443977355957,-0.7820366024971008,0.6327665448188782,-1.2634025812149048
1772635769401162000,5.502161865234375,2.836310148239136,-8.80703353881836,-11.649934768676758,-0.922385036945343,0.5877591371536255,-1.426387906074524
1772635769441149400,5.5421494140625,2.4171266555786133,-10.702960968017578,-8.87790584564209,-0.8454197645187378,0.3201116919517517,-1.2687288522720337
1772635769461143000,5.56214306640625,2.455374002456665,-7.779213428497314,-7.848745822906494,-0.5487438440322876,-0.1129179298877716,-0.8347671031951904
1772635769481136600,5.58213671875,2.147629737854004,-7.330307960510254,-7.667239189147949,-0.3961448669433594,-0.2394179701805114,0.0978710874915123
1772635769501130200,5.602130126953125,1.90582275390625,-6.450702667236328,-6.918971538543701,-0.154063731431961,0.0719052851200103,-0.2615222036838531
1772635769521123800,5.622123779296875,1.1939820051193235,-4.410454750061035,-3.68673038482666,0.2587258815765381,0.1158474087715148,-0.4585959613323211
1772635769541117400,5.642117431640625,0.2277628183364868,-2.6257143020629883,0.1416473388671875,0.4054659307003021,0.0772316083312034,-0.300137996673584
1772635769561111000,5.662111083984375,-0.6816242933273315,-0.8605852127075195,2.937915563583374,0.067777395248413,-0.0892158225178718,0.1206410974264144
1772635769581104600,5.682104736328125,-1.4399232864379885,1.826520919799805,4.385427951812744,-0.1588574200868606,0.0082557927817106,-0.0580568611621856
1772635769601098500,5.702098388671875,-2.195653200149536,5.233158111572266,5.080814838409424,-0.1066595092415809,0.3486074805259704,-0.3928159177303314
1772635769641085700,5.742085693359375,-2.3106086254119877,10.818281173706056,8.242880821228027,0.1633847951889038,0.2921485304832458,-0.4977443814277649
1772635769661079300,5.762079345703125,-1.425400733947754,12.110342979431152,8.993610382080078,0.4765722751617431,-0.2628537714481354,-0.7403581738471985
1772635769701066500,5.80206640625,-0.7909175753593445,9.59092903137207,5.394207000732422,0.2118542790412902,-0.3829622268676758,0.131027415394783
1772635769721060000,5.82206005859375,-0.4782179594039917,7.948981761932373,5.271523952484131,0.6776407361030579,-0.0181094799190759,1.9425079822540283
1772635769761047600,5.862047607421875,-1.0651705265045166,7.2759833335876465,4.375489711761475,1.234241008758545,0.1544632166624069,3.114830493927002
1772635769781041200,5.882041259765625,-0.9344456791877748,6.273927688598633,3.597421646118164,0.8012113571166992,0.1126516163349151,1.0207887887954712
1772635769801034800,5.90203466796875,-0.9352768659591676,5.872373104095459,3.715397119522095,0.5423523187637329,-0.1267663538455963,0.4370243549346924
1772635769821028400,5.9220283203125,-1.4590401649475098,6.150544166564941,4.378263473510742,-0.0986700356006622,-0.518517017364502,0.1552621573209762
1772635769841022000,5.94202197265625,-0.584228515625,5.81492805480957,4.287285327911377,-0.2944121956825256,-0.2689790427684784,-0.7091991901397705
1772635769861015600,5.962015625,0.6873008012771606,3.8142924308776855,3.4606032371521,-0.2573943138122558,-0.1379516273736953,-0.7456844449043274
1772635769881009000,5.9820087890625,-0.0622082352638244,-0.5721445083618164,4.416416168212891,-0.3372890651226043,0.2825611531734466,-0.6695181131362915
1772635769901001700,6.002001708984375,0.4613081216812134,-5.697585105895996,1.8909778594970703,-0.5950828194618225,0.2308958619832992,-1.072986721992493
1772635769920994800,6.021994873046875,1.790834665298462,-4.259649276733398,-5.8424601554870605,-0.8499471545219421,0.2378200888633728,-1.3054804801940918
1772635769960980700,6.061980712890625,3.3339853286743164,-5.380106925964356,-9.882192611694336,-0.8241145014762878,-0.1866874396800995,-1.080976128578186
1772635770000966700,6.101966552734375,2.2517824172973637,-8.024312019348145,-8.605682373046875,-0.7655249834060669,-0.4617917239665985,-0.2122537642717361
1772635770020959500,6.12195947265625,3.39857816696167,-4.3705925941467285,-8.969462394714355,-0.6861628890037537,-0.0969389826059341,-0.0183757953345775
1772635770040952600,6.14195263671875,3.712848663330078,-5.912729740142822,-11.002710342407228,-0.3383543193340301,0.1137168779969215,-0.2639190256595611
1772635770080938500,6.1819384765625,3.2916910648345947,-11.588765144348145,-9.567097663879396,0.1042626649141311,0.0205063223838806,-0.4828307032585144
1772635770100931600,6.201931640625,3.2690470218658447,-9.429597854614258,-8.538610458374023,0.4398206770420074,-0.2031990140676498,-0.2471411377191543
1772635770120924400,6.22192431640625,2.5699734687805176,-6.158512115478516,-6.50429630279541,0.6033385992050171,-0.251402199268341,0.1784316450357437
1772635770140917500,6.24191748046875,2.0452189445495605,-5.063202857971191,-4.816620826721191,0.4880238473415375,-0.1198421493172645,0.4596612155437469
1772635770160910300,6.261910400390625,0.8669314384460449,-2.7277002334594727,-2.179140567779541,0.1521995216608047,-0.0034621064551174,0.3739075064659118
1772635770180903400,6.2819033203125,-0.5376849174499512,0.3063697814941406,1.0833439826965332,-0.1942774355411529,0.0631168633699417,0.0143810575827956
1772635770220889300,6.321889404296875,-1.690622091293335,5.557722091674805,4.28624153137207,-0.3545995950698852,0.2636527121067047,-0.6034718155860901
1772635770240882200,6.341882080078125,-2.450070381164551,8.650463104248047,4.749735355377197,-0.3527353703975677,0.3549990653991699,-0.6332991719245911
1772635770260875300,6.361875244140625,-2.685624361038208,11.329422950744627,6.166529655456543,-0.1242363601922988,0.2231727093458175,-0.6074665188789368
1772635770280868400,6.381868408203125,-1.3698780536651611,12.211681365966797,8.284037590026855,0.653406023979187,-0.1733716428279876,0.0836231857538223
1772635770300861200,6.401861083984375,-1.176055073738098,10.791563987731934,9.091670989990234,0.4526038467884063,-0.201068490743637,1.7241289615631104
1772635770320854300,6.421854248046875,-1.379420518875122,9.265436172485352,7.725048065185547,0.7652586698532104,0.4237085580825805,1.6181353330612185
1772635770340847000,6.44184716796875,-1.0892930030822754,8.65029525756836,5.765838623046875,1.302151441574097,0.585096001625061,2.257826089859009
1772635770360840200,6.461840087890625,-1.3732908964157104,8.008103370666504,4.349763870239258,0.2771016657352447,-0.7595328688621521,1.2761857509613037
1772635770380832500,6.48183251953125,-1.708322286605835,6.6302995681762695,3.406625509262085,-0.1926795393228531,-0.5824328064918518,0.4415517449378967
1772635770400824600,6.501824462890625,-1.57493257522583,5.344253540039063,2.841394424438477,-0.3982754051685333,-0.239151656627655,-0.2153163850307464
1772635770420816600,6.521816650390625,-1.324068307876587,5.686070919036865,2.818084239959717,-0.1673795282840728,0.0689758136868476,-0.5628586411476135
1772635770440808400,6.541808349609375,-1.5912632942199707,6.68084192276001,3.9094412326812735,-0.0454068593680858,0.2724411487579345,-0.3069290518760681
1772635770480792600,6.58179248046875,0.0989041924476623,5.532996654510498,4.5430450439453125,-0.1039963513612747,0.4572643637657165,0.0230363234877586
1772635770500784600,6.60178466796875,0.0145196318626403,2.398733139038086,4.513967037200928,-0.5170522928237915,0.227433755993843,-0.5926859974861145
1772635770520776700,6.621776611328125,1.596502661705017,-1.3571510314941406,2.616928100585937,-0.8350334167480469,0.0567252822220325,-1.104278802871704
1772635770540768800,6.641768798828125,3.8958239555358887,-4.783623695373535,-3.485340118408203,-1.137035608291626,0.0271642208099365,-1.3520857095718384
1772635770560760800,6.6617607421875,2.2723045349121094,-10.070656776428224,-10.365365982055664,-0.3969438076019287,0.0250336937606334,-0.3025348484516144
1772635770580753000,6.6817529296875,-1.5342566967010498,-9.062207221984863,-9.815388679504396,-0.1495363712310791,0.2194442898035049,0.2841590344905853
1772635770600745000,6.701744873046875,0.1472607851028442,0.8401889801025391,-8.772048950195312,-0.2142511308193206,0.3755053877830505,0.3195790648460388
1772635770620736800,6.72173681640625,5.203708648681641,0.3883199691772461,-5.264669895172119,0.2107890248298645,-0.013315794058144,-0.3789674937725067
1772635770640729000,6.74172900390625,5.046355247497559,-3.646657943725586,-7.497386455535889,0.528237521648407,-0.2079927027225494,-0.3888211846351623
1772635770660721000,6.761720947265625,2.861734390258789,-4.849570274353027,-11.873035430908203,0.4339617192745209,-0.38189697265625,-0.3563306629657745
1772635770680713000,6.781712890625,2.679378032684326,-7.861763000488281,-9.369257926940918,-0.2115879654884338,-0.201068490743637,-0.3557980060577392
1772635770700705000,6.801705078125,2.712288856506348,-11.779571533203123,-6.890284061431885,-0.2712427377700805,0.0503337010741233,-0.3637875020503998
1772635770740689200,6.841689208984375,2.2370972633361816,-8.684019088745117,-9.200860977172852,-0.2352900803089141,0.2830937802791595,-0.3491401076316833
1772635770760681200,6.86168115234375,2.9147582054138184,-5.194502830505371,-8.65264892578125,-0.0928110852837562,0.4484759569168091,-0.4458127915859222
1772635770780673300,6.88167333984375,2.774657249450684,-4.544330596923828,-7.522546291351318,0.2427469193935394,0.3009369373321533,-0.6876276135444641
1772635770800665300,6.901665283203125,1.901899099349976,-2.985428810119629,-4.780725479125977,1.1167956590652466,-0.1994705945253372,-0.2386190295219421
1772635770820657400,6.921657470703125,0.4471668004989624,-0.8162288665771484,-1.4491901397705078,0.7854986786842346,-0.3249053657054901,1.21519935131073
1772635770860641300,6.961641357421875,-2.044350862503052,3.1163763999938965,3.56442666053772,0.7072018384933472,-0.5733780860900879,2.757967233657837
1772635770880633900,6.9816337890625,-2.090040683746338,6.168811321258545,4.986791610717773,0.8462187051773071,0.0444747507572174,2.01787543296814
1772635770900626400,7.00162646484375,-2.0358660221099854,8.757022857666016,7.024872303009033,0.8739155530929565,0.1587242633104324,1.0141308307647705
1772635770920619300,7.021619384765625,-1.7492835521697998,10.088369369506836,9.599275588989258,0.5969470739364624,0.2806969285011291,0.7001444697380066
1772635770940611800,7.04161181640625,-1.070154905319214,10.727170944213867,10.564541816711426,0.3202448487281799,0.1922800689935684,0.4242411851882934
1772635770960604700,7.061604736328125,-0.6134880185127258,10.957269668579102,8.779229164123535,0.0019973691087216,0.023169482126832,-0.2388853430747985
1772635771000590000,7.101590087890625,-1.524383544921875,7.381429672241211,4.839077949523926,-0.1553953140974044,-0.0343547500669956,-0.2553969323635101
1772635771020582700,7.121582763671875,-1.9314751625061035,5.653008460998535,4.9035258293151855,0.0230363234877586,-0.2519348263740539,0.4141211807727813
1772635771040575500,7.141575439453125,-1.8702373504638672,5.1596550941467285,4.713000297546387,-0.0816258192062377,-0.2809632420539856,0.5483443737030029
1772635771060568000,7.161568115234375,-1.4221032857894895,5.518090724945068,4.582406044006348,-0.529569149017334,-0.1547295302152633,-0.2577937841415405
1772635771080561000,7.181560791015625,-0.8741271495819092,6.5495805740356445,4.577851295471191,-0.84675133228302,0.1858884841203689,-1.1275814771652222
1772635771100553500,7.201553466796875,-0.4780904054641723,7.827465057373047,4.498934745788574,-1.186570405960083,0.4692485928535461,-1.6253257989883425
1772635771120546300,7.22154638671875,0.0807712078094482,7.121359825134277,4.697322845458984,-1.0448904037475586,0.3787011802196502,-1.4245235919952393
1772635771140539000,7.241538818359375,1.058309555053711,4.5956878662109375,3.586709499359131,-0.4467448890209198,0.1432779431343078,-0.6263749599456787
1772635771160531700,7.26153173828125,0.6586308479309082,0.2480974197387695,1.2389075756072998,0.0656468644738197,-0.1547295302152633,0.1992042809724807
1772635771200517000,7.30151708984375,1.9496352672576904,-9.36133861541748,-14.574832916259766,-0.4379564523696899,0.0298273786902427,0.0511326491832733
1772635771220509700,7.321509765625,3.537076473236084,-1.6166610717773438,-10.588117599487305,-0.3545995950698852,0.234091654419899,-0.3978759348392486
1772635771260495000,7.3614951171875,2.9709014892578125,-4.33723258972168,-3.657776355743408,0.1966742724180221,0.3510043323040008,-0.4612590968608856
1772635771280488000,7.381488037109375,3.40714430809021,-3.719998359680176,-7.213675022125244,0.5668533444404602,0.2143842875957489,-0.3446127474308014
1772635771300480500,7.40148046875,4.138322830200195,-3.0224008560180664,-10.090280532836914,0.2073269188404083,-0.1126516163349151,-0.2300969213247299
1772635771320473000,7.42147314453125,3.5310091972351074,-8.888418197631836,-11.095504760742188,-0.0336889587342739,-0.0402136966586113,-0.1978726983070373
1772635771340466000,7.4414658203125,2.2296643257141118,-12.00094509124756,-10.076431274414062,-0.1175784617662429,0.131027415394783,-0.2338253408670425
1772635771360458500,7.46145849609375,3.394984483718872,-8.214574813842773,-9.058362007141112,-0.2781669497489929,0.2476737648248672,-0.3051980137825012
1772635771380452000,7.4814521484375,4.144268035888672,-6.264725685119629,-10.014144897460938,-0.2659164071083069,0.3257043361663818,-0.3960117101669311
1772635771400446000,7.501446044921875,3.17940616607666,-8.360015869140625,-9.60056972503662,0.0707068666815757,0.5052012205123901,-0.3720432817935943
1772635771440434000,7.541433837890625,1.467231035232544,-4.280154228210449,-4.857991218566895,0.3506048619747162,0.385891705751419,-0.3861580193042755
1772635771460428000,7.561427978515625,0.6729953289031982,-2.737677574157715,-0.0362200736999511,0.5095954537391663,-0.2135853320360183,-0.3456780016422272
1772635771480422000,7.581421875,-0.4298280477523803,-0.6185979843139648,1.885015726089477,0.7828355431556702,-0.4351601600646972,0.3105243146419525
1772635771520409900,7.621409912109375,-2.474495410919189,5.675684928894043,4.1071062088012695,0.3045322000980377,-0.4181159436702728,1.3760541677474976
1772635771540404000,7.641404052734375,-2.509880542755127,8.044548988342285,7.222145080566406,0.2017342746257782,-0.4535359442234039,1.1137330532073977
1772635771560397800,7.661397705078125,-2.204160690307617,9.979829788208008,10.079258918762209,0.9290429353713988,0.570448637008667,1.8053553104400637
1772635771580391700,7.6813916015625,-1.550068497657776,12.652417182922363,10.63955307006836,1.0366345643997192,0.2759032547473907,2.162484884262085
1772635771600385800,7.7013857421875,-0.4041717052459717,13.513830184936523,7.87862491607666,0.8222503066062927,-0.2924148440361023,1.3832446336746216
1772635771620379600,7.721379638671875,-0.7197018265724182,10.585176467895508,5.363901138305664,0.4009385704994201,-0.3126548528671264,0.749146580696106
1772635771640373800,7.741373779296875,-0.8368644118309021,7.317592620849609,5.760987281799316,0.2062616497278213,-0.2561958730220794,0.4055990874767303
1772635771660367600,7.76136767578125,-1.5643136501312256,5.428645133972168,6.213056564331055,-0.043010015040636,-0.2055958658456802,-0.1400821506977081
1772635771680361700,7.78136181640625,-1.851414918899536,4.84703254699707,4.717675685882568,0.0968058258295059,0.2279663980007171,-0.0647147595882415
1772635771720349700,7.821349609375,-1.6303808689117432,5.783287048339844,2.463120698928833,-0.330364853143692,-0.0071905287913978,0.1864211112260818
1772635771760337700,7.861337646484375,-0.752140998840332,8.691888809204102,4.686797142028809,-0.7415565848350525,0.0820252895355224,-0.7414234280586243
1772635771780331500,7.88133154296875,0.3740273714065552,7.84421443939209,4.601237773895264,-1.0685924291610718,0.1214400380849838,-1.2673972845077517
1772635771800325600,7.90132568359375,1.1773409843444824,4.330893039703369,5.345725059509277,-1.3751220703125,-0.064182125031948,-1.3169320821762085
1772635771820319500,7.921319580078125,1.4879844188690186,0.1406402587890625,2.550584316253662,-0.7130607962608337,-0.2351569235324859,-0.6660560369491577
1772635771840313300,7.941313232421875,1.291675686836243,-8.242097854614258,-6.410712242126465,-0.0989363491535186,0.0386158041656017,0.0929442420601844
1772635771860307500,7.961307373046875,1.4128365516662598,-16.505027770996094,-11.63471794128418,-0.1860216408967971,0.3020022213459015,-0.0580568611621856
1772635771880300800,7.98130078125,0.3734430074691772,-4.5648040771484375,-8.72610092163086,-0.0475373864173889,0.2540653645992279,-0.3518032729625702
1772635771900294000,8.0012939453125,0.2562865018844604,4.068817615509033,-6.063971042633057,0.2813627421855926,0.2857569456100464,-0.4471443593502044
1772635771940279800,8.04127978515625,3.7535696029663086,-2.20656967163086,-8.716196060180664,0.4411522448062897,0.197073757648468,-0.2593916654586792
1772635771960272600,8.061272705078125,4.013597011566162,-2.167757034301758,-9.940452575683594,0.0981374010443687,0.0561926513910293,0.1621863692998886
1772635771980265700,8.081265625,4.353876113891602,-7.499724388122559,-9.97547721862793,-0.0741689726710319,0.1195758283138275,0.1611211150884628
1772635772000258600,8.101258544921874,3.0484347343444824,-13.565558433532717,-10.582122802734377,-0.0965395048260688,0.1312937289476394,-0.0271642208099365
1772635772040244500,8.141244384765624,4.06116247177124,-6.89048957824707,-9.603617668151855,-0.2027995437383651,0.1296958327293396,-0.1912147998809814
1772635772080230700,8.181230712890626,2.107800006866455,-5.260246276855469,-8.565589904785156,-0.2949448525905609,0.2298306077718734,-0.3158506453037262
1772635772100223500,8.201223388671876,1.355704665184021,-2.408839225769043,-4.551126956939697,0.1689774245023727,0.2703106105327606,-0.3792338073253631
1772635772120216600,8.221216552734376,0.5059019327163696,-1.118570327758789,-0.594271183013916,0.5676522850990295,0.3805654048919678,-0.3214432597160339
1772635772140209400,8.24120947265625,-0.6344552040100098,0.1217174530029296,2.318701267242432,0.9836376905441284,-0.0311589576303958,-0.031691588461399
1772635772160202500,8.261202392578125,-1.720307469367981,2.517511367797852,4.050170421600342,0.7466166019439697,-0.9656614065170288,1.2849740982055664
1772635772180195300,8.2811953125,-2.4147403240203857,5.333765983581543,5.45462703704834,0.1189100444316864,-1.031175136566162,1.3153340816497805
1772635772200188400,8.3011884765625,-2.7516486644744877,7.647664546966553,7.088499069213867,0.6438186168670654,0.4639222621917724,0.7014760375022888
1772635772240174300,8.34117431640625,-1.2743468284606934,11.492406845092772,9.012508392333984,1.2693946361541748,1.5158699750900269,1.0207887887954712
1772635772260167400,8.36116748046875,-0.5851737856864929,12.041890144348145,7.017931938171387,0.9364997744560242,0.5696496963500977,0.8050729036331177
1772635772300153300,8.4011533203125,-0.96642404794693,8.174933433532715,5.278511047363281,0.3937480449676513,-0.0532631762325763,0.5382243990898132
1772635772320146200,8.421146240234375,-1.364455223083496,7.200985431671143,5.73036003112793,0.0933437198400497,-0.0945421382784843,-0.0884168744087219
1772635772340139300,8.44113916015625,-1.540907859802246,7.107367515563965,5.013227462768555,-0.3900195956230163,-0.3531348705291748,-0.5273054242134094
1772635772360132000,8.461132080078125,-1.2336981296539309,6.189908981323242,4.095303058624268,-0.5535375475883484,-0.4455464780330658,-0.5001412034034729
1772635772380125400,8.48112548828125,-1.1786997318267822,5.497560501098633,3.542808771133423,0.0022636849898844,-0.1288968920707702,0.2783001065254211
1772635772400119000,8.501119140625,-1.4332091808319092,5.441431999206543,4.059673309326172,0.2137184888124466,0.1041295081377029,0.3653853833675384
1772635772420112400,8.5211123046875,-0.9696561694145204,4.845443248748779,4.521575927734375,0.2557964026927948,0.2591253519058227,0.1187768802046775
1772635772440106000,8.54110595703125,-0.2680749893188476,2.9043540954589844,3.426460027694702,0.0973384529352188,0.272707462310791,-0.2279663980007171
1772635772460099300,8.561099365234375,-1.0292975902557373,-0.3254690170288086,2.2564456462860107,-0.1870869100093841,0.0601873882114887,-0.4127896130084991
1772635772500086300,8.601086181640625,4.353209495544434,-13.561888694763184,-13.048056602478027,-0.3985417187213897,-0.2572611272335052,-0.4442148804664612
1772635772520080000,8.621079833984375,-2.213196277618408,-5.682819366455078,-8.496986389160156,-0.4406196177005768,-0.4308990836143493,-0.3890874981880188
1772635772540073200,8.6410732421875,-2.213822364807129,0.9718017578125,-6.491187572479248,-0.3391532599925995,-0.4543348848819732,-0.2966758906841278
1772635772560066800,8.66106689453125,3.779143810272217,-3.745315551757813,-5.433666706085205,-0.1889511197805404,-0.3581948578357696,-0.1502021551132202
1772635772580060200,8.68106005859375,5.680422782897949,-5.08232307434082,-9.572413444519045,-0.0288952738046646,-0.1595232188701629,-0.0458063334226608
1772635772620047000,8.721047119140625,2.267775535583496,-3.048324584960937,-7.100330829620361,0.1085237190127372,0.0825579240918159,0.020240006968379
1772635772640040700,8.741040771484375,1.3735358715057373,-4.09653377532959,-4.58927059173584,0.1596563756465912,0.1968074291944503,0.0511326491832733
1772635772660034000,8.761033935546875,0.9517862796783448,-3.633162498474121,-4.086374759674072,0.1077247709035873,0.1494032144546508,0.0740358158946037
1772635772680027600,8.781027587890625,0.9739773273468018,-3.4841480255126958,-3.064995765686035,-0.1476721614599228,-0.1589905768632888,-0.0604537054896354
1772635772700021000,8.80102099609375,0.3572580814361572,-2.745144844055176,-1.1809720993041992,-0.2440785020589828,-0.304132729768753,-0.1211737245321273
1772635772720014600,8.8210146484375,0.1871929168701172,-0.7011394500732422,-0.9519548416137696,-0.2209090292453766,-0.3451453745365143,-0.086818978190422
1772635772740008200,8.84100830078125,0.1357519626617431,1.1196222305297852,-1.485358715057373,-0.0613858103752136,-0.0362189598381519,-0.0029294746927917
1772635772760001500,8.86100146484375,0.1472728252410888,2.834447860717773,-1.4115381240844729,0.0946752950549125,0.157392680644989,0.0428768582642078
1772635772779995100,8.8809951171875,0.3771916627883911,3.261605739593506,-0.1897745132446289,0.1822932213544845,0.2101232260465622,0.0564589649438858
1772635772799988500,8.900988525390625,0.1041523218154907,2.886459827423096,0.9050884246826172,0.1788311153650283,0.1784316450357437,0.054328441619873
1772635772819982000,8.920982177734375,-0.1167583465576171,2.295475959777832,1.2939164638519287,0.1340900510549545,0.1107874065637588,0.0029294746927917
1772635772839975400,8.940975341796875,-0.2748115062713623,1.777994155883789,1.5794682502746582,0.0701742321252822,0.1315600425004959,-0.0812263414263725
1772635772859969000,8.960968994140625,-0.5290912389755249,1.8891048431396484,1.834630012512207,0.0587226524949073,0.2031990140676498,-0.1733716428279876
1772635772879961300,8.98096142578125,-0.6702244281768799,2.4073987007141118,1.731095790863037,0.1213068813085556,0.3486074805259704,-0.2122537642717361
1772635772899953400,9.000953369140625,-0.5853986740112305,2.7443342208862305,1.297694206237793,0.21505007147789,0.4543348848819732,-0.1826926916837692
1772635772919945500,9.020945556640624,-0.3064906597137451,2.6166915893554688,0.688762903213501,0.2720416784286499,0.4854938387870788,-0.1246358305215835
1772635772939937500,9.0409375,-0.0956428050994873,2.516195297241211,0.0953669548034668,0.282161682844162,0.4593949019908905,-0.0785631835460662
1772635772979921700,9.080921630859375,0.2833906412124634,1.4540300369262695,-0.2599010467529297,0.2435458749532699,0.3944138288497925,-0.0599210746586322
1772635772999913700,9.100913818359375,0.2286568880081176,0.2648267745971679,-0.2922573089599609,0.2174469232559204,0.3177148401737213,-0.0263652727007865
1772635773019905500,9.120905517578125,0.1184680461883544,-0.7497291564941406,-0.1925430297851562,0.1466068923473358,0.246342197060585,0.0005326317623257
1772635773059889700,9.1608896484375,0.030750036239624,-0.0165767669677734,0.3056654930114746,0.110920563340187,0.2527337670326233,-0.0165115855634212
1772635773079881700,9.1808818359375,0.2340710163116455,0.7784638404846191,-0.0150909423828125,0.1370195150375366,0.2428800761699676,-0.1166463568806648
1772635773099873800,9.200873779296876,0.362679123878479,0.9800815582275392,-0.324225902557373,0.1162468791007995,0.162452682852745,-0.1235705688595771
1772635773139857700,9.240857666015623,0.3137730360031128,0.4781875610351562,-0.6138958930969238,0.0864195004105568,0.1182442530989646,-0.1129179298877716
1772635773159849700,9.260849609375,0.1451853513717651,0.4023218154907226,-0.3273401260375976,0.0707068666815757,0.0743021294474601,-0.0932105556130409
1772635773199833900,9.300833740234374,0.1599829196929931,0.6607828140258789,0.141918659210205,0.0720384493470192,0.0364852771162986,-0.0569915995001792
1772635773219826000,9.320825927734376,0.2777276039123535,0.7323026657104492,-0.3279910087585449,0.0712395012378692,0.048469491302967,-0.0388821177184581
1772635773259809800,9.360809814453123,0.3548847436904907,0.4402379989624023,-0.9201087951660156,0.0661794990301132,0.1134505644440651,-0.0982705578207969
1772635773279801900,9.3808017578125,0.5598487854003906,0.5563755035400391,-1.003298282623291,0.0818921327590942,0.13209268450737,-0.1051947697997093
1772635773299794000,9.4007939453125,0.6180877685546875,0.7793712615966797,-0.8986907005310059,0.0757668688893318,0.1211737245321273,-0.1054610908031463
1772635773339778000,9.440778076171876,0.4226241111755371,0.9691429138183594,-0.8003764152526855,0.0936100333929061,0.1155810952186584,-0.0378168560564518
1772635773379763000,9.480762939453124,0.4685826301574707,0.2510929107666015,-1.2496824264526367,0.0691089704632759,0.0950747728347778,-0.0175768472254276
1772635773399756300,9.50075634765625,0.3472433090209961,0.434544563293457,-1.245163917541504,0.0475373864173889,0.0729705542325973,-0.0210389550775289
1772635773419749600,9.52074951171875,0.3462916612625122,0.8224897384643555,-0.8665866851806641,0.0339552760124206,0.065247394144535,-0.0490021221339702
1772635773439743200,9.5407431640625,0.5097454786300659,1.0557270050048828,-0.6285934448242188,-0.0017310532275587,0.0399473831057548,-0.0396810658276081
1772635773459736600,9.560736572265624,0.3226282596588135,0.980792999267578,-0.6629762649536133,-0.0113184247165918,0.0034621064551174,0.0125168468803167
1772635773479730200,9.580730224609376,0.12863290309906,0.646392822265625,-0.728705883026123,-0.0134489517658948,-0.0130494777113199,0.0141147412359714
1772635773519716900,9.620716796875,0.0069398880004882,0.30224609375,-0.698397159576416,-0.0147805316373705,-0.0210389550775289,0.0079894764348864
1772635773539710500,9.64071044921875,0.0929275751113891,0.4392719268798828,-0.6725149154663086,-0.0270310621708631,-0.0378168560564518,0.0039947382174432
1772635773559703800,9.660703857421876,0.0901325941085815,0.6147861480712891,-0.6186656951904297,-0.0387489609420299,-0.0370179079473018,0.011185267008841
1772635773599690800,9.700690673828126,0.1610054969787597,0.7727365493774414,-0.8113651275634766,-0.0480700172483921,-0.0239684283733367,0.0114515833556652
1772635773619684400,9.720684326171876,0.1488035917282104,0.6282262802124023,-0.8285541534423828,-0.0414121188223362,-0.0250336937606334,-0.0007989476434886
1772635773639677700,9.740677734375,0.1041010618209838,0.5800924301147461,-0.9575748443603516,-0.0318247489631176,-0.0151800047606229,0.0093210563063621
1772635773659671000,9.760671142578126,0.0474627017974853,0.6123170852661133,-0.9926390647888184,-0.0307594835758209,-0.0087884236127138,0.0069242129102349
1772635773679664600,9.78066455078125,0.1362373828887939,0.6920394897460938,-0.8398418426513672,-0.0110521093010902,0.0090547399595379,-0.0077231605537235
1772635773699658000,9.800657958984376,0.2052948474884033,0.8357958793640137,-0.8069396018981934,-0.0110521093010902,0.0010652635246515,-0.0101200034841895
1772635773719651600,9.820651611328126,0.1508321762084961,0.7630386352539062,-0.8663530349731445,-0.0185089539736509,-0.0071905287913978,-0.0031957905739545
1772635773759638300,9.86063818359375,0.1529874801635742,0.5918378829956055,-0.9337568283081056,-0.0145142152905464,-0.0109189506620168,-0.006657897029072
1772635773779631900,9.8806318359375,0.1486351490020752,0.6625070571899414,-0.8736486434936523,-0.0155794788151979,-0.019441058859229,-0.0090547399595379
1772635773799625200,9.900625244140626,0.1737897396087646,0.6379594802856445,-0.8193235397338867,-0.013715268112719,-0.0237021129578351,-0.0055926335044205
1772635773819618800,9.920618896484376,0.1195154190063476,0.5368671417236328,-0.8557853698730469,-0.011584741063416,-0.0207726396620273,-0.0002663158811628
1772635773839612200,9.940612060546876,0.1280118227005005,0.5502424240112305,-0.8045849800109863,-0.0081226341426372,-0.0055926335044205,0.0005326317623257
1772635773859605800,9.960605712890626,0.1393866539001464,0.5882902145385742,-0.6545090675354004,-0.0051931599155068,0.0053263176232576,-0.0042610540986061
1772635773899592400,10.000592529296876,0.1265621185302734,0.5075578689575195,-0.7002396583557129,0.0022636849898844,0.0007989476434886,-0.0119842141866683
1772635773919586000,10.0205859375,0.1029824018478393,0.4353446960449219,-0.696601390838623,-0.0097205294296145,0.0079894764348864,-0.0159789528697729
1772635773939579600,10.04057958984375,0.1544325351715088,0.515869140625,-0.6947879791259766,-0.0051931599155068,0.0141147412359714,-0.0079894764348864
1772635773959573000,10.060572998046876,0.2223149538040161,0.6310787200927734,-0.6091585159301758,0.0193079020828008,0.0093210563063621,0.0079894764348864
1772635773979566600,10.080566650390624,0.1947369575500488,0.6498699188232422,-0.6415500640869141,0.0352868549525737,0.006657897029072,0.0109189506620168
1772635773999560200,10.100560302734374,0.1636894941329956,0.5682268142700195,-0.7076101303100586,0.1141163557767868,0.0258326400071382,0.0058589493855834
1772635774019553500,10.120553466796874,0.1407872438430786,0.4729576110839844,-0.7928085327148438,0.0752342343330383,0.0077231605537235,-0.0053263176232576
1772635774039547100,10.140547119140624,0.1558897495269775,0.4060993194580078,-0.7648649215698242,-0.0030626326333731,-0.0127831622958183,-0.0074568446725606
1772635774059540500,10.16054052734375,0.2025911808013916,0.4729633331298828,-0.6442584991455078,-0.050999492406845,-0.0135821104049682,0.0031957905739545
1772635774079534000,10.1805341796875,0.141131043434143,0.6249561309814453,-0.5516815185546875,-0.0262321140617132,0.0018642111681401,0.0023968429304659
1772635774099527700,10.200527587890624,0.141619324684143,0.5716094970703125,-0.5789413452148438,0.0185089539736509,0.0181094799190759,0.0071905287913978
1772635774119521000,10.22052099609375,0.1330091953277588,0.437748908996582,-0.6738076210021973,0.0280963256955146,0.025300009176135,0.0039947382174432
1772635774139514600,10.2405146484375,0.1233956813812255,0.3706588745117187,-0.7163009643554688,,,
1772635774159508000,10.260508056640624,0.1140949726104736,0.4431972503662109,-0.6367478370666504,,,
1772635774199495200,10.3004951171875,0.1553164720535278,0.6436653137207031,-0.5396819114685059,,,
1772635774219488500,10.320488525390624,0.1723641157150268,0.5319309234619141,-0.5992865562438965,,,
1772635774239482000,10.340482177734376,0.1832543611526489,0.4008798599243164,-0.7340373992919922,,,
1772635774259475500,10.360475341796874,0.122637391090393,0.5261526107788086,-0.7488069534301758,,,
1772635774279469000,10.380468994140625,0.1085938215255737,0.5360555648803711,-0.6930947303771973,,,
1772635774299462400,10.40046240234375,0.1651351451873779,0.3527736663818359,-0.6878399848937988,,,
1772635774319456000,10.4204560546875,0.1292909383773803,0.5054655075073242,-0.7207155227661133,,,
1772635774339449600,10.44044970703125,0.0939081907272338,0.6253385543823242,-0.6225581169128418,,,
1772635774359443000,10.46044287109375,0.0916583538055419,0.6340370178222656,-0.5911736488342285,,,
1772635774379436000,10.48043603515625,0.0794463157653808,0.5121965408325195,-0.5878190994262695,,,
