time,seconds_elapsed,accel_z,accel_y,accel_x,gyro_x,gyro_y,gyro_z
1.7726357918533847e+18,0.307384765625,-0.0296003818511962,0.1411571502685547,0.1558423042297363,0.0214384291321039,0.020240006968379,0.0274305362254381
1.772635791873377e+18,0.327376953125,-0.0232000350952148,0.1142120361328125,0.1418776512145996,0.0145142152905464,0.0151800047606229,0.0149136893451213
1.7726357918933665e+18,0.347366455078125,-0.0245840549468994,0.0475702285766601,0.1152935028076171,0.0145142152905464,0.0117178987711668,0.0141147412359714
1.772635791913356e+18,0.36735595703125,-0.0173159837722778,-0.0231990814208984,0.1400389671325683,0.0238352715969085,-0.0031957905739545,0.0226368494331836
1.7726357919333458e+18,0.387345703125,-0.0437978506088256,0.0310573577880859,0.1262183189392089,0.0264984294772148,-0.0010652635246515,0.0101200034841895
1.7726357919533353e+18,0.407335205078125,0.0082377195358276,0.1084861755371093,0.0265092849731445,0.0211721118539571,0.0,-0.0095873717218637
1.7726357919733248e+18,0.42732470703125,0.0953164100646972,0.1335659027099609,-0.0534019470214843,0.0225036926567554,0.0071905287913978,0.0090547399595379
1.7726357919933143e+18,0.447314208984375,0.060951828956604,0.1490240097045898,-0.0714049339294433,0.0270310621708631,0.0167779009789228,0.032490536570549
1.7726357920133038e+18,0.4673037109375,0.0240172147750854,0.0462074279785156,-0.0101375579833984,0.0280963256955146,0.0340884327888488,0.0367515906691551
1.7726357920332936e+18,0.48729345703125,-0.0419248342514038,0.0574197769165039,-0.0730805397033691,0.0414121188223362,0.0439421199262142,0.023169482126832
1.772635792053283e+18,0.507282958984375,-0.0293723344802856,0.176736831665039,-0.094001293182373,0.0475373864173889,0.0572579130530357,0.020240006968379
1.7726357920732726e+18,0.5272724609375,0.022152304649353,0.2540340423583984,-0.1016626358032226,0.032091062515974,0.0596547573804855,0.0268979035317897
1.772635792093262e+18,0.547261962890625,0.0561468601226806,0.2136058807373047,-0.1028647422790527,0.0163784269243478,0.0327568538486957,0.032490536570549
1.7726357921132518e+18,0.567251953125,0.0189751386642456,0.1733989715576172,-0.0515565872192382,0.0203731656074523,0.020240006968379,0.0306263267993927
1.7726357921332413e+18,0.587241455078125,-0.0457340478897094,0.1167402267456054,0.0698137283325195,0.0302268527448177,0.0093210563063621,0.0183757953345775
1.7726357921532308e+18,0.60723095703125,-0.0577394962310791,0.0638799667358398,0.2130999565124511,0.0187752693891525,-0.0053263176232576,0.0311589576303958
1.7726357921732204e+18,0.627220458984375,-0.0645194053649902,-0.0030641555786132,0.2166800498962402,0.0006657897029072,-0.0138484258204698,0.0468715950846672
1.7726357921932099e+18,0.6472099609375,-0.0369479656219482,-0.0293607711791992,0.1879105567932129,-0.0102531611919403,-0.0199736915528774,0.0396810658276081
1.7726357922131996e+18,0.66719970703125,0.001034140586853,0.0238504409790039,0.2171168327331543,-0.0254331659525632,-0.0343547500669956,0.0234357975423336
1.772635792233189e+18,0.687189208984375,0.0608958005905151,0.0507612228393554,0.1901535987854004,-0.0366184338927269,-0.0487358048558235,0.0327568538486957
1.7726357922531786e+18,0.7071787109375,0.1078872680664062,0.0269784927368164,0.0740332603454589,-0.0411458052694797,-0.0490021221339702,0.0559263341128826
1.7726357922731681e+18,0.727168212890625,0.0997892618179321,0.0244979858398437,-0.0162816047668457,-0.0382163301110267,-0.0362189598381519,0.065247394144535
1.7726357922931576e+18,0.74715771484375,0.130620002746582,0.0909757614135742,-0.0611004829406738,-0.0336889587342739,-0.0266315881162881,0.0487358048558235
1.7726357923131474e+18,0.7671474609375,0.1898418664932251,0.1580171585083007,-0.0719118118286132,-0.0267647467553615,-0.0063915811479091,0.0239684283733367
1.772635792333137e+18,0.787136962890625,0.1405673027038574,0.1930389404296875,-0.0656404495239257,-0.0214384291321039,0.0215715859085321,-0.0061252652667462
1.7726357923531264e+18,0.80712646484375,0.1186680793762207,0.2612237930297851,-0.1201109886169433,-0.0171773750334978,0.0458063334226608,-0.0300936941057443
1.772635792373117e+18,0.827116943359375,0.1814234256744384,0.3025999069213867,-0.0924186706542968,-0.022770008072257,0.0524642281234264,-0.0476705431938171
1.77263579239311e+18,0.847110107421875,0.1872466802597046,0.287973403930664,-0.0842294692993164,-0.0347542241215705,0.0591221265494823,-0.0671116039156913
1.772635792413103e+18,0.86710302734375,0.1123321056365966,0.2189474105834961,-0.1795997619628906,-0.0264984294772148,0.0655137076973915,-0.0857537165284156
1.7726357924330962e+18,0.88709619140625,0.1223660707473754,0.1699075698852539,-0.3140006065368652,0.0057257916778326,0.0639158114790916,-0.1051947697997093
1.7726357924530895e+18,0.907089599609375,0.2625710964202881,0.2108592987060547,-0.2818360328674316,0.0081226341426372,0.0458063334226608,-0.1139831990003585
1.7726357924730826e+18,0.92708251953125,0.1989539861679077,0.2639141082763672,-0.1818666458129882,-0.0217047445476055,0.045540016144514,-0.0966726616024971
1.7726357924930757e+18,0.94707568359375,0.0643074512481689,0.3505172729492187,-0.1765103340148925,-0.0368847511708736,0.0359526425600051,-0.0599210746586322
1.7726357925130688e+18,0.96706884765625,0.0820001363754272,0.215341567993164,-0.1263775825500488,-0.0238352715969085,0.0063915811479091,-0.0343547500669956
1.7726357925330621e+18,0.987062255859375,0.056807518005371,0.0827112197875976,-0.0832581520080566,-0.0214384291321039,-0.0245010610669851,-0.023169482126832
1.7726357925530552e+18,1.00705517578125,-0.0189735889434814,0.0870819091796875,-0.0172414779663085,-0.0432763323187828,-0.0721716061234474,-0.0210389550775289
1.7726357925730483e+18,1.02704833984375,-0.0400683879852294,0.1738433837890625,0.1146559715270996,-0.0446079112589359,-0.1187768802046775,-0.0245010610669851
1.7726357925930414e+18,1.04704150390625,-0.0103299617767333,0.1860246658325195,0.1788277626037597,-0.0611194930970668,-0.1547295302152633,-0.0407463312149047
1.7726357926130348e+18,1.06703466796875,-0.0180573463439941,0.0330228805541992,0.1548972129821777,-0.0957405567169189,-0.1688442677259445,-0.0247673764824867
1.7726357926330278e+18,1.08702783203125,-0.0401798486709594,-0.110264778137207,0.146120548248291,-0.1055942475795745,-0.1968074291944503,-0.0125168468803167
1.772635792653021e+18,1.10702099609375,-0.0506236553192138,-0.100168228149414,0.1366810798645019,-0.106126882135868,-0.197073757648468,-0.0407463312149047
1.772635792673014e+18,1.127013916015625,-0.0362565517425537,-0.0099592208862304,0.1478867530822754,-0.1149153038859367,-0.1784316450357437,-0.070041075348854
1.7726357926930074e+18,1.14700732421875,-0.044676661491394,0.0787582397460937,0.158233642578125,-0.1234374120831489,-0.1821600645780563,-0.0681768655776977
1.7726357927130004e+18,1.16700048828125,0.0078227519989013,0.0710220336914062,0.1837072372436523,-0.1034637168049812,-0.1802958548069,-0.0410126447677612
1.7726357927329935e+18,1.18699365234375,-0.0113948583602905,0.0499505996704101,0.159489631652832,-0.0776310786604881,-0.1707084774971008,-0.0290284305810928
1.7726357927529866e+18,1.206986572265625,-0.024717092514038,0.0019893646240234,0.1131396293640136,-0.0691089704632759,-0.1430116295814514,-0.0314252749085426
1.77263579277298e+18,1.22697998046875,-0.033605933189392,-0.0268011093139648,0.1337361335754394,-0.0603205487132072,-0.1091895103454589,-0.0394147485494613
1.772635792792973e+18,1.24697314453125,-0.0348087549209594,0.0291700363159179,0.1516332626342773,-0.0448742248117923,-0.0764326602220535,-0.0303600095212459
1.7726357928129661e+18,1.266966064453125,-0.0037261247634887,0.0657720565795898,0.083315372467041,-0.0339552760124206,-0.0476705431938171,-0.0125168468803167
1.7726357928329592e+18,1.286959228515625,0.0171219110488891,0.1209049224853515,-0.0122051239013671,-0.0161121115088462,-0.0332894846796989,-0.0162452682852745
1.7726357928529526e+18,1.30695263671875,0.0670337677001953,0.1528949737548828,-0.0280900001525878,-0.0059921070933341,-0.0093210563063621,-0.0335558019578456
1.7726357928729462e+18,1.3269462890625,0.0614049434661865,0.1428823471069336,-0.03123140335083,0.0006657897029072,0.0162452682852745,-0.0511326491832733
1.7726357928929413e+18,1.34694140625,-1.59740447998e-05,0.105290412902832,0.0165262222290039,0.0166447423398494,0.0292947478592395,-0.049268439412117
1.7726357929129367e+18,1.366936767578125,-0.0007749795913696,0.012455940246582,0.0977077484130859,0.0339552760124206,0.0442084372043609,-0.0410126447677612
1.7726357929329318e+18,1.386931884765625,-0.0949925184249877,-0.0485410690307617,0.1227345466613769,0.0502005442976951,0.0609863363206386,-0.0431431718170642
1.772635792952927e+18,1.406927001953125,-0.1011059284210205,-0.0370521545410156,0.2036151885986328,0.0544615983963012,0.0631168633699417,-0.0402136966586113
1.7726357929729224e+18,1.42692236328125,-0.0891040563583374,0.0460519790649414,0.3224630355834961,0.0427436977624893,0.0577905476093292,-0.0487358048558235
1.7726357929929175e+18,1.44691748046875,-0.0670193433761596,0.0907230377197265,0.3952922821044922,0.0334226414561271,0.0535294935107231,-0.0564589649438858
1.772635793012913e+18,1.466912841796875,-0.080689787864685,-0.0277566909790039,0.3779721260070801,0.0328900106251239,0.0612526535987854,-0.0716389715671539
1.772635793032908e+18,1.486907958984375,-0.123758316040039,-0.2185230255126953,0.3851146697998047,0.0472710691392421,0.0785631835460662,-0.1012000367045402
1.7726357930529034e+18,1.5069033203125,-0.0891233682632446,-0.3415784835815429,0.4524459838867187,0.0502005442976951,0.1030642464756965,-0.1246358305215835
1.7726357930728986e+18,1.526898681640625,0.0427330732345581,-0.377716064453125,0.4493312835693359,0.0475373864173889,0.1326253116130828,-0.1358211040496826
1.7726357930928937e+18,1.546893798828125,-0.0738217830657959,-0.1935338973999023,0.6549975872039795,0.048868965357542,0.1699095368385315,-0.1368863582611084
1.772635793112889e+18,1.56688916015625,-0.2193419933319091,0.0531015396118164,1.0445425510406494,0.0621847584843635,0.1914811134338379,-0.1312937289476394
1.7726357931328842e+18,1.58688427734375,-0.2845224738121032,0.4677610397338867,1.3389899730682373,0.078430026769638,0.1978726983070373,-0.1291632056236267
1.7726357931528796e+18,1.606879638671875,-0.5029504299163818,1.1812520027160645,1.5525562763214111,0.0872184485197067,0.2138516455888748,-0.1283642500638961
1.7726357931728748e+18,1.626874755859375,-0.935843825340271,2.142867088317871,1.9699184894561768,0.1029310896992683,0.2436790317296981,-0.1488705724477768
1.7726357931928701e+18,1.6468701171875,-0.5062786340713501,3.2533984184265137,2.280433654785156,0.1796300560235977,0.2972085177898407,-0.1733716428279876
1.7726357932128653e+18,1.666865234375,0.009995698928833,4.668972492218018,1.9524545669555664,0.230762705206871,0.3366232812404632,-0.1872200667858123
1.7726357932328604e+18,1.6868603515625,-0.0617778301239013,5.896872520446777,1.4048614501953125,0.2462090253829956,0.3257043361663818,-0.2037316560745239
1.7726357932528558e+18,1.706855712890625,0.0670381784439086,5.85313606262207,0.9149165153503418,0.2712427377700805,0.2958769500255584,-0.222373753786087
1.772635793272851e+18,1.726850830078125,-0.0278162956237792,4.62288236618042,-0.0157670974731445,0.2576606273651123,0.2450106143951416,-0.2479400783777237
1.7726357932928463e+18,1.746846435546875,0.1000663042068481,2.8363308906555176,-1.1808342933654783,0.1050616130232811,0.1747032105922699,-0.2737727165222168
1.7726357933128415e+18,1.766841552734375,-0.2624144554138183,1.963902473449707,-1.6753201484680176,0.03715106472373,0.1267663538455963,-0.2902843058109283
1.7726357933328369e+18,1.7868369140625,0.1525931358337402,1.8332748413085935,-1.112722396850586,0.1412805765867233,0.1808284819126129,-0.1520663648843765
1.772635793352832e+18,1.80683203125,0.2848725318908691,1.7082433700561523,-0.488016128540039,0.2936132550239563,0.2130527049303054,0.1760347932577133
1.772635793372827e+18,1.826826904296875,0.9794460535049438,1.1898880004882812,-0.8297638893127441,0.3737743496894836,0.0673779174685478,0.4996086061000824
1.772635793392821e+18,1.846821044921875,1.2655129432678225,-0.4999876022338867,-1.719712257385254,0.4174501299858093,-0.0372842252254486,0.7142592072486877
1.7726357934128148e+18,1.86681494140625,0.8341493606567383,-2.568349838256836,-2.341376781463623,0.4174501299858093,-0.2367548197507858,0.7643265724182129
1.772635793432809e+18,1.88680908203125,0.7847046852111816,-3.2409911155700684,-3.053953170776367,0.257127970457077,-0.3459443151950836,0.7006770968437195
1.7726357934528028e+18,1.906802734375,1.3954899311065674,-3.48412561416626,-4.226370334625244,0.1881521642208099,-0.3922832906246185,0.6135917901992798
1.772635793472797e+18,1.926796875,1.8416831493377688,-4.9136061668396,-5.182563781738281,0.1711079478263855,-0.4093275070190429,0.6407560110092163
1.7726357934927908e+18,1.946790771484375,2.1193959712982178,-6.434036731719971,-6.315773963928223,0.3159838020801544,-0.4151864647865295,0.8194539546966553
1.772635793512785e+18,1.966784912109375,2.2105181217193604,-7.445113182067871,-6.834254741668701,0.4824312329292297,-0.4055990874767303,0.9294424057006836
1.7726357935527729e+18,2.00677294921875,2.4466445446014404,-8.625146865844727,-6.6594061851501465,0.4733764827251434,-0.3677822351455688,0.8258455395698547
1.7726357935727667e+18,2.0267666015625,2.239697933197021,-8.991477012634277,-6.754083633422852,0.4238417148590088,-0.2106558680534362,0.6900244355201721
1.7726357935927608e+18,2.0467607421875,2.0312211513519287,-8.513951301574707,-5.978620529174805,0.4656533300876617,-0.1475390046834945,0.7273086905479431
1.7726357936127547e+18,2.066754638671875,1.6592564582824707,-7.044430732727051,-4.117284774780273,0.3322290480136871,-0.1952095478773117,0.7305044531822205
1.7726357936327488e+18,2.086748779296875,1.0123318433761597,-5.209566593170166,-1.5042839050292969,0.1737711131572723,-0.1930790096521377,0.608798086643219
1.7726357936527427e+18,2.10674267578125,0.0505474805831909,-3.3103718757629395,0.8572640419006348,-0.0083889504894614,-0.1544632166624069,0.3747064471244812
1.7726357936727368e+18,2.12673681640625,-1.0508652925491333,-0.999140739440918,2.64188003540039,-0.0608531795442104,-0.0583231784403324,0.1922800689935684
1.7726357936927306e+18,2.146730712890625,-1.9844200611114504,1.7771844863891602,3.81001615524292,-0.165781632065773,-0.0466052778065204,0.048469491302967
1.7726357937127247e+18,2.166724853515625,-2.143538475036621,4.78192138671875,4.683155059814453,-0.3500722348690033,0.035420011729002,-0.1139831990003585
1.7726357937327186e+18,2.186718505859375,-2.058257818222046,7.655009746551514,5.762546539306641,-0.5969470739364624,0.1163800433278083,-0.3866906464099884
1.7726357937527127e+18,2.206712646484375,-1.5767970085144043,9.86529541015625,6.755487442016602,-0.7487471103668213,0.223439022898674,-0.6785728931427002
1.7726357937727066e+18,2.22670654296875,-1.299095630645752,10.87860107421875,7.279415130615234,-0.7982818484306335,0.2921485304832458,-0.8828371167182922
1.7726357937927007e+18,2.24670068359375,-1.217146635055542,10.70321559906006,6.374384880065918,-0.8001460433006287,0.2609895765781402,-0.9981518983840942
1.7726357938126945e+18,2.266694580078125,-1.5122294425964355,9.514616012573242,5.205264568328857,-0.7111965417861938,0.1440768986940384,-1.0000160932540894
1.7726357938326886e+18,2.286688720703125,-1.681429386138916,8.102545738220215,5.502805709838867,-0.5490102171897888,-0.0221042186021804,-0.891359269618988
1.7726357938526825e+18,2.3066826171875,-1.8343141078948972,7.57774543762207,6.361171722412109,-0.3436806499958038,-0.1214400380849838,-0.6732465624809265
1.7726357938726766e+18,2.326676513671875,-1.959815263748169,7.635339260101318,6.310238361358643,-0.3066627383232116,-0.1432779431343078,-0.4548675119876861
1.7726357938926705e+18,2.34667041015625,-1.7614905834197998,7.619518280029297,5.149055480957031,-0.4051996171474457,-0.0766989737749099,-0.3821632862091064
1.7726357939126643e+18,2.366664306640625,-1.3388727903366089,7.320164680480957,3.4574079513549805,-0.4787027835845947,0.141680046916008,-0.5597959756851196
1.7726357939326582e+18,2.386658203125,-0.8027852773666382,5.944286346435547,2.637099266052246,-0.3335606455802917,0.2330264002084732,-0.7273086905479431
1.772635793952652e+18,2.406652099609375,0.3775390386581421,2.933226585388184,2.6714978218078613,-0.0344879068434238,0.1637842655181884,-0.5920202136039734
1.7726357939726461e+18,2.426646240234375,0.1450419425964355,1.246263027191162,2.2521629333496094,0.205462709069252,0.0023968429304659,-0.2628537714481354
1.77263579399264e+18,2.446639892578125,-0.6316286325454712,0.6844077110290527,1.6448636054992676,0.2874879837036133,-0.0854873955249786,0.081758975982666
1.7726357940126339e+18,2.4666337890625,0.2830474376678467,-1.367815017700195,0.649787425994873,0.2496711313724517,-0.0340884327888488,0.331563264131546
1.7726357940326277e+18,2.486627685546875,2.568317174911499,-5.838781356811523,-2.1973133087158203,0.1263668835163116,0.0575242303311824,0.4364917278289795
1.7726357940526216e+18,2.50662158203125,2.279646873474121,-7.00958251953125,-7.719090938568115,0.0840226635336875,0.3086601197719574,0.3675159215927124
1.7726357940726157e+18,2.52661572265625,-0.0006587505340576,-2.288865089416504,-9.845685958862305,0.1316931992769241,0.5044022798538208,0.0548610724508762
1.7726357940926095e+18,2.546609619140625,0.6879860162734985,-2.474036693572998,-4.6250319480896,0.2374206036329269,0.4434159398078918,-0.4426169991493225
1.7726357941126034e+18,2.566603271484375,3.7012860774993896,-3.523488998413086,-3.601898670196533,0.2816290557384491,0.4348938465118408,-0.6993455290794373
1.7726357941325972e+18,2.58659716796875,3.200774908065796,-2.69571304321289,-7.966716766357422,0.1439437270164489,0.1019989848136901,-0.3864243328571319
1.772635794152591e+18,2.606591064453125,2.3355934619903564,-2.8612217903137207,-8.190980911254883,0.0565921254456043,-0.011185267008841,0.2439453452825546
1.7726357941725852e+18,2.626585205078125,2.7422001361846924,-5.6202778816223145,-6.27928352355957,0.3189132809638977,-0.1366200447082519,0.954209804534912
1.772635794192579e+18,2.6465791015625,2.633063554763794,-9.507420539855955,-7.143593788146973,0.3996069729328155,-0.7499455213546753,1.5707310438156128
1.772635794212573e+18,2.666572998046875,2.760295867919922,-9.851686477661133,-7.563269138336182,0.882703959941864,0.1129179298877716,2.058089017868042
1.7726357942525606e+18,2.706560546875,3.2188305854797363,-5.24387264251709,-6.7353196144104,0.9479513764381408,0.5645896792411804,2.114814519882202
1.7726357942725548e+18,2.7265546875,3.2355587482452397,-5.149359703063965,-6.5424981117248535,0.8667250275611877,0.1430116295814514,1.6607458591461182
1.7726357942925486e+18,2.746548583984375,2.355010509490967,-3.692331790924072,-4.617157459259033,0.756470263004303,-0.3177148401737213,1.1667299270629885
1.7726357943125425e+18,2.76654248046875,1.0544086694717407,-2.314137458801269,-1.294217586517334,0.2222405970096588,-0.2306295484304428,0.5123917460441589
1.7726357943325363e+18,2.786536376953125,-0.4826452732086181,-1.1487860679626465,1.2977333068847656,-0.0707068666815757,-0.0055926335044205,-0.1920137554407119
1.7726357943525302e+18,2.8065302734375,-1.7637966871261597,0.6138591766357422,2.7092273235321045,-0.1114531978964805,0.1379516273736953,-0.3848264515399933
1.772635794372524e+18,2.82652392578125,-1.8741462230682373,2.694129943847656,3.862383365631104,0.0821584463119506,0.164583221077919,-0.224504292011261
1.7726357943925166e+18,2.8465166015625,-2.2008631229400635,4.710172653198242,5.222172737121582,0.1980058550834655,0.3126548528671264,0.1185105666518211
1.7726357944125092e+18,2.86650927734375,-2.64092755317688,6.978280544281006,6.287461280822754,0.0869521349668502,0.3736411929130554,0.1009337157011032
1.7726357944325018e+18,2.886501708984375,-2.730613470077514,8.918834686279297,7.145133018493652,-0.2206427007913589,0.2540653645992279,-0.375771701335907
1.7726357944524946e+18,2.90649462890625,-2.035264253616333,10.22942352294922,8.102787971496582,-0.5697828531265259,0.1419463604688644,-0.9030771255493164
1.7726357944724872e+18,2.926487060546875,-1.1196444034576416,10.067304611206056,8.433816909790039,-0.8997482061386108,-0.0170442163944244,-1.1992204189300537
1.7726357944924797e+18,2.946479736328125,-1.6090373992919922,9.012051582336426,7.472991943359375,-1.075516700744629,-0.1451421529054641,-1.331845760345459
1.7726357945124723e+18,2.966472412109375,-1.8969922065734863,7.972376823425293,6.467761039733887,-1.0145303010940552,-0.1459411084651947,-1.2564783096313477
1.772635794532465e+18,2.98646484375,-1.7693917751312256,7.11168909072876,5.860002517700195,-0.8299734592437744,-0.258060097694397,-0.9384971857070924
1.7726357945724503e+18,3.0264501953125,-1.3124884366989136,6.588901519775391,4.033227443695068,-0.6009417772293091,-0.4042675197124481,-0.5265064835548401
1.772635794592443e+18,3.04644287109375,-1.6886637210845947,5.87601375579834,2.8574228286743164,-0.4233090877532959,-0.4428833127021789,-0.1810947954654693
1.7726357946124355e+18,3.066435546875,-0.9066283702850342,2.7823519706726074,2.6853535175323486,-0.3463438153266907,-0.1523326784372329,-0.0575242303311824
1.772635794632428e+18,3.086427978515625,0.1627696752548217,-0.5235710144042969,2.8700108528137207,-0.2302300781011581,0.2743053436279297,-0.1541968882083892
1.7726357946524209e+18,3.1064208984375,0.5688401460647583,-2.6510047912597656,2.5547337532043457,-0.0059921070933341,0.3890874981880188,-0.3371559083461761
1.7726357946724134e+18,3.126413330078125,1.2887941598892212,-4.755329132080078,-1.125200271606445,0.1215732023119926,0.3004043102264404,-0.3038664162158966
1.772635794692406e+18,3.146406005859375,3.25308609008789,-3.76176643371582,-7.901939868927002,0.150068998336792,0.1648495346307754,-0.1169126704335212
1.7726357947123986e+18,3.166398681640625,1.5782113075256348,-0.5955181121826172,-7.751845359802246,0.1476721614599228,0.1126516163349151,-0.1014663502573967
1.7726357947323912e+18,3.18639111328125,0.3414897918701172,-1.626047134399414,-4.195602893829346,0.0238352715969085,0.1241032034158706,-0.2588590383529663
1.7726357947523837e+18,3.2063837890625,0.6911436319351196,-3.975198745727539,-4.685296058654785,-0.1055942475795745,0.1339568942785263,-0.3837611973285675
1.7726357947723766e+18,3.22637646484375,2.8985636234283447,-3.017204761505127,-7.799825668334961,-0.1628521680831909,0.2982738018035888,-0.4359591007232666
1.7726357947923692e+18,3.246369140625,4.747592926025391,-1.355745792388916,-8.851051330566406,-0.1149153038859367,0.2740390300750732,-0.5725791454315186
1.7726357948123617e+18,3.26636181640625,3.16523814201355,-4.201481342315674,-8.096800804138184,0.0672447606921196,0.1565937399864196,-0.7177212834358215
1.7726357948323543e+18,3.286354248046875,1.8975149393081665,-9.270914077758787,-7.736339092254639,0.3452785313129425,-0.0681768655776977,-0.4620580673217773
1.7726357948523471e+18,3.30634716796875,2.1172337532043457,-10.560796737670898,-7.643347263336182,0.460326999425888,-0.3802990913391113,0.5177180767059326
1.7726357948723397e+18,3.326339599609375,1.9561209678649905,-7.932311534881592,-7.20501708984375,0.6432859897613525,-0.6013412475585938,1.981123805046081
1.7726357948923325e+18,3.34633251953125,2.205000400543213,-5.8223795890808105,-7.042910099029541,0.7886945009231567,-0.2079927027225494,2.613091468811035
1.7726357949123254e+18,3.366325439453125,2.5691511631011963,-5.562929630279541,-7.0388288497924805,0.810798704624176,0.1427453160285949,2.390984058380127
1.7726357949323182e+18,3.386318115234375,2.155713558197021,-4.564791679382324,-5.2380805015563965,0.8155924081802368,0.1046621426939964,1.9635469913482664
1.772635794952311e+18,3.40631103515625,0.2926068305969238,-3.5773744583129883,-1.5639266967773438,0.6422207355499268,-0.2258358597755432,1.3800488710403442
1.772635794972304e+18,3.426303955078125,-0.9144026637077332,-2.6673545837402344,1.4681439399719238,0.2347574532032013,-0.5150549411773682,0.7102644443511963
1.7726357949922967e+18,3.446296630859375,-1.7082641124725342,-0.827214241027832,3.105210542678833,-0.2320942878723144,-0.4340948760509491,0.0359526425600051
1.7726357950122895e+18,3.46628955078125,-2.096952438354492,2.390648365020752,4.156513690948486,-0.3564638197422027,-0.2860232591629028,-0.343813806772232
1.7726357950322826e+18,3.48628271484375,-1.7678780555725098,5.74732780456543,5.303733825683594,-0.2038648128509521,-0.2154495418071746,-0.1941442787647247
1.7726357950722683e+18,3.526268310546875,-0.9386022090911864,11.33518886566162,6.127573013305664,-0.0094542140141129,-0.0311589576303958,0.2447443008422851
1.772635795092261e+18,3.54626123046875,-0.5127010941505432,12.408699035644531,6.049835681915283,0.1021321415901184,0.2716422080993652,0.3984085619449615
1.772635795112254e+18,3.56625390625,-0.8876830339431763,11.17917251586914,5.911391258239746,-0.084288977086544,0.3472759127616882,-0.1099884584546089
1.7726357951322468e+18,3.586246826171875,-0.9771873950958252,8.686666488647461,5.454633712768555,-0.4712459444999695,0.2410158663988113,-0.9949561357498168
1.7726357951522396e+18,3.606239501953125,-0.9129641056060792,6.75017786026001,5.555724143981934,-0.8941555619239807,0.2269011288881302,-1.7526248693466189
1.7726357951722324e+18,3.626232421875,-1.4491527080535889,6.052576065063477,6.067056655883789,-1.0185251235961914,0.3203780055046081,-2.0983028411865234
1.7726357951922253e+18,3.646225341796875,-1.4629749059677124,5.998744010925293,5.898398399353027,-0.84675133228302,0.4378232955932617,-1.9523617029190063
1.772635795212218e+18,3.666218017578125,-1.034873604774475,5.824638366699219,4.695527076721191,-0.5418196320533752,0.5313001871109009,-1.3805814981460571
1.7726357952522038e+18,3.706203857421875,-0.6207869052886963,3.7410387992858887,3.9166433811187744,-0.1902827024459839,0.5052012205123901,-0.6756433844566345
1.7726357952721966e+18,3.726196533203125,-0.2134602665901184,2.1273751258850098,2.078142642974853,-0.02569948323071,0.4372906684875488,-0.1395495235919952
1.7726357952921897e+18,3.746189697265625,0.3199632167816162,0.6725254058837891,0.9994208812713624,-0.053928967565298,0.4828307032585144,0.0743021294474601
1.7726357953121825e+18,3.7661826171875,2.241264581680298,-2.0534820556640625,-0.807457447052002,-0.0866858214139938,0.5166528224945068,-0.0372842252254486
1.7726357953321754e+18,3.78617529296875,0.992289900779724,-6.754610061645508,-4.009888172149658,-0.1282310932874679,0.2016011178493499,-0.2743053436279297
1.7726357953521682e+18,3.806168212890625,1.4516299962997437,-2.2596588134765625,-8.505754470825195,-0.1085237190127372,-0.2005358636379242,-0.2950780093669891
1.7726357953921539e+18,3.84615380859375,3.5927138328552246,-3.9755783081054688,-5.02379846572876,-0.0246342197060585,-0.3962780237197876,-0.2404832392930984
1.7726357954121467e+18,3.866146728515625,3.032967567443848,-7.094385147094727,-6.233043670654297,-0.0579237043857574,-0.3531348705291748,-0.2673811316490173
1.7726357954321393e+18,3.88613916015625,1.0011605024337769,-5.1096720695495605,-8.848443984985352,-0.1796300560235977,-0.1544632166624069,-0.3408843278884887
1.772635795472125e+18,3.926125,3.145349502563477,-7.737787246704102,-6.6317524909973145,-0.181494265794754,0.1174453049898147,-0.3251716792583465
1.7726357954921178e+18,3.94611767578125,2.39040470123291,-10.776345252990724,-7.732089996337891,-0.0869521349668502,0.262054830789566,-0.2556632459163666
1.7726357955121106e+18,3.966110595703125,2.1806769371032715,-8.804025650024414,-8.644449234008789,0.0994689837098121,0.2434127181768417,-0.2593916654586792
1.7726357955321034e+18,3.986103515625,2.3855385780334477,-6.888728618621826,-7.706216335296631,0.4198469817638397,0.162452682852745,-0.0617852844297885
1.7726357955520963e+18,4.00609619140625,2.1770262718200684,-5.746416568756104,-7.150457382202148,0.4952143728733063,-0.0103863198310136,0.2423474490642547
1.772635795572089e+18,4.026089111328125,1.8350635766983032,-4.545224189758301,-5.37799072265625,0.5756417512893677,-0.1123853027820587,0.6756433844566345
1.772635795592082e+18,4.04608203125,1.206358551979065,-3.38088321685791,-2.0485734939575195,0.4171838164329529,-0.3557980060577392,1.074318289756775
1.7726357956120748e+18,4.06607470703125,-0.3836366534233093,-1.5074748992919922,0.5359282493591309,0.4757733345031738,-0.4878906905651092,1.7747290134429932
1.7726357956320676e+18,4.086067626953125,-1.267595291137695,1.2934913635253906,2.2986202239990234,0.8744481801986694,-0.0391484349966049,2.58432936668396
1.7726357956520602e+18,4.10606005859375,-1.4162094593048096,4.560077667236328,3.668428897857666,0.7695197463035583,-0.3571296036243438,2.3883209228515625
1.772635795672053e+18,4.126052978515625,-2.3800952434539795,7.404706478118896,5.175770282745361,0.5415533185005188,-0.8317044973373413,1.5238595008850098
1.7726357956920458e+18,4.1460458984375,-2.6626453399658203,9.15264129638672,6.40443229675293,0.2126532346010208,-0.6972149610519409,0.7020086646080017
1.7726357957120387e+18,4.16603857421875,-1.423333764076233,9.723052024841309,7.166752338409424,-0.0640489682555198,-0.3810980319976806,0.1139831990003585
1.7726357957320315e+18,4.186031494140625,-1.0239574909210205,9.68159294128418,7.751591682434082,-0.0834900289773941,-0.0705737099051475,-0.2942790389060974
1.7726357957520243e+18,4.2060244140625,-1.4079272747039795,9.41232681274414,7.062587738037109,-0.0182426385581493,0.1731053292751312,-0.6253097057342529
1.77263579579201e+18,4.246010009765625,-1.844255805015564,7.137324333190918,5.244806289672852,0.1125184595584869,0.4034685492515564,-0.3534011840820312
1.7726357958120028e+18,4.2660029296875,-1.355302095413208,5.860584259033203,5.607082366943359,0.0917458236217498,0.4737759530544281,-0.0684431791305542
1.7726357958319956e+18,4.28599560546875,-1.7483654022216797,6.369297981262207,5.709375381469727,-0.0003994738217443,0.4809664785861969,-0.169643223285675
1.7726357958519882e+18,4.30598828125,-1.9262173175811768,7.701824188232422,5.815302848815918,-0.3833616971969604,0.3813643455505371,-0.6708496809005737
1.7726357958719813e+18,4.325981201171875,-1.2896595001220703,7.836498260498047,5.828569412231445,-0.8057386875152588,0.1648495346307754,-1.3185299634933472
1.7726357958919744e+18,4.345974365234375,-0.5605251789093018,6.384050369262695,5.057041168212891,-1.0571409463882446,0.0806937143206596,-1.703356385231018
1.7726357959119677e+18,4.3659677734375,0.5667517185211182,3.341402053833008,3.92700719833374,-1.032373547554016,0.0521979108452796,-1.638641595840454
1.772635795931961e+18,4.385961181640625,-0.8711181282997131,-0.2452983856201172,3.154059886932373,-0.6725807785987854,-0.034621063619852,-1.0325067043304443
1.7726357959519544e+18,4.405954345703125,-1.2945547103881836,-1.649179458618164,0.6148803234100342,-0.3620564341545105,-0.1222389861941337,-0.1789642721414566
1.7726357959719478e+18,4.42594775390625,1.937849521636963,-1.7881402969360352,-4.863689422607422,-0.3021353781223297,-0.0900147706270217,0.3299653828144073
1.772635795991941e+18,4.445941162109375,6.142612934112549,-4.561312675476074,-9.664045333862305,-0.2371542900800705,-0.0343547500669956,0.2205095440149307
1.7726357960119342e+18,4.465934326171875,2.758274555206299,-6.796099662780762,-9.311264038085938,-0.0757668688893318,0.0436758026480674,-0.2607232332229614
1.7726357960319276e+18,4.485927490234375,-0.6751806139945984,-5.901268482208252,-5.553560733795166,0.1271658390760421,0.0761663392186164,-0.4460791051387787
1.7726357960719142e+18,4.525914306640625,4.305290222167969,-2.1275205612182617,-7.1594085693359375,0.204397439956665,-0.0213052704930305,-0.1382179409265518
1.7726357960919076e+18,4.545907470703125,4.181277275085449,-1.877790451049805,-11.787193298339844,0.0616521276533603,-0.2338253408670425,-0.1733716428279876
1.7726357961119007e+18,4.565900634765625,2.9827113151550293,-5.8924102783203125,-10.915006637573242,-0.09014792740345,-0.2506032586097717,-0.1350221484899521
1.772635796131894e+18,4.58589404296875,2.494849681854248,-8.778440475463867,-10.678924560546877,-0.2275669276714325,0.0279631670564413,-0.0151800047606229
1.7726357961518874e+18,4.605887451171875,2.550624370574951,-8.712146759033203,-10.702247619628906,-0.2765690386295318,0.4002727568149566,-0.0218379013240337
1.772635796191874e+18,4.6458740234375,1.6716822385787964,-5.478536128997803,-7.817316055297852,-0.09014792740345,0.5267727971076965,-0.179230585694313
1.7726357962118671e+18,4.6658671875,1.4812054634094238,-5.328848838806152,-5.83512544631958,0.34714275598526,0.4860264956951141,-0.3289000988006592
1.7726357962318605e+18,4.685860595703125,0.8596183061599731,-3.823519229888916,-2.839925765991211,0.5388901829719543,0.4420843720436096,-0.3371559083461761
1.7726357962518538e+18,4.705853759765625,-0.0664169788360595,-1.675117015838623,0.0298829078674316,0.3487406373023987,0.2364885061979293,0.1086568832397461
1.7726357962918405e+18,4.745840576171875,-1.752563714981079,2.9238028526306152,3.4481682777404785,0.7695197463035583,-0.6290380954742432,2.5124239921569824
1.7726357963118336e+18,4.76583349609375,-1.846895456314087,5.589903831481934,5.2963457107543945,0.4869585931301117,-0.9145287275314332,2.4580955505371094
1.772635796331827e+18,4.785826904296875,-1.7292251586914062,8.128724098205566,6.845633506774902,0.6209154725074768,-0.0921452939510345,1.73611319065094
1.7726357963518203e+18,4.8058203125,-1.1306002140045166,10.256391525268556,7.580445289611816,0.974849283695221,0.2961432635784149,1.495363712310791
1.7726357963718136e+18,4.825813720703125,-0.7520666718482971,10.97897243499756,8.106724739074707,1.117061972618103,0.0527305454015731,1.7065521478652954
1.772635796391807e+18,4.845806884765625,-0.935910940170288,10.418914794921877,7.786922454833984,0.6142575740814209,-0.2047969102859497,1.6178690195083618
1.7726357964118003e+18,4.86580029296875,-1.5577324628829956,8.413722038269043,6.738214492797852,-0.1516668945550918,-0.3371559083461761,0.3587274849414825
1.7726357964317937e+18,4.885793701171875,-1.8808906078338623,6.21811056137085,6.026416301727295,-0.2544648349285126,-0.1233042553067207,-0.5877591371536255
1.772635796451787e+18,4.905787109375,-1.674533128738403,5.345998764038086,5.969977855682373,-0.2403500825166702,-0.1419463604688644,-0.4940159618854522
1.77263579647178e+18,4.925780029296875,-1.430419921875,6.275607585906982,6.0867018699646,-0.3306311666965484,-0.1392832100391388,-0.2367548197507858
1.7726357964917734e+18,4.9457734375,-0.9285545349121094,7.191328048706055,5.734158515930176,-0.4515385627746582,-0.0117178987711668,-0.31238853931427
1.7726357965117668e+18,4.965766845703125,-1.1564836502075195,6.712618350982666,5.429896354675293,-0.6211817860603333,0.002130527049303,-0.8178560733795166
1.77263579653176e+18,4.985760009765625,-1.5654404163360596,5.154166221618652,4.900461673736572,-0.7319691777229309,0.0183757953345775,-1.410941481590271
1.7726357965517535e+18,5.00575341796875,0.1193267703056335,3.458730697631836,2.8351352214813232,-0.8392944931983948,0.0090547399595379,-1.792305827140808
1.7726357965717468e+18,5.025746826171875,0.2408821582794189,1.4537911415100098,1.9626765251159668,-0.8882966041564941,0.023169482126832,-1.8074859380722048
1.7726357965917402e+18,5.045740234375,1.038811206817627,-2.4383344650268555,1.0072693824768066,-0.863262951374054,0.0671116039156913,-1.4998910427093506
1.7726357966117335e+18,5.0657333984375,2.039710283279419,-5.192863464355469,-3.925916194915772,-0.6717818379402161,0.1147821471095085,-1.046355128288269
1.7726357966317268e+18,5.085726806640625,2.7717652320861816,-3.843456268310547,-6.89301347732544,-0.3561974763870239,0.1486042588949203,-0.5621927976608276
1.7726357966517202e+18,5.10572021484375,0.9223837852478028,-2.793333053588867,-7.769737720489502,-0.067511074244976,0.1890842765569687,-0.1640505790710449
1.7726357966717135e+18,5.125713623046875,1.0627187490463257,-5.45393705368042,-8.96876049041748,0.0296942200511693,0.0761663392186164,-0.0175768472254276
1.7726357967117002e+18,5.1657001953125,4.369361877441406,-3.9160876274108887,-10.894582748413086,0.0035952643956989,-0.1648495346307754,-0.0061252652667462
1.7726357967316936e+18,5.185693603515625,4.361300945281982,-3.275467872619629,-9.917520523071287,-0.0065247388556599,-0.304132729768753,0.0013315794058144
1.772635796751687e+18,5.20568701171875,3.5800774097442627,-8.604862213134766,-9.11042594909668,0.0262321140617132,-0.2692453563213348,-0.0468715950846672
1.7726357967716803e+18,5.22568017578125,2.587889671325684,-12.048380851745604,-9.753613471984863,-0.0001331579405814,-0.2383527159690857,-0.2047969102859497
1.772635796811667e+18,5.2656669921875,1.3110798597335815,-8.355630874633789,-6.645388603210449,-0.1119858250021934,-0.0910800322890281,-0.3105243146419525
1.7726357968316603e+18,5.285660400390625,1.6432294845581057,-4.8811516761779785,-5.320778846740723,-0.1604553163051605,0.1014663502573967,-0.2601906061172485
1.7726357968716467e+18,5.325646728515625,0.8581756353378296,-0.602259635925293,-1.2087364196777344,-0.121839515864849,0.2205095440149307,-0.2335590273141861
1.7726357968916393e+18,5.345639404296875,-0.3421733379364013,1.940357208251953,1.4112026691436768,-0.0225036926567554,0.3571296036243438,-0.3145190477371216
1.772635796911632e+18,5.3656318359375,-1.2633566856384275,4.260032176971436,3.558180332183838,0.2853574752807617,0.278832733631134,-0.2079927027225494
1.7726357969316244e+18,5.38562451171875,-1.5857222080230713,6.634583473205566,5.648115634918213,0.3399522304534912,0.2106558680534362,0.0551273860037326
1.772635796951617e+18,5.405616943359375,-1.7276763916015625,9.385968208312988,7.517531394958496,0.318114310503006,-0.0790958181023597,0.4061317145824432
1.7726357969716096e+18,5.425609619140625,-1.781494140625,11.450759887695312,8.403247833251953,0.1870869100093841,-0.449008584022522,1.1225214004516602
1.7726357969916022e+18,5.445602294921875,-1.8069114685058596,12.082974433898926,8.33642864227295,0.5274385809898376,-0.5928191542625427,1.8724669218063357
1.772635797011595e+18,5.465594970703125,-0.8237646818161011,10.9487886428833,7.132486343383789,0.8667250275611877,-0.0846884474158287,2.262619733810425
1.7726357970315876e+18,5.485587646484375,-1.0188698768615725,8.423215866088867,6.204146385192871,0.8643282055854797,0.3161169588565826,2.043175458908081
1.7726357970515802e+18,5.505580078125,-1.1571155786514282,7.024786949157715,5.588622093200684,0.6976144313812256,0.2146506011486053,0.954742431640625
1.7726357970715727e+18,5.52557275390625,-1.1174530982971191,6.429686546325684,4.62329626083374,0.1599226891994476,-0.3374222218990326,0.1502021551132202
1.7726357970915653e+18,5.5455654296875,-1.279716730117798,5.758769989013672,4.22837495803833,-0.3857585489749908,-0.5390233397483826,0.0537958070635795
1.772635797111558e+18,5.565557861328125,-1.143505573272705,5.553095817565918,4.476655960083008,-0.6661891937255859,-0.6119939088821411,-0.1097221449017524
1.7726357971315505e+18,5.585550537109375,-1.4906693696975708,5.828158378601074,4.485727310180664,-0.4251733124256134,-0.304132729768753,-0.3744401335716247
1.7726357971515433e+18,5.605543212890625,-1.2470780611038208,5.408679962158203,4.705724716186523,-0.0629837065935134,0.1472726762294769,-0.3909517228603363
1.7726357971915284e+18,5.645528564453125,0.7004091739654541,3.0744638442993164,0.9846882820129396,0.0664458125829696,0.4498075246810913,-0.2151832282543182
1.772635797211521e+18,5.66552099609375,1.726462721824646,0.6015853881835938,-0.7631220817565918,-0.0549942292273044,0.4197138249874115,-0.3752390742301941
1.7726357972315136e+18,5.685513671875,2.8541109561920166,-4.281789779663086,-3.866177082061768,-0.4273038208484649,0.2362221926450729,-0.915061354637146
1.7726357972515062e+18,5.705506103515625,1.5356695652008057,-8.834683418273926,-7.432760715484619,-0.7612639665603638,0.0221042186021804,-1.515337347984314
1.7726357972914913e+18,5.7454912109375,1.5952610969543457,-0.7282199859619141,-8.066680908203125,-0.9127976894378662,-0.0852210819721221,-1.760614275932312
1.772635797311484e+18,5.76548388671875,4.537209510803223,-2.795848846435547,-8.733222961425781,-0.8584692478179932,-0.0631168633699417,-1.6088142395019531
1.7726357973314767e+18,5.785476806640625,4.599228858947754,-4.070181369781494,-10.947430610656738,-0.5665870308876038,-0.0207726396620273,-1.1600719690322876
1.7726357973514693e+18,5.80546923828125,3.026685237884521,-5.801865100860596,-12.494054794311523,-0.2302300781011581,0.0913463458418846,-0.5632581114768982
1.772635797371462e+18,5.8254619140625,2.855757713317871,-9.575149536132812,-10.39739227294922,-0.0691089704632759,0.3360906541347503,-0.0663126558065414
1.7726357973914542e+18,5.8454541015625,2.4180641174316406,-11.89760398864746,-9.47833251953125,-0.0190415848046541,0.6127928495407104,0.0910800322890281
1.7726357974114465e+18,5.865446533203125,2.0618767738342285,-9.780295372009276,-9.34541130065918,0.1431447863578796,0.5952159762382507,0.0082557927817106
1.7726357974314388e+18,5.88543896484375,1.888197422027588,-7.286779403686523,-7.918727874755859,0.237953245639801,0.31238853931427,-0.1038631945848465
1.7726357974514312e+18,5.90543115234375,1.609502196311951,-6.847546577453613,-5.741167068481445,0.2398174554109573,0.048469491302967,-0.1371526718139648
1.7726357974714235e+18,5.925423583984375,0.6405996084213257,-4.633520603179932,-3.533297538757324,0.2009353339672088,0.0279631670564413,-0.1145158261060714
1.772635797511408e+18,5.965408203125,-0.6815884709358215,0.8641977310180664,1.5543873310089111,0.165781632065773,0.2314285039901733,-0.2215748131275177
1.7726357975314004e+18,5.985400390625,-0.8574376106262207,4.023594856262207,3.236262798309326,0.0933437198400497,0.3739075064659118,-0.3957453966140747
1.7726357975513928e+18,6.005392822265625,-1.0668636560440063,7.365131378173828,4.845348358154297,0.0121173728257417,0.5826991200447083,-0.4391548931598663
1.7726357975713853e+18,6.02538525390625,-1.0943478345870972,10.086238861083984,6.606020927429199,0.0078563187271356,0.8785760998725891,-0.4189148843288421
1.7726357975913777e+18,6.045377685546875,-0.9126439094543456,11.48276710510254,8.09326457977295,0.2291648089885711,0.5406212210655212,-0.2255695462226867
1.77263579761137e+18,6.065369873046875,-1.0228216648101809,11.661664962768556,8.222211837768555,0.5482112169265747,-0.025300009176135,0.3283674716949463
1.7726357976313623e+18,6.0853623046875,-1.0522639751434326,11.114920616149902,6.51460075378418,0.9301081895828248,-0.2354232370853424,0.9137297868728638
1.7726357976513546e+18,6.105354736328125,-0.6602743268013,9.171624183654783,5.170450687408447,0.907737672328949,-0.385891705751419,1.6058847904205322
1.772635797671347e+18,6.125346923828125,-0.9868684411048888,6.950230598449707,5.341368675231934,0.5455480813980103,-0.6170539259910583,1.874863862991333
1.7726357976913393e+18,6.14533935546875,-1.9493627548217771,6.077342033386231,5.366546630859375,0.4107922613620758,-0.4202464520931244,1.6530226469039917
1.7726357977113316e+18,6.16533154296875,-1.9596636295318604,5.887256622314453,5.175086975097656,0.8877639770507812,-0.098536878824234,2.0463712215423584
1.772635797731324e+18,6.185323974609375,-1.448347806930542,5.682455062866211,4.926784038543701,0.8352997899055481,-0.4266380369663238,2.114814519882202
1.7726357977513162e+18,6.205316162109375,-1.6457676887512207,5.480545997619629,4.170310974121094,0.072571076452732,-0.7693865895271301,1.22265625
1.772635797791301e+18,6.245301025390625,0.7916208505630493,5.134228706359863,2.069789409637451,-0.2382195591926574,-0.4689822793006897,0.0990695059299469
1.7726357978112934e+18,6.26529345703125,0.9087353348731996,4.22428560256958,1.0790066719055176,-0.4510059356689453,-0.3310306370258331,-0.5632581114768982
1.7726357978312858e+18,6.28528564453125,0.9549437761306764,-0.3507757186889648,1.2339472770690918,-0.5170522928237915,-0.2098569124937057,-0.6708496809005737
1.772635797851278e+18,6.305278076171875,0.5085602402687073,-5.584012031555176,-1.291217803955078,-0.2001363784074783,0.0508663319051265,-0.362988531589508
1.7726357978712704e+18,6.3252705078125,0.3563241362571716,-7.428306579589844,-5.738523006439209,-0.0544615983963012,0.2444779723882675,-0.0300936941057443
1.7726357978912637e+18,6.345263671875,1.351156234741211,-4.199485778808594,-9.036758422851562,-0.226235345005989,0.3057306408882141,-0.2876211404800415
1.772635797911257e+18,6.365257080078125,1.9512187242507932,-2.2654857635498047,-8.398839950561523,-0.5061333179473877,0.314785361289978,-0.931040346622467
1.7726357979312502e+18,6.385250244140625,4.0959577560424805,-3.9775662422180176,-9.645462989807127,-0.7524755001068115,0.3262369632720947,-1.52013099193573
1.7726357979512435e+18,6.405243408203125,4.455280303955078,-5.014272689819336,-12.17500114440918,-0.8709861040115356,0.2700442969799042,-1.8306553363800049
1.7726357979712366e+18,6.425236572265625,3.581573247909546,-7.095524787902832,-12.169563293457031,-0.8126628994941711,0.1390168964862823,-1.6311848163604736
1.77263579799123e+18,6.44522998046875,3.318049430847168,-10.854307174682615,-10.396894454956056,-0.5649891495704651,0.0167779009789228,-1.0061414241790771
1.7726357980112233e+18,6.465223388671875,2.117555856704712,-12.12843418121338,-8.942617416381836,-0.3143858909606933,-0.034621063619852,-0.3637875020503998
1.7726357980312164e+18,6.48521630859375,1.9081964492797847,-8.740924835205078,-9.129615783691406,-0.2062616497278213,0.0079894764348864,-0.1488705724477768
1.7726357980512097e+18,6.505209716796875,2.7947092056274414,-6.654477596282959,-7.559117317199707,-0.1514005810022354,0.0303600095212459,-0.3526022136211395
1.7726357980911962e+18,6.545196044921875,0.8688879013061523,-3.4811830520629883,-2.1127662658691406,-0.0446079112589359,0.0082557927817106,-0.4077296257019043
1.7726357981111895e+18,6.565189453125,-0.2131575942039489,-0.5489273071289062,0.4170956611633301,0.1681784838438034,-0.0729705542325973,-0.2079927027225494
1.7726357981311826e+18,6.5851826171875,-1.3613691329956057,2.390627861022949,2.9071030616760254,0.1945437490940094,-0.2093242853879928,-0.1283642500638961
1.772635798151176e+18,6.605176025390625,-1.3706293106079102,5.90474796295166,4.376700878143311,-0.02490053512156,-0.1523326784372329,-0.1312937289476394
1.772635798171169e+18,6.6251689453125,-1.1806232929229736,9.400617599487305,5.538167476654053,-0.2296974509954452,-0.031691588461399,-0.1693768948316574
1.7726357981911624e+18,6.645162353515625,-1.932982444763184,11.578686714172363,7.028350353240967,-0.2853574752807617,0.0295610632747411,-0.2961432635784149
1.7726357982111557e+18,6.66515576171875,-1.2077654600143433,11.471951484680176,8.445501327514648,-0.1980058550834655,-0.011185267008841,-0.4170506596565246
1.7726357982311488e+18,6.685148681640625,-0.0159364342689514,10.004705429077148,8.199440956115723,0.0097205294296145,0.1480716317892074,-0.4772380590438843
1.7726357982511421e+18,6.70514208984375,-0.4535902738571167,8.647417068481445,6.725985527038574,0.3404848575592041,0.0175768472254276,-0.2647179961204529
1.7726357982711352e+18,6.72513525390625,-1.1149171590805054,7.962754726409912,5.5242204666137695,0.5844302177429199,-0.2311621904373169,0.268180102109909
1.7726357982911286e+18,6.745128662109375,-1.866607904434204,7.310874938964844,3.9870176315307617,0.6504765152931213,-0.3579285442829132,0.6585991978645325
1.7726357983111217e+18,6.76512158203125,-1.8100900650024412,6.294007301330566,3.1698203086853027,0.617453396320343,-0.1094558238983154,0.984569787979126
1.772635798331115e+18,6.785114990234375,-1.0160880088806152,6.028510093688965,3.4093129634857178,0.7026744484901428,0.0609863363206386,1.5366426706314087
1.7726357983511084e+18,6.8051083984375,-1.3693081140518188,6.827985763549805,3.766734123229981,1.173787236213684,0.201068490743637,2.4216103553771973
1.7726357983711014e+18,6.825101318359375,-1.988131523132324,7.300032138824463,4.279025077819824,1.2459588050842283,0.1691105812788009,3.0053746700286865
1.7726357984110874e+18,6.86508740234375,0.7923917174339294,5.189822196960449,3.6831717491149902,0.825978696346283,-0.320910632610321,2.507896661758423
1.7726357984310802e+18,6.885080078125,-0.6624533534049988,0.7471780776977539,3.2865922451019287,0.0864195004105568,-0.541686475276947,0.8889623880386353
1.7726357984510733e+18,6.9050732421875,-0.0388639569282531,-4.387786865234375,0.434544563293457,-0.0110521093010902,-0.1179779320955276,-0.4588622748851776
1.772635798471066e+18,6.925066162109375,2.349620819091797,-8.398894309997559,-5.584044933319092,-0.2126532346010208,0.0103863198310136,-0.7187865376472473
1.7726357984910592e+18,6.94505908203125,2.9435153007507324,-6.850193977355957,-8.003040313720703,-0.2848248481750488,0.2000032216310501,-0.650875985622406
1.772635798511052e+18,6.965052001953125,1.0891718864440918,-0.8382244110107422,-8.649210929870605,-0.0230363234877586,0.4095938205718994,-0.2330264002084732
1.772635798531045e+18,6.985045166015625,3.2729315757751465,-1.6588964462280271,-8.105884552001953,0.03715106472373,0.3118558824062347,-0.0101200034841895
1.772635798551038e+18,7.005037841796875,5.274490833282471,-4.642356872558594,-10.115894317626951,-0.6712491512298584,0.0950747728347778,-1.2002856731414795
1.772635798571031e+18,7.025031005859375,4.753937721252441,-4.200937271118164,-15.98972988128662,-0.8531429171562195,0.1669800579547882,-1.7640763521194458
1.7726357985910239e+18,7.04502392578125,3.8426995277404794,-6.349844932556152,-14.04359245300293,-1.0129324197769165,0.3155843317508697,-2.004826068878174
1.772635798611017e+18,7.065016845703125,3.4573068618774414,-9.046930313110352,-10.63221836090088,-0.9700555801391602,0.2974748313426971,-1.7133432626724243
1.7726357986310098e+18,7.085009765625,2.792769193649292,-10.135782241821287,-9.968626022338867,-0.635030210018158,0.0945421382784843,-0.8515450358390808
1.772635798651003e+18,7.1050029296875,2.1257309913635254,-7.895591259002685,-8.660324096679688,-0.2771016657352447,0.0386158041656017,0.0786963403224945
1.7726357986709957e+18,7.12499560546875,2.156475067138672,-6.098200798034668,-6.6464619636535645,0.0808268710970878,0.070840023458004,0.4273038208484649
1.7726357986909885e+18,7.144988525390625,1.5224436521530151,-5.780195236206055,-4.789060115814209,0.4057322442531585,0.0063915811479091,0.2422142922878265
1.7726357987109816e+18,7.164981689453125,0.7126342058181763,-3.546934127807617,-2.236814498901367,0.5311670303344727,-0.0045273699797689,0.1069258227944374
1.7726357987309747e+18,7.184974609375,-0.0040645599365234,-0.6032304763793945,0.9076375961303712,0.4403533041477203,0.0031957905739545,0.1740374267101287
1.7726357987509676e+18,7.204967529296875,-0.7305318713188171,2.704099178314209,2.9240970611572266,0.2424806058406829,0.196008488535881,0.1929458528757095
1.7726357987709604e+18,7.22496044921875,-1.009320616722107,6.157683372497559,4.015717506408691,0.0755005553364753,0.3241064250469208,-0.0547279119491577
1.7726357987909535e+18,7.244953369140625,-1.7822188138961792,8.979085922241211,5.251891136169434,-0.0304931681603193,0.1715074330568313,-0.3300985395908355
1.7726357988109463e+18,7.2649462890625,-2.3098673820495605,10.82351016998291,6.799859046936035,-0.176966905593872,0.1259674131870269,-0.3292995989322662
1.7726357988309394e+18,7.284939453125,-1.9602653980255127,11.384218215942385,8.317652702331543,-0.4025364518165588,0.2314285039901733,-0.1988048106431961
1.7726357988509322e+18,7.30493212890625,-0.8523843288421631,10.842436790466309,8.331498146057129,0.2294311374425888,-0.1824263781309127,0.1924132257699966
1.7726357988709256e+18,7.324925537109375,-0.4309976100921631,9.21718978881836,7.2586565017700195,0.6707165241241455,-0.3928159177303314,0.3404848575592041
1.7726357988909202e+18,7.344920166015625,-1.1339231729507446,7.51492166519165,6.883166790008545,0.5950828194618225,-0.1680453270673751,0.6478133797645569
1.7726357989109146e+18,7.36491455078125,-1.598231554031372,6.585170745849609,5.652565002441406,0.6699175834655762,0.1254347860813141,1.4917683601379397
1.7726357989309092e+18,7.3849091796875,-1.1071616411209106,5.786717414855957,4.083476543426514,0.8731166124343872,-0.1150484606623649,1.957022309303284
1.7726357989509038e+18,7.40490380859375,-0.7062807679176331,6.009056091308594,3.2088847160339355,1.0832397937774658,0.3850927650928497,2.453967571258545
1.7726357989708982e+18,7.424898193359375,-0.7777485847473145,7.091046333312988,3.191782236099243,1.1740535497665403,0.4873580634593963,2.720283508300781
1.7726357989908928e+18,7.444892822265625,-1.0070785284042358,8.43356990814209,3.411149024963379,0.6491449475288391,-0.2324937582015991,1.8574200868606567
1.7726357990108874e+18,7.464887451171875,-0.8717644214630127,8.739053726196289,3.4510393142700195,0.1359542608261108,-0.4966791272163391,0.5793702006340027
1.772635799030882e+18,7.484882080078125,0.6737750768661499,7.36517333984375,3.7918527126312256,-0.2251700758934021,-0.3765706419944763,-0.6009417772293091
1.7726357990508764e+18,7.50487646484375,-0.9082108736038208,3.187134265899658,3.877937078475952,-0.4760396480560303,-0.4058654010295868,-0.9024113416671752
1.772635799070871e+18,7.52487109375,-0.0692658424377441,-3.025632858276367,2.383328914642334,-0.3380880057811737,-0.2154495418071746,-0.7524755001068115
1.7726357990908657e+18,7.54486572265625,2.8495864868164062,-7.543254852294922,-3.707225799560547,-0.2286321818828582,0.0916126668453216,-0.5386238694190979
1.7726357991108603e+18,7.5648603515625,2.456632137298584,-9.45366668701172,-8.77394962310791,-0.1292963624000549,0.2466085106134414,-0.5633912682533264
1.772635799130855e+18,7.58485498046875,0.13364839553833,-6.6678571701049805,-9.551225662231444,-0.3237069547176361,0.2964095771312713,-1.0414282083511353
1.7726357991508493e+18,7.604849365234375,0.314624547958374,-1.8265066146850584,-8.118444442749023,-0.6395576000213623,0.3664506673812866,-1.5436999797821045
1.772635799170844e+18,7.624843994140625,4.6622700691223145,-1.0523748397827148,-8.97294807434082,-0.8110650181770325,0.3251716792583465,-1.7261264324188232
1.7726357991908385e+18,7.644838623046875,6.794811248779297,-2.1824207305908203,-11.758363723754885,-0.7870965600013733,0.1765674352645874,-1.4875073432922363
1.7726357992108332e+18,7.664833251953125,4.9108099937438965,-5.920002460479736,-13.47711944580078,-0.5061333179473877,0.0673779174685478,-0.9527450799942015
1.7726357992308275e+18,7.68482763671875,2.964529037475586,-10.390969276428224,-12.04640769958496,-0.2637858688831329,0.0319579057395458,-0.4147869944572449
1.7726357992508221e+18,7.704822265625,2.805403232574463,-11.276512145996094,-10.446622848510742,-0.282161682844162,0.0388821177184581,-0.1410142630338668
1.7726357992708168e+18,7.724816650390625,3.0673770904541016,-9.30283546447754,-9.811223030090332,-0.4185154139995575,0.1171789914369583,-0.2137184888124466
1.7726357993108058e+18,7.7648056640625,2.9767847061157227,-5.168117523193359,-7.532105922698975,-0.2792322039604187,0.0439421199262142,-0.3814975023269653
1.7726357993308004e+18,7.78480029296875,1.8478199243545528,-3.8652210235595694,-4.459316730499268,0.1085237190127372,-0.1523326784372329,-0.319712221622467
1.772635799350795e+18,7.804794921875,0.6841566562652588,-1.4056711196899414,-1.3065857887268066,0.3050648272037506,-0.3251716792583465,-0.1684447973966598
1.7726357993707894e+18,7.824789306640625,-0.2375997304916381,1.0144872665405271,1.7304868698120115,0.2320942878723144,-0.2503369152545929,-0.0003994738217443
1.7726357994107753e+18,7.864775390625,-1.4841346740722656,6.56126070022583,5.628181457519531,0.1151816174387931,-0.0335558019578456,0.0126500045880675
1.772635799430768e+18,7.88476806640625,-2.1723053455352783,9.418646812438965,7.033727645874023,-0.0443415939807891,0.048469491302967,-0.0304931681603193
1.7726357994507612e+18,7.90476123046875,-2.2368407249450684,10.715670585632324,8.884511947631836,-0.2102563828229904,-0.0039947382174432,-0.0565921254456043
1.7726357994707543e+18,7.92475439453125,-1.1213268041610718,10.530210494995115,9.952634811401367,-0.3300985395908355,-0.0953410863876342,-0.03715106472373
1.7726357994907471e+18,7.9447470703125,-0.9804801940917968,9.957828521728516,8.766263961791992,-0.4025364518165588,-0.1110537201166153,0.1165132001042366
1.7726357995107402e+18,7.964740234375,-0.9216872453689576,9.207598686218262,6.758576393127441,-0.1940111219882965,-0.4085285663604736,0.257127970457077
1.7726357995307333e+18,7.9847333984375,-1.0649805068969729,8.084693908691406,5.1867523193359375,0.1263668835163116,-0.522245466709137,0.2496711313724517
1.7726357995507261e+18,8.00472607421875,-1.3112881183624268,6.638927459716797,4.236022472381592,0.44354909658432,-0.5776391625404358,0.1812279522418975
1.7726357995707192e+18,8.02471923828125,-0.9751060009002686,5.700702667236328,3.388455867767334,0.4496743679046631,-0.3456780016422272,0.756470263004303
1.7726357995907123e+18,8.04471240234375,-0.5606966018676758,5.830947399139404,2.545734643936157,0.6129260063171387,-0.3161169588565826,1.5729947090148926
1.7726357996107052e+18,8.064705078125,-0.6740699410438538,6.855515003204346,2.510730266571045,0.976713478565216,-0.1331579387187957,1.9245316982269287
1.7726357996306982e+18,8.0846982421875,-0.7662379145622253,7.649661540985107,3.773407459259033,0.9972198009490968,0.1808284819126129,2.419879198074341
1.7726357996506913e+18,8.10469140625,-1.157172679901123,6.273196697235107,5.756785392761231,1.03956401348114,-0.025300009176135,2.4758055210113525
1.7726357996706842e+18,8.12468408203125,0.0782700181007385,4.261618614196777,6.0095744132995605,0.353268027305603,-0.5070654153823853,1.409210443496704
1.7726357996906772e+18,8.14467724609375,-0.0430650115013122,2.66393518447876,4.165420055389404,-0.0195742174983024,-0.3763043284416199,0.0264984294772148
1.7726357997306632e+18,8.1846630859375,3.0732181072235107,-7.753087043762207,-7.97188663482666,-0.3069290518760681,-0.1954758614301681,-0.7599323391914368
1.7726357997506563e+18,8.20465625,1.5466018915176392,-10.335104942321776,-12.477787017822266,-0.236887976527214,0.0495347529649734,-0.7644597291946411
1.7726357997706493e+18,8.2246494140625,0.3121362924575805,-5.097872734069824,-10.637588500976562,-0.0222373753786087,0.1211737245321273,-0.4270375072956085
1.7726357997906422e+18,8.24464208984375,2.3795289993286133,-1.5519838333129885,-8.813590049743652,-0.1141163557767868,0.2237053364515304,-0.1780321598052978
1.7726357998106353e+18,8.26463525390625,6.4797868728637695,-3.75376033782959,-9.866904258728027,-0.3343595862388611,0.2940127253532409,-0.5338301658630371
1.7726357998306284e+18,8.28462841796875,6.966452598571777,-6.391860008239746,-13.622600555419922,-0.6760428547859192,0.2854906320571899,-1.2534157037734983
1.7726357998506212e+18,8.30462109375,4.2787041664123535,-10.442564010620115,-14.151366233825684,-0.905873477458954,0.310258001089096,-1.714941143989563
1.7726357998706143e+18,8.3246142578125,2.830338954925537,-13.438959121704102,-12.34221649169922,-1.0318409204483032,0.2881537973880768,-1.7604811191558838
1.7726357998906066e+18,8.344606689453125,2.6397705078125,-11.994933128356934,-11.106267929077148,-1.033438801765442,0.1976063847541809,-1.4358420372009275
1.772635799910599e+18,8.364598876953124,2.779177665710449,-7.310538291931152,-10.033177375793455,-0.7617965936660767,0.0980042442679405,-0.8707197904586792
1.7726357999305915e+18,8.384591552734374,2.4491114616394043,-4.350383758544922,-7.217798709869385,-0.4214448928833008,0.1014663502573967,-0.230762705206871
1.7726357999505838e+18,8.404583740234376,1.3411848545074463,-2.691166877746582,-3.581876754760742,-0.1846900582313537,0.2490053474903106,0.1306279450654983
1.7726357999705764e+18,8.424576416015626,0.3028538227081299,-0.2640209197998047,0.109133243560791,0.0419447496533393,0.201068490743637,0.0925447717308998
1.7726357999905687e+18,8.444568603515625,-0.459048330783844,2.8300929069519043,2.9890854358673096,0.2089248150587082,0.0314252749085426,-0.0203731656074523
1.7726358000105613e+18,8.464561279296875,-1.2292548418045044,5.944806098937988,5.2659101486206055,0.4012048840522766,-0.0804273933172226,0.0049268435686826
1.7726358000305536e+18,8.4845537109375,-2.072028636932373,8.948760986328125,7.326733589172363,0.5002743601799011,0.0042610540986061,0.0280963256955146
1.772635800050546e+18,8.5045458984375,-2.1454453468322754,11.09504508972168,9.187152862548828,0.3418164253234863,0.1834916472434997,-0.0938763469457626
1.7726358000705385e+18,8.52453857421875,-2.0538039207458496,12.105759620666504,9.951290130615234,0.0099868457764387,0.2154495418071746,-0.2949448525905609
1.7726358000905308e+18,8.54453076171875,-1.0013431310653689,12.275859832763672,7.678524971008301,-0.2235721796751022,0.15180005133152,-0.3873564600944519
1.7726358001105234e+18,8.5645234375,-0.7633717656135559,9.800206184387209,5.496017456054688,-0.3114564120769501,0.0945421382784843,-0.3146522045135498
1.7726358001305157e+18,8.584515625,-1.211672306060791,7.028452396392822,5.631892204284668,-0.3545995950698852,0.0237021129578351,-0.2296974509954452
1.772635800150508e+18,8.604508056640626,-1.737719178199768,5.861927509307861,5.341007232666016,-0.3213101029396057,0.1600558459758758,-0.383095383644104
1.7726358001705006e+18,8.62450048828125,-1.6183218955993652,5.662545204162598,3.832237243652344,0.0930773988366127,0.0777642354369163,-0.519715428352356
1.772635800190493e+18,8.644492919921875,-1.3193693161010742,5.435173034667969,2.745924472808838,0.4707133173942566,-0.0490021221339702,-0.2182458639144897
1.7726358002104855e+18,8.664485595703125,-1.3337767124176023,5.8701372146606445,2.996004104614258,0.8699208498001099,-0.147805318236351,0.4187817275524139
1.7726358002304778e+18,8.684477783203125,-0.7788214683532715,7.405652046203613,3.7957451343536377,0.6669881343841553,-0.4367580413818359,2.000964403152466
1.7726358002504704e+18,8.704470458984375,0.0335069596767425,9.525396347045898,3.516456127166748,0.580169141292572,-0.0769652873277664,1.5524884462356567
1.7726358002704627e+18,8.724462646484374,0.2526507377624511,10.189478874206545,3.387451648712158,0.7652586698532104,0.163517951965332,1.486708402633667
1.772635800290455e+18,8.744455078125,1.5865373611450195,7.523786544799805,3.074750661849976,0.5727123022079468,-0.4772380590438843,1.4297168254852295
1.7726358003104476e+18,8.764447509765626,0.875805139541626,1.4803566932678225,2.8913443088531494,-0.1205079331994056,-0.6836328506469727,0.8880302906036377
1.77263580033044e+18,8.78443994140625,0.8713463544845581,-6.188872337341309,-0.8866567611694336,-0.3370227515697479,-0.2737727165222168,-0.1087900400161743
1.7726358003504323e+18,8.804432373046875,0.7328563928604126,-12.592365264892578,-9.60962963104248,-0.1806953251361847,0.042610540986061,-0.6382260322570801
1.772635800370425e+18,8.824425048828125,4.019513130187988,-4.55037784576416,-11.424386978149414,-0.0893489792943,0.0620516017079353,-0.625975489616394
1.772635800390419e+18,8.8444189453125,2.4858179092407227,1.973116874694824,-9.030441284179688,-0.2488721907138824,0.1459411084651947,-0.4613922536373138
1.7726358004104128e+18,8.864412841796875,3.3459575176239014,-4.550914764404297,-7.069322109222412,-0.5516733527183533,0.1334242522716522,-0.716789186000824
1.772635800430407e+18,8.884406982421876,4.414929866790772,-10.447711944580078,-11.211869239807127,-0.8882966041564941,0.2042642831802368,-1.2992219924926758
1.7726358004504008e+18,8.90440087890625,4.732578754425049,-7.096245765686035,-14.563972473144531,-1.1261167526245115,0.2948116660118103,-1.6243937015533447
1.772635800470395e+18,8.924394775390626,3.8114075660705566,-8.3291597366333,-12.831680297851562,-1.0986862182617188,0.2162484973669052,-1.5082800388336182
1.7726358004903887e+18,8.944388671875,2.692150115966797,-13.451055526733398,-12.02249526977539,-0.8020102977752686,0.1331579387187957,-1.071788311004639
1.7726358005103828e+18,8.9643828125,3.024415969848633,-11.677742958068848,-12.246301651000977,-0.5615270137786865,0.0772316083312034,-0.4685827791690826
1.7726358005503706e+18,9.00437060546875,2.5228443145751958,-4.9146223068237305,-6.10167932510376,-0.4478101432323456,0.0055926335044205,-0.0451405420899391
1.7726358005703647e+18,9.02436474609375,1.305922508239746,-4.593090057373047,-4.204786777496338,-0.3631217181682586,-0.1278316229581833,-0.0011984214652329
1.7726358005903585e+18,9.044358642578125,-0.2246916890144348,-1.8928489685058596,-1.352495193481445,-0.0241015870124101,-0.065247394144535,-0.0411458052694797
1.7726358006103526e+18,9.0643525390625,-1.0621404647827148,1.0557475090026855,1.9971745014190676,0.3743069767951965,0.1246358305215835,-0.100001610815525
1.7726358006303465e+18,9.084346435546877,-1.459159255027771,4.166966438293457,4.304991722106934,0.4962796568870544,0.0276968516409397,-0.2091911286115646
1.7726358006503404e+18,9.10434033203125,-1.2804043292999268,7.739126682281494,5.025332450866699,0.3740406632423401,0.0684431791305542,-0.2672479748725891
1.7726358006703345e+18,9.12433447265625,-1.4810903072357178,10.334110260009766,5.880881786346436,0.2603237628936767,0.4013380408287048,-0.2451437711715698
1.7726358006903283e+18,9.144328369140624,-1.2505269050598145,10.663891792297363,8.551680564880371,0.1729721575975418,0.6657897233963013,-0.313586950302124
1.7726358007103224e+18,9.164322509765626,-0.3471242189407348,10.300863265991213,10.178451538085938,-0.0022636849898844,0.7057371139526367,-0.4651206731796264
1.7726358007303163e+18,9.18431640625,-0.6626565456390381,10.379735946655272,7.968166351318359,-0.2001363784074783,0.5435507297515869,-0.5338301658630371
1.7726358007503104e+18,9.204310302734376,-1.380631685256958,9.45277214050293,5.278264999389648,-0.3167827427387237,0.3158506453037262,-0.3596596121788025
1.7726358007703043e+18,9.22430419921875,-1.26578688621521,7.45565938949585,4.337332248687744,-0.2427469193935394,0.1933453232049942,-0.2046637535095214
1.772635800790298e+18,9.244298095703124,-1.3130747079849243,6.067390441894531,4.066562652587891,0.1194426715373992,-0.1081242486834526,-0.1671132147312164
1.772635800830286e+18,9.2842861328125,-0.4233684241771698,6.800062656402588,3.465959310531616,0.6134586334228516,-0.2998716831207275,-0.2579269409179687
1.7726358008502802e+18,9.3042802734375,-0.4554301500320434,7.341311931610107,4.13937520980835,1.290966272354126,-0.3486074805259704,0.1713742762804031
1.772635800870274e+18,9.324274169921877,-0.5300374627113342,7.50921630859375,4.668764114379883,0.8835029602050781,-0.0972052961587905,1.5841799974441528
1.7726358008902674e+18,9.344267333984376,-0.4420341253280639,6.096226215362549,4.738344669342041,0.6211817860603333,-0.4162517189979553,2.4268033504486084
1.7726358009302546e+18,9.384254638671877,1.051103591918945,-0.6648292541503906,-1.0506856441497805,0.8558061122894287,0.0474042259156703,2.63666033744812
1.7726358009502482e+18,9.404248291015625,4.332898139953613,-8.974268913269043,-7.939736843109131,1.03956401348114,-0.1171789914369583,2.3636865615844727
1.7726358009702415e+18,9.424241455078125,2.506527900695801,-19.33360290527344,-10.280223846435549,0.7378281354904175,-0.6394244432449341,1.868605375289917
1.7726358009902351e+18,9.444235107421877,-0.0193057060241699,-5.6267499923706055,-8.680368423461914,0.2507364153861999,-0.3296990692615509,1.0219871997833252
1.7726358010102287e+18,9.464228759765623,0.4819157123565674,5.061911582946777,-8.241437911987305,0.0925447717308998,0.2383527159690857,-0.1788311153650283
1.772635801030222e+18,9.48422216796875,4.297263622283936,-0.1618919372558593,-5.495598793029785,-0.1511342674493789,0.2974748313426971,-0.8323702812194824
1.7726358010502157e+18,9.504215576171877,6.185424327850342,-4.2976789474487305,-9.967689514160156,-0.3039995729923248,-0.1382179409265518,-0.5713807344436646
1.7726358010702093e+18,9.524209228515623,2.81062388420105,-4.625463485717773,-10.743122100830078,-0.2552637755870819,-0.1938779652118683,0.0440752767026424
1.7726358010902026e+18,9.54420263671875,1.0783108472824097,-4.054000854492188,-3.713719367980957,-0.4672512114048004,-0.2482064068317413,-0.0528637021780014
1.7726358011101962e+18,9.5641962890625,0.330818772315979,-2.4803714752197266,-0.8085365295410156,-0.816923975944519,-0.0990695059299469,-0.7652586698532104
1.7726358011501832e+18,9.60418310546875,0.3419362306594848,-1.3485345840454102,-2.4465389251708984,-1.0859030485153198,0.2332927137613296,-1.4084115028381348
1.7726358011701768e+18,9.6241767578125,0.3709845542907715,0.0913991928100586,-1.5302581787109375,-1.295227289199829,0.47830331325531,-1.6299864053726196
1.7726358011901704e+18,9.64417041015625,-0.0410199165344238,1.7066397666931152,0.2174463272094726,-1.188967227935791,0.4836296439170837,-1.3972262144088743
1.772635801210164e+18,9.6641640625,-0.2095550894737243,1.6399497985839844,1.7907257080078125,-0.1668469011783599,0.1073253005743026,0.0075900023803114
1.7726358012301573e+18,9.6841572265625,-0.0889384746551513,1.7533025741577148,1.5496816635131836,-0.1018658280372619,0.0402136966586113,0.2371542900800705
1.772635801250151e+18,9.70415087890625,-0.1365236043930053,2.248011589050293,1.2952208518981934,-0.1322258412837982,-0.1512674242258072,-0.1178447753190994
1.7726358012701445e+18,9.72414453125,-0.1648511886596679,1.914562702178955,1.633822679519653,0.0757668688893318,-0.1739042699337005,-0.3780353963375091
1.7726358012901379e+18,9.744137939453124,-0.2615652680397033,1.359966278076172,1.2823700904846191,0.3772364556789398,-0.0303600095212459,-0.3487406373023987
1.7726358013101315e+18,9.76413134765625,-0.2877829670906067,0.9536967277526855,0.7609987258911133,0.5213133096694946,0.0623179152607917,-0.2707100808620453
1.7726358013501187e+18,9.80411865234375,-0.0836899280548095,0.9520220756530762,0.2290620803833007,0.2640521824359894,0.0511326491832733,-0.2539321780204773
1.772635801370112e+18,9.824112060546875,0.3491240739822387,1.4358243942260742,-0.3104362487792969,-0.1548626869916916,0.0095873717218637,-0.1673795282840728
1.7726358013901046e+18,9.8441044921875,0.6159194707870483,1.4449563026428225,-0.8026041984558105,-0.328234314918518,0.0729705542325973,-0.0696416050195694
1.7726358014100974e+18,9.864097412109375,0.503380537033081,1.4718785285949707,-1.2464714050292969,-0.4036017060279846,0.1414137333631515,-0.1311605721712112
1.7726358014500828e+18,9.904082763671877,0.5234743356704712,0.8001918792724609,-0.3992376327514648,-0.3487406373023987,0.1230379343032836,-0.2254363894462585
1.7726358014700756e+18,9.92407568359375,0.7130364179611206,0.2831325531005859,-0.6045212745666504,-0.0246342197060585,0.0039947382174432,-0.2374206036329269
1.7726358014900682e+18,9.944068115234376,0.4498149156570434,0.5133957862854004,-0.8460679054260254,0.792422890663147,-0.3699127733707428,-0.0741689726710319
1.772635801510061e+18,9.96406103515625,0.4217463731765747,0.720428466796875,-0.3695011138916015,0.9503481984138488,-0.6277065277099609,0.5130575299263
1.772635801530054e+18,9.984053955078124,0.326229453086853,0.8024539947509766,-0.0848565101623535,0.8874976634979248,-0.6024065017700195,1.6022895574569702
1.7726358015500465e+18,10.00404638671875,0.3099832534790039,1.0951147079467771,-0.4506053924560547,-0.4528701603412628,-1.383510947227478,1.1727219820022583
1.7726358015700393e+18,10.024039306640624,0.3792216777801513,1.2714333534240725,-0.8226494789123535,-0.0794952884316444,-0.797349750995636,0.4872249066829681
1.772635801590032e+18,10.044031982421876,0.4434791803359985,1.1960315704345703,-0.9711341857910156,1.2843083143234253,0.545414924621582,1.5927021503448486
1.7726358016100247e+18,10.064024658203126,0.3585637807846069,1.059582233428955,-0.933835506439209,1.1173282861709597,0.3920169770717621,2.10003399848938
1.7726358016300175e+18,10.084017578125,0.4171721935272217,0.8655719757080078,-0.748288631439209,0.0315584316849708,-0.5717802047729492,1.6305190324783323
1.77263580165001e+18,10.104010009765624,0.3796553611755371,0.5954818725585938,-0.6450285911560059,-0.3210437893867492,-0.7086665630340576,0.3689806461334228
1.772635801670003e+18,10.1240029296875,0.3552008867263794,0.4175977706909179,-0.7224602699279785,-0.3572627604007721,-0.5699160099029541,-0.2885532677173614
1.7726358016899958e+18,10.143995849609375,0.3114171028137207,0.2841348648071289,-0.9156670570373536,-0.32583749294281,-0.3392864465713501,-0.3087932765483856
1.7726358017099884e+18,10.16398828125,0.3058276176452636,0.3373804092407226,-0.7900261878967285,-0.0960068777203559,-0.1275653094053268,-0.0486026480793952
1.7726358017299812e+18,10.183981201171877,0.2044875621795654,0.6823587417602539,-0.5886049270629883,0.0667121261358261,0.0474042259156703,0.1790974289178848
1.7726358017499738e+18,10.203973876953125,0.2486207485198974,0.8123197555541992,-0.4304423332214355,0.0491352789103984,0.194943219423294,0.1663142740726471
1.7726358017699666e+18,10.223966552734376,0.1873632669448852,0.788813591003418,-0.5740227699279785,-0.0366184338927269,0.2886864244937897,-0.0235689561814069
1.7726358017899594e+18,10.24395947265625,0.2849832773208618,0.6534690856933594,-0.5887150764465332,-0.0525973848998546,0.163517951965332,-0.3167827427387237
1.772635801809952e+18,10.263951904296874,0.3267384767532348,0.7933793067932129,-0.7864022254943848,-0.0286289565265178,-0.0263652727007865,-0.367915391921997
1.7726358018299448e+18,10.28394482421875,0.3539373874664306,0.8887782096862793,-1.008103370666504,-0.0203731656074523,-0.0820252895355224,-0.2209090292453766
1.7726358018499374e+18,10.3039375,0.3970059156417846,0.852229118347168,-1.1671714782714844,0.0105194775387644,-0.0841558203101158,-0.1956090182065963
1.7726358018699302e+18,10.32393017578125,0.3496268987655639,0.8636817932128906,-1.0868511199951172,0.0214384291321039,0.0308926422148942,-0.2515353560447693
1.7726358018899226e+18,10.343922607421876,0.3045779466629028,0.8355803489685059,-0.8379759788513184,0.0264984294772148,0.2468748241662979,-0.2954774796962738
1.772635801909915e+18,10.363914794921875,0.2491762638092041,0.7711591720581055,-0.6839518547058105,0.004660528153181,0.3909517228603363,-0.3061301112174988
1.7726358019299072e+18,10.3839072265625,0.2809065580368042,0.5698757171630859,-0.5904974937438965,0.1284974068403244,0.4018706679344177,-0.1205079331994056
1.7726358019498995e+18,10.4038994140625,0.2330988645553589,0.4989023208618164,-0.6527667045593262,0.1767005920410156,0.2942790389060974,-0.0382163301110267
1.7726358019698918e+18,10.423891845703125,0.2490524053573608,0.5776205062866211,-0.7477927207946777,0.1303616166114807,0.2162484973669052,0.0193079020828008
1.7726358019898842e+18,10.44388427734375,0.3165693283081054,0.6139459609985352,-0.8193936347961426,0.0938763469457626,0.1472726762294769,-0.0150468470528721
1.7726358020098767e+18,10.463876708984374,0.4093261957168579,0.7508997917175293,-1.0024490356445312,0.0368847511708736,0.0625842288136482,-0.121839515864849
1.772635802029869e+18,10.483869140625,0.4141875505447387,0.7504515647888184,-1.04201078414917,0.0193079020828008,-0.0215715859085321,-0.2169142812490463
1.7726358020498614e+18,10.503861328125,0.4077318906784057,0.7064061164855957,-0.7772998809814453,0.019840532913804,-0.0098536871373653,-0.2179795503616333
1.7726358020698537e+18,10.523853759765624,0.5011529922485352,0.928278923034668,-0.7880253791809082,0.0813594982028007,0.0439421199262142,-0.1780321598052978
1.772635802089846e+18,10.543845947265623,0.4653956890106201,0.6825885772705078,-0.9422531127929688,0.1404816210269928,0.1041295081377029,-0.1351553052663803
,,,,,0.1055942475795745,0.0993358269333839,-0.0925447717308998
,,,,,0.0395479090511798,0.0788294970989227,-0.0808268710970878
,,,,,0.019840532913804,0.0782968699932098,-0.0909468755125999
,,,,,0.0078563187271356,0.0932105556130409,-0.0914795026183128
,,,,,0.0193079020828008,0.1110537201166153,-0.0882837176322937
,,,,,0.0467384383082389,0.1462074220180511,-0.1034637168049812
,,,,,0.0525973848998546,0.1443432122468948,-0.1223721504211425
,,,,,0.0344879068434238,0.1185105666518211,-0.1239700391888618
,,,,,0.0139815835282206,0.0737695023417472,-0.1266331970691681
,,,,,0.0233026389032602,0.0801610797643661,-0.1330247819423675
,,,,,0.0448742248117923,0.0998684540390968,-0.1234374120831489
,,,,,0.0592552833259105,0.129962146282196,-0.0691089704632759
,,,,,0.0669784471392631,0.1568600535392761,-0.067511074244976
,,,,,0.0571247562766075,0.1595232188701629,-0.1071921437978744
,,,,,0.0406131707131862,0.1241032034158706,-0.1354216188192367
,,,,,-0.0089215822517871,0.05139896646142,-0.1447426825761795
,,,,,-0.0384826436638832,-0.0114515833556652,-0.1308942586183548
,,,,,-0.0483363308012485,-0.0617852844297885,-0.110920563340187
,,,,,-0.0456731729209423,-0.0524642281234264,-0.0755005553364753
,,,,,-0.0254331659525632,-0.0042610540986061,-0.0398142226040363
,,,,,-0.0113184247165918,0.0458063334226608,-0.0035952643956989
,,,,,-0.0014647373463958,0.0737695023417472,0.0134489517658948
,,,,,0.004660528153181,0.0756337121129036,0.0035952643956989
,,,,,0.0826910808682441,0.0593884401023387,-0.0147805316373705
,,,,,0.1609879434108734,0.0199736915528774,-0.0640489682555198
,,,,,-0.0563258081674575,0.0061252652667462,-0.0467384383082389
,,,,,-0.2001363784074783,0.0058589493855834,0.0206394810229539
,,,,,-0.0928110852837562,-0.0186421126127243,0.0299605373293161
