time,seconds_elapsed,accel_z,accel_y,accel_x,gyro_x,gyro_y,gyro_z
1772808264467834000,0.099834228515625,-0.1213724632620811,-0.0676005410641431,0.3210590962391346,0.0699067935347557,-0.2607364952564239,0.0555248409509658
1772808264487883000,0.119883056640625,-0.5851093341857194,0.357113063982129,0.3634180093452334,0.0874925330281257,-0.5468038320541382,-0.0025623994879424
1772808264507931600,0.139931640625,-0.1209095219254493,0.3270014188349247,-0.2441710138045251,0.0450996533036232,-0.6230535507202148,-0.3076794147491455
1772808264527979500,0.1599794921875,0.1908481505483388,-0.115842886185646,-0.5279017384506761,-0.2518576681613922,-0.1185975223779678,-0.7078813910484314
1772808264548028700,0.180028564453125,-0.107644382160902,-0.1349398008435964,-0.5889527848061173,-0.6187386512756348,0.7447564005851746,-0.9076981544494628
1772808264568077600,0.20007763671875,-0.7234872927844523,-0.2021633252888917,-0.6650419719479977,-0.6172670722007751,1.4809056520462036,-0.7252491116523743
1772808264588126700,0.220126708984375,-0.8155676105886698,0.7593991486430167,-0.4126120657010003,-0.3213625848293304,1.7959214448928833,-0.631307065486908
1772808264608175900,0.24017578125,-0.6695768388986587,0.2510337391808629,0.2484732593093998,-0.0683804228901863,1.4418278932571411,-0.5240604877471924
1772808264628224500,0.260224609375,-0.6727239047527312,-0.3416442766934633,0.089763053837791,0.1296731382608413,0.8218405842781067,-0.4555520713329315
1772808264648272600,0.280272705078125,-0.135240829616785,-0.2342114914566278,0.2540342361710965,0.2035648375749588,0.2237232774496078,-0.4988082349300384
1772808264668321500,0.300321533203125,-0.0277525148004293,0.0661824909597635,0.3644063262628391,0.1119474694132804,-0.3779620826244354,-0.4121557474136352
1772808264688370700,0.32037060546875,1.1090700799256563,0.0145639474034309,-0.0976276132004335,-0.1968302726745605,-0.126090332865715,-0.141771525144577
1772808264708419600,0.340419677734375,1.7968880934357645,-0.5171677245989441,-0.3510252685010433,-0.4028619825839996,0.4519275426864624,0.1425658464431762
1772808264728468700,0.36046875,1.2050140874207018,-0.7982309836015105,-0.0778124307379126,-0.5985102653503418,0.5322607159614563,0.2729298770427704
1772808264748517600,0.380517578125,0.9458727373689412,-0.5513859282821416,0.2784873440999537,-0.5698909759521484,0.8604876399040222,0.2562080919742584
1772808264768565800,0.400565673828125,-0.1617056426942348,-0.3907259952485561,-0.193286337480694,-0.3799639642238617,0.819955050945282,0.2686280608177185
1772808264788614700,0.42061474609375,-0.2954191166132688,0.899600523276627,0.1332501672562211,-0.1853353977203369,0.3961881697177887,0.1376453936100006
1772808264808663600,0.44066357421875,0.314156550309062,0.3548635314896702,0.1218089549832046,0.2949934899806976,0.1620728224515915,0.273722231388092
1772808264828712700,0.460712646484375,0.6082394498825073,0.4315425742834806,0.0190646928887814,0.5084815621376038,0.2843228280544281,0.3467322587966919
1772808264848761600,0.48076171875,0.3439858713835477,0.3104009971678256,0.2123448928896337,0.4959492981433868,0.1999210566282272,0.2310933023691177
1772808264868809700,0.500809814453125,0.3266068665593862,0.3326595907270908,0.2740915933590382,0.3957075476646423,0.1015515178442001,0.2097347378730774
1772808264888858600,0.520858642578125,0.539031473621726,0.1696267910823226,-0.0050356560796499,0.3654223382472992,0.2630763947963714,0.3184837698936462
1772808264908907800,0.54090771484375,0.4236626346886157,0.214554020306468,-0.1361149821028113,0.2500244379043579,0.2897510230541229,0.3388661444187164
1772808264928956700,0.560956787109375,0.5092915843963622,0.3660889821201563,-0.5725754313051701,0.2097899317741394,0.1919718980789184,0.1634720414876938
1772808264949005600,0.581005615234375,-0.4273264178931713,0.1295405721485614,0.3729706313926726,0.348924309015274,-0.2507857978343963,0.165695309638977
1772808264969053700,0.6010537109375,-0.1216413433313369,0.4616729241311549,0.7368447870075703,0.6919137239456177,-0.2186937034130096,0.3630776703357696
1772808264989102600,0.6211025390625,-0.0165992526233196,0.5739654243588447,-0.2249664009883999,0.7508508563041687,-0.2951385974884033,0.5193296074867249
1772808265009151700,0.64115185546875,0.3151280256897211,0.1679600269138813,0.0242018365815281,0.7133806943893433,-0.3634878396987915,0.5908069610595703
1772808265029200600,0.66120068359375,-0.0647679479867219,0.3205500507384538,0.5888398990161716,0.7095835208892822,-0.4756996631622314,0.6060599684715271
1772808265049249500,0.68124951171875,0.023987609308958,0.3767150055527687,-0.3972330755876377,0.5675758123397827,-0.6734833717346191,0.45952108502388
1772808265069298700,0.701298583984375,0.3666466160029172,-0.1965133367031812,-0.5747185808137059,0.3148883879184723,-0.61139976978302,0.0960025265812873
1772808265089346600,0.7213466796875,-0.5498047965705395,-1.3795347880244255,0.2689770268242806,0.171140506863594,-0.364855945110321,-0.0250426493585109
1772808265109395700,0.741395751953125,-0.4903676882177591,-2.1666396897166966,0.6546305411141365,0.4603205025196075,0.0595097728073596,0.1577391624450683
1772808265129444600,0.761444580078125,-0.9799380885779856,-1.849696139037609,0.715857382427901,0.5600453615188599,0.4113198518753052,0.5374265909194946
1772808265149493800,0.78149365234375,-0.207297181046009,-1.1262743127048014,0.3137474580515176,0.38930743932724,0.7475461363792419,0.5893197059631348
1772808265169543000,0.80154296875,-0.6585662000626326,-1.1113801104336976,0.1668913199701346,0.3216663002967834,0.6660072803497314,0.5088977217674255
1772808265189590800,0.8215908203125,-0.1303524730533361,-1.245165480545163,0.2639138616831973,0.4798065423965454,0.4689801633358001,0.3818717300891876
1772808265209639700,0.8416396484375,0.280897839307785,-0.7870318364560603,0.0722810270305722,0.4526869356632232,0.1580249220132827,0.2293755561113357
1772808265229688600,0.8616884765625,0.1171937162727117,-0.3628355332821607,0.1055669182997196,0.4635619223117828,0.2304249107837677,0.260975033044815
1772808265249737700,0.88173779296875,0.0484083493381738,0.0501151532560586,-0.0705281920138746,0.4594556391239166,0.2937526404857635,0.3282917141914367
1772808265269786600,0.90178662109375,0.0814712455064058,0.1927098527669906,0.2157944853542372,0.412765622138977,-0.0429534651339054,0.1289895474910736
1772808265289835800,0.921835693359375,0.4892272860109806,0.3595183715581894,-0.3258080808645114,0.2884466350078583,-0.0317637622356414,0.0114280097186565
1772808265309883600,0.941883544921875,0.5589630855381489,0.9259668444156646,0.1053805288821458,0.1690687537193298,0.0262084584683179,0.0273833218961954
1772808265329932800,0.961932861328125,0.8110077553272247,1.3102064002543687,0.2502864279448986,0.1121981292963028,-0.021207358688116,0.2202672213315963
1772808265349981700,0.981981689453125,1.0683137066453694,1.441381295606494,0.2644026498471387,0.0655271261930465,-0.0565496906638145,0.4438009262084961
1772808265370030600,1.002030517578125,1.5529747076541185,2.2811621409535405,-0.2016839808067306,0.042621873319149,0.2124719023704528,0.512747585773468
1772808265390079700,1.022079833984375,1.9684721560657024,2.4102251587182284,-0.1230343868586234,0.124101236462593,0.2825843095779419,0.5220827460289001
1772808265410127600,1.042127685546875,2.9991455756247043,2.780731372758746,-0.3597629574364051,0.0780638828873634,0.313275396823883,0.4949622452259063
1772808265430176800,1.0621767578125,3.491072768244147,3.292348769754171,-0.5499374830394983,-0.0284953340888023,-0.0900258347392082,0.1024822667241096
1772808265450225700,1.0822255859375,3.4847745448827743,3.481602929109335,-0.6868731338754296,-0.0808086618781089,-1.005903959274292,-0.3767173290252685
1772808265470274600,1.102274658203125,3.872401405072212,3.749928871613741,-0.5839583740523084,-0.3959295451641083,-1.1733683347702026,-0.4693221151828766
1772808265490323700,1.12232373046875,3.25081673592627,3.7041602231293913,0.2262360190654173,-0.557773768901825,-0.464839220046997,-0.0251707918941974
1772808265510376200,1.142376220703125,2.4664251848459244,4.249048021563888,-0.6080345384275541,-0.3145872354507446,-0.245354950428009,-0.15041384100914
1772808265530424300,1.16242431640625,1.4329887303143738,2.576613990792632,-0.2800788693414069,-0.0316054970026016,-0.4589614868164062,-0.1836350709199905
1772808265550473200,1.18247314453125,1.912145288687944,2.5805858170330525,-0.3636787426406517,0.0099842241033911,-0.6734885573387146,-0.3976556360721588
1772808265570522400,1.2025224609375,0.7880255236685275,0.6868570595234632,-0.0596013590037822,-0.254001647233963,-0.8536609411239624,-0.4092568755149841
1772808265590571500,1.222571533203125,-1.3523013286620378,-0.8443588207870721,-0.1841649464573711,-0.4452569782733917,-0.3367095291614532,-0.315876841545105
1772808265610620200,1.2426201171875,-4.474369519600272,-2.647400176155567,-0.750594203157723,-0.3410738706588745,0.1241422146558761,-0.294392466545105
1772808265630668300,1.262668212890625,-7.627921228560805,-5.284501661136746,-1.1441870590794831,-0.1668126881122589,0.0236786007881164,-0.4620182514190674
1772808265650717200,1.28271728515625,-10.102209986388685,-7.38352152056694,-0.9435333346359432,0.0154171530157327,0.0735331773757934,-0.4968118369579315
1772808265670766300,1.302766357421875,-13.191736674684286,-9.673476624307035,-0.1371090346414595,0.2190023809671402,0.0596192106604576,-0.2014552801847458
1772808265690815200,1.322815185546875,-16.79831505998373,-11.913833876663446,-0.5950162495635449,0.3383103311061859,-0.4077467620372772,-0.1400215923786163
1772808265710864400,1.342864501953125,-18.78337711632252,-12.19695406819582,-1.7797411438018085,0.5647890567779541,-0.1945906728506088,-0.1355540007352829
1772808265730913300,1.362913330078125,-18.339905034792423,-10.929870770353078,-2.304557337327301,1.0831314325332642,0.6584182977676392,-0.1561878621578216
1772808265750961400,1.38296142578125,-13.93843766979575,-9.709732763558623,-1.5446645599484443,1.2868727445602417,1.2058521509170532,-0.1901447474956512
1772808265771010300,1.40301025390625,-8.719383171081542,-8.42432704256177,-0.5601406779501586,1.296844720840454,0.977756917476654,-0.2525111734867096
1772808265791059200,1.42305908203125,-4.578069548049569,-6.140712832280993,-0.1710628883000463,1.466921329498291,0.4242392778396606,-0.3035542666912079
1772808265811108400,1.4431083984375,-0.3068628861695527,-2.1477771683365106,-0.9633462155435234,1.6511300802230835,0.3471264839172363,-0.531126856803894
1772808265831157200,1.4631572265625,3.885803322958946,2.504934655982256,-1.4266606963366268,1.7275630235671997,0.7464898824691772,-0.7485093474388123
1772808265851205400,1.483205322265625,6.5591229532688855,6.59348699516356,-1.448050105845928,2.0029985904693604,0.9134688377380372,-0.830535888671875
1772808265871254300,1.503254150390625,8.279206039443611,9.600680852687358,-0.5061450299989432,2.307314872741699,0.9303552508354188,-0.3415399193763733
1772808265891303400,1.523303466796875,8.496640583622455,11.17364328635931,0.1229757337402552,2.8799941539764404,0.1373874843120575,0.2168319374322891
1772808265911352300,1.543352294921875,9.53096492690444,11.825302191251517,0.3202965874340385,3.168807983398437,-0.6624767184257507,0.5384230017662048
1772808265931401200,1.563401123046875,10.071327356868984,12.13430384301543,0.6698931383062153,2.8207852840423584,-1.1296069622039795,0.7182711958885193
1772808265951450400,1.583450439453125,10.07325043388605,13.022317681133746,-0.0888607712358236,1.8943026065826416,-1.0792042016983032,0.4520628750324249
1772808265971498200,1.603498291015625,8.655558056902885,13.747026624667644,-0.3091931557480246,0.8814485669136047,-0.7872137427330017,-0.0993591547012329
1772808265991547400,1.62354736328125,7.198403438103199,14.347739770698546,0.2328040358114987,-0.0239139292389154,-0.5787291526794434,-0.592552661895752
1772808266011596300,1.64359619140625,5.799121747079491,15.054259562069175,0.9031076546147464,-0.6594260931015015,-0.4093713462352752,-0.8325908780097961
1772808266031645200,1.663645263671875,4.284583445325493,15.29452260864973,2.2426190598085523,-0.872416079044342,-0.3190232515335083,-0.4577155411243438
1772808266051694300,1.6836943359375,3.856819512797892,15.032044223129748,2.93628375352025,-0.8732578754425049,-0.2740935981273651,0.2347425818443298
1772808266071742200,1.7037421875,3.925252120772004,14.289614913988112,2.8723037410408256,-0.8900430798530579,-0.2801973521709442,0.8448590040206909
1772808266091791400,1.723791259765625,4.588221524229645,13.076874616229532,1.8705360979706047,-1.1533594131469729,0.1084943413734436,1.175491213798523
1772808266111840300,1.74384033203125,4.738232052955032,11.515693805766103,0.6808180716201663,-1.5138157606124878,0.6638907790184021,1.2260727882385254
1772808266131889400,1.763889404296875,4.586659681740403,8.618497031009197,0.5123742067120969,-1.8121311664581297,0.7129168510437012,1.2738947868347168
1772808266151938300,1.783938232421875,3.6544507280647753,4.74830394963622,0.3681220223177224,-2.5075466632843018,0.030681999400258,1.2703416347503662
1772808266171987200,1.8039873046875,-0.488036614921689,0.1549795493096113,-0.8718206820778548,-3.4288458824157715,-0.8301977515220642,1.0444996356964111
1772808266192035000,1.82403515625,-9.365212639167904,-5.259042810231447,-3.2114854270130397,-3.919379711151123,-0.8588114976882935,0.659687876701355
1772808266212084200,1.844084228515625,-17.706967196983097,-8.116426045516134,-6.320873584598303,-3.595327854156494,0.8076363801956177,0.0695101171731948
1772808266232133400,1.86413330078125,-22.152575317001343,-13.131665360081197,-5.207667427781224,-3.4090044498443604,1.6138300895690918,-0.2407420426607132
1772808266252182300,1.884182373046875,-23.67637712166309,-17.550255709314346,-3.4834608319357034,-2.7607181072235107,1.89873206615448,-0.2448883056640625
1772808266272231400,1.9042314453125,-23.07176638367176,-21.122792708802223,-1.39618504018262,-1.856938123703003,1.494989275932312,0.1943672001361847
1772808266292279300,1.924279296875,-22.496330302238466,-23.396040423369406,-0.8572447519756853,-0.882007360458374,0.4637227058410644,0.633389413356781
1772808266312328400,1.944328369140625,-22.39920614504814,-22.478708136308192,-2.4469940697975456,0.4372645914554596,-0.1578540503978729,0.5974782109260559
1772808266332377000,1.964377197265625,-18.67704440128207,-18.75414517661929,-3.629503333812952,1.5422987937927246,0.287002831697464,0.3101928234100342
1772808266352426200,1.98442626953125,-12.3421645031631,-13.265984983199834,-3.065196549159288,2.2257320880889893,0.5413352251052856,-0.0602954290807247
1772808266372475400,2.004475341796875,-6.810783592176437,-6.120674252858757,-2.381097117780894,2.8233892917633057,0.2663804888725281,-0.34096759557724
1772808266392524300,2.024524169921875,-1.1143886445999145,1.671867629060149,-2.264494499269128,3.5302810668945312,0.4139745533466339,-0.3632100522518158
1772808266412572400,2.044572509765625,5.080766556486487,7.8618509804666035,-1.776588378859311,3.6809520721435542,0.6471785306930542,-0.2613260149955749
1772808266432621300,2.064621337890625,9.534279750540852,11.933236496269702,-1.234626258613169,3.3290722370147705,0.5440143346786499,-0.2756660580635071
1772808266452670200,2.084670166015625,11.824739881193636,14.626781168484689,-0.7165457300182432,2.6945040225982666,0.2779651582241058,-0.3427407145500183
1772808266472719000,2.104718994140625,12.096188339632748,15.649348438477515,0.0319652371246367,2.180284261703491,0.3416292369365692,-0.2105777263641357
1772808266492768300,2.124768310546875,11.590820066159964,15.431405944776534,1.0796812691602855,1.871325969696045,0.1599102616310119,0.0847697407007217
1772808266512812800,2.144812744140625,11.179843894565105,14.568539407396315,1.62668613281399,1.3344416618347168,-0.4843127131462097,0.2914261519908905
1772808266532862000,2.164862060546875,9.92666169630289,13.551397669583558,1.077479667462781,0.5245427489280701,-0.7520548701286316,0.1760545521974563
1772808266552910800,2.184910888671875,7.993640792846679,12.89047175465226,0.3223552735295146,-0.3089728057384491,-0.485305517911911,-0.1494447737932205
1772808266572960000,2.2049599609375,6.126624685695767,12.426633761441709,-0.1026765306204557,-0.9557311534881592,0.0635697618126869,-0.4971852004528045
1772808266593008600,2.225008544921875,4.762110356670618,12.244013925534484,0.196338929984346,-1.3019182682037354,0.5731791257858276,-0.5665336847305298
1772808266613057800,2.245057861328125,3.708450613799691,12.08102584181428,1.0363621327199042,-1.20436429977417,0.1987627744674682,-0.3688373863697052
1772808266633105700,2.265105712890625,3.708538876605034,11.894421904706954,1.6441811652332543,-0.922900140285492,-0.2614378035068512,0.1660431325435638
1772808266653154800,2.28515478515625,4.406923876836896,11.399946781170367,1.139550485320017,-0.8415244817733765,-0.1479460746049881,0.6250596642494202
1772808266673204000,2.305203857421875,4.666991694083809,10.37353569523096,0.2724379078678786,-1.041318655014038,0.2241610139608383,0.814477801322937
1772808266693252900,2.3252529296875,3.843891934424639,8.61880975022018,-0.395988299690932,-1.091144561767578,0.3642312288284302,0.8020980954170227
1772808266713302000,2.345302001953125,2.7037808195471764,5.660034763428569,-0.2742429479958489,-1.2646939754486084,0.0592656768858432,0.8851068615913391
1772808266733350000,2.365349853515625,-0.2071364375263452,0.691290658056736,-0.0912894962200894,-1.625814437866211,-0.6060544848442078,0.9074959754943848
1772808266753398800,2.385398681640625,-6.392552919408678,-5.667839884221554,-0.8692118878189474,-2.344368696212769,-1.1352955102920532,0.5587461590766907
1772808266773447700,2.40544775390625,-14.83533857872486,-10.945182905775308,-3.192867528043687,-2.5772082805633545,-0.1677464246749878,-0.2713470757007599
1772808266793496800,2.425496826171875,-21.18685864599943,-14.388061259692906,-3.188819713957608,-2.56766939163208,1.3057903051376345,-0.9259850382804872
1772808266813546000,2.4455458984375,-25.109405014944077,-17.842614853835105,-0.5519482383400202,-2.3924825191497803,1.5051994323730469,-0.8709561228752136
1772808266833593900,2.46559375,-27.755701613771915,-19.86794813028574,0.5261221615575253,-1.1575582027435305,1.0624593496322632,-0.1296470910310745
1772808266853643000,2.48564306640625,-25.44085230727196,-22.69284889963865,0.4809961948908865,0.4667470455169678,0.3283194303512573,0.6357665061950684
1772808266873692000,2.50569189453125,-20.303264962410925,-21.551275310993194,-1.4361892799213527,1.7329981327056885,-0.4284348487854004,0.4304825365543365
1772808266893740800,2.52574072265625,-12.734301534253358,-17.226899368983506,-2.5973259394317862,1.97504460811615,-0.2673670351505279,-0.3805732727050781
1772808266913789700,2.545789794921875,-6.314498788869381,-11.223981142455338,-2.9469895641908046,1.7116189002990725,0.450613409280777,-1.2216057777404783
1772808266933838800,2.5658388671875,-2.655164964938164,-3.343944516956806,-2.116711583465338,1.808553457260132,0.940064013004303,-1.5625417232513428
1772808266953886700,2.58588671875,0.6393108799725771,4.413004658055305,-1.033028750513494,2.421391010284424,0.951789915561676,-1.1889326572418213
1772808266973935900,2.605935791015625,4.533105201685428,10.366406866264343,-0.3901772753246128,2.83819580078125,0.5955342650413513,-0.3964405357837677
1772808266993985000,2.625985107421875,7.390448104959725,14.541548524618149,-0.8164721582129597,2.994208812713623,0.2460463345050811,0.1955314874649047
1772808267014034000,2.646033935546875,9.538495322409272,16.39990961614847,-0.7860745357312262,2.7646172046661377,0.085564523935318,0.6029343605041504
1772808267034082800,2.666082763671875,11.003818634617328,16.491083340501785,-0.6807971749626099,2.376737356185913,-0.1702552735805511,0.7514709234237671
1772808267054131700,2.686131591796875,11.778006187069415,15.29678120123148,-0.2268256189890205,1.670264720916748,-0.6308480501174927,0.7746918797492981
1772808267074179800,2.706179931640625,11.232135222816469,14.124054933953284,-0.368626830034703,0.6419633030891418,-0.9984428882598876,0.5221912264823914
1772808267094228700,2.726228759765625,9.06286576911807,13.14877782292366,-0.8935748332463205,-0.471764326095581,-0.8472221493721008,0.0401741042733192
1772808267114278000,2.74627783203125,6.006489070752263,12.475973254150151,-1.5802371008500455,-1.0751163959503174,-0.3077954947948456,-0.6655237078666687
1772808267134327000,2.7663271484375,4.701226556640863,11.848702940583228,-0.8206275243267417,-1.5242198705673218,0.3350147604942322,-1.0380772352218628
1772808267154375700,2.786375732421875,3.3918256275504826,11.316138032627103,0.5326686605915427,-1.6596202850341797,0.5238960981369019,-0.8917966485023499
1772808267174423800,2.806423828125,2.326396536430716,10.970210964047908,1.3617339045263823,-1.2303324937820437,0.3596363067626953,-0.3981925845146179
1772808267194472700,2.82647265625,3.155762955269217,10.36693761214018,1.4461284901335834,-0.8872890472412109,0.2366158217191696,0.1393821537494659
1772808267214521900,2.84652197265625,4.358748167210817,9.485261744871735,0.8122130394637584,-0.8231942653656006,0.3427982032299042,0.4364293217658996
1772808267234570800,2.86657080078125,4.954802673780918,8.35681125717163,0.2543704823881387,-0.9493345022201538,0.4287564754486084,0.5647657513618469
1772808267254620000,2.886619873046875,4.6222126411587,6.94737057570517,-0.0545258093051612,-0.9050627946853638,0.4520333409309387,0.7248837351799011
1772808267274667800,2.906667724609375,4.446050018566846,4.797310849389434,-0.1693073498696088,-0.7994006872177124,0.2787814736366272,0.8744986057281494
1772808267294717000,2.926717041015625,4.751392563301325,0.8983271423399448,0.1055756130628287,-1.1127086877822876,-0.1790226697921753,0.8663772344589233
1772808267314765800,2.946765869140625,2.15025904828012,-4.727375727897882,0.997943993128836,-2.289901733398437,-1.472421407699585,0.6842848658561707
1772808267334814700,2.966814697265625,-7.251086396020651,-9.788145790538191,-0.2811581707444042,-3.019240140914917,-2.10292911529541,0.3039745986461639
1772808267354863900,2.98686376953125,-18.556926321995256,-12.960283542025088,-2.798684085817635,-3.3716015815734863,-1.138986349105835,-0.0145192258059978
1772808267374911700,3.006911865234375,-26.61386148314476,-16.062190403944253,-3.846244342769682,-3.650468587875366,0.6673012971878052,-0.4737157821655273
1772808267394961000,3.0269609375,-31.72357414813041,-19.288796827721598,-0.47487004016079,-2.6572093963623047,1.5116908550262451,-0.1512137502431869
1772808267415009800,3.047009765625,-31.75859402358532,-22.90133850533962,5.109336232888698,0.0334914922714233,0.210920512676239,1.4727380275726318
1772808267435059000,3.067058837890625,-24.71552844671011,-22.385170605432982,4.852971654073894,2.4311153888702397,-1.1037991046905518,2.441986322402954
1772808267455107800,3.08710791015625,-14.029165988469122,-17.87221738041639,0.5332072244476527,3.4404263496398926,-0.8091935515403748,1.9110347032547
1772808267475156700,3.10715673828125,-4.181757277101278,-12.156306415987014,-3.2475551037818198,2.914464235305786,0.2800289392471313,0.3583411276340484
1772808267495204900,3.127204833984375,1.4098966085404157,-5.079319280287623,-4.432191004562378,1.8402695655822756,1.4162873029708862,-1.1251808404922483
1772808267515253200,3.147253173828125,3.4823142922490837,2.4072563720405102,-3.722504858115315,1.3868930339813232,1.8032596111297607,-1.8430607318878172
1772808267535302400,3.167302490234375,3.722406073915958,8.84852100764811,-1.3756215601034465,1.8781718015670776,1.6513129472732544,-1.1355141401290894
1772808267555351300,3.187351318359375,3.907752119916677,13.135296410059928,-0.3314781258575618,2.925855159759521,0.4207491278648376,0.0175049174576997
1772808267575400400,3.207400390625,7.229609308227896,15.189776286017894,-1.144790431800112,2.963330030441284,-0.175748199224472,0.5829848051071167
1772808267595448300,3.2274482421875,9.19509338839352,15.591661973184346,-2.084502089256048,2.2052929401397705,-0.0885798037052154,0.4110199511051178
1772808267615497500,3.24749755859375,9.344264543685316,14.513245974719524,-1.401723823478818,1.3097649812698364,-0.0764727964997291,0.1027511730790138
1772808267635546000,3.267546142578125,8.654178000721334,13.967491914844512,-0.8504908938013017,0.695067822933197,-0.1769810169935226,-0.0710762217640876
1772808267655595300,3.28759521484375,8.281272324323654,12.994157754576204,-0.1391170134630054,0.0748134031891822,-0.4747247099876404,-0.1041055619716644
1772808267675644400,3.30764453125,7.319999773249029,12.476537902295588,-0.0409424704369157,-0.478685051202774,-0.6753833889961243,-0.1185616627335548
1772808267695693300,3.327693359375,5.694241568934917,12.11983458815813,0.1675027846656739,-0.638739287853241,-0.4943218827247619,0.063488058745861
1772808267715741400,3.347741455078125,4.581190894940495,11.277585306870936,0.6067869860518723,-0.5908870697021484,-0.4457960426807403,0.3944045901298523
1772808267735790300,3.367790283203125,4.307880734282731,10.352285986453294,0.4420052969131618,-0.5111154913902283,-0.4836854934692383,0.6715596914291382
1772808267755839200,3.387839111328125,4.729845917403698,9.345895944279432,-0.1082846162931993,-0.5451011657714844,-0.4667066633701324,0.758753776550293
1772808267775888100,3.40788818359375,5.400299539136887,8.398672961345314,-0.35158144107908,-0.7501883506774902,-0.4431960880756378,0.7521598935127258
1772808267795937300,3.427937255859375,4.552743383613229,8.015780728462339,-0.8648873756833374,-0.513302206993103,-0.2274556159973144,0.6878489851951599
1772808267815985200,3.447985107421875,4.288611385667324,6.879725026455521,-0.5253337145935744,-0.0787040591239929,-0.094091847538948,0.7893692255020142
1772808267836034300,3.468034423828125,5.315368508565426,4.831495443063974,-0.0363909720118623,0.0228884927928447,-0.4773772954940796,0.873490035533905
1772808267856083500,3.48808349609375,6.78116236089468,1.113199727076292,0.6398419181093573,-0.2619254291057586,-0.734647274017334,0.8622437715530396
1772808267876132400,3.50813232421875,5.954523905715346,-6.0581333332717415,1.913185006999224,-1.92435085773468,-1.992849349975586,0.9124773740768432
1772808267896181200,3.52818115234375,-6.432810695517063,-13.359640587496756,-0.502515002933517,-3.450819969177246,-3.980312824249268,0.6571615934371948
1772808267916229400,3.5482294921875,-21.55987479703426,-17.00659657589197,-6.642929363724589,-2.7097718715667725,-2.470235109329224,0.3359729051589966
1772808267936278300,3.5682783203125,-27.977221381437776,-19.632865116691587,-10.18802247596979,-1.887409210205078,0.2517550587654114,-0.0995483621954917
1772808267956327200,3.5883271484375,-27.428822944533824,-22.42472870883941,-8.210024366667867,-1.1923236846923828,1.4961426258087158,-0.4560133814811706
1772808267976376300,3.608376220703125,-23.02025363857746,-22.20287693274021,-4.700350358328223,-0.1369218379259109,1.5465409755706787,-0.1938010454177856
1772808267996425500,3.628425537109375,-16.722640518057347,-20.407597443544866,-2.5555980907708404,0.8182076215744019,0.6969972252845764,0.4747631251811981
1772808268016473300,3.648473388671875,-10.785525427782536,-16.26614762691259,-2.586714821307361,1.6679726839065552,-0.133463829755783,1.034810185432434
1772808268036522500,3.6685224609375,-5.265784685707092,-10.260996526765824,-2.6944217473104595,2.2603442668914795,-1.4311944246292114,1.046486258506775
1772808268056571100,3.688571044921875,-1.1745324399173258,-2.496022450730204,-4.271910426235198,2.9845118522644043,-1.4351876974105835,0.1497567296028137
1772808268076620300,3.708620361328125,3.5252608690500256,3.2252152616798875,-3.749440795835852,2.583413600921631,-0.064449056982994,-0.8989068269729614
1772808268096669200,3.728669189453125,5.816102692496776,7.575549820810556,-1.3854812753386794,1.7700536251068115,0.911207675933838,-1.6163884401321411
1772808268116717300,3.74871728515625,6.29463731957972,11.592983966195582,1.0928956285856664,1.4836088418960571,0.7718513607978821,-1.8682585954666135
1772808268136766200,3.76876611328125,6.58785395771265,14.189137939238549,3.293914119374752,1.5461481809616089,0.0421890877187252,-1.5478525161743164
1772808268156815400,3.7888154296875,6.979614556705951,15.402806457757949,4.314795628237724,1.4925947189331057,-0.5005156993865967,-0.9542028307914734
1772808268176864500,3.808864501953125,6.766023828473687,15.18029066479206,4.398251617820561,1.309121012687683,-1.0599650144577026,-0.5177626609802246
1772808268196913200,3.8289130859375,6.989721524700522,14.71609377514124,3.295905877713859,0.8621143102645874,-0.808580219745636,-0.3716022074222564
1772808268216961300,3.848961181640625,7.02137513859272,13.810297612094878,2.4462479276053606,0.1135617569088935,-0.4500032663345337,-0.4765598475933075
1772808268237010200,3.86901025390625,6.751461634635925,13.139053716766831,1.916628425451368,-0.6577720642089844,-0.227069616317749,-0.6818487048149109
1772808268257059300,3.889059326171875,5.969383036673069,12.703797674918174,1.3692284980654716,-1.161944031715393,0.1543901413679123,-0.8220071792602539
1772808268277108200,3.909108154296875,4.82734299955964,12.115091777545214,1.1612015414401888,-1.2495442628860474,0.2910797297954559,-0.7822972536087036
1772808268297157400,3.929157470703125,4.246670186516642,11.31252919448018,1.31039958473891,-1.1369993686676023,0.1951235830783844,-0.4971253871917724
1772808268317206300,3.949206298828125,4.076756687447428,10.148515810489654,0.9387674354083836,-1.0651944875717163,-0.050613597035408,-0.2312127500772476
1772808268337254400,3.96925439453125,3.938003465795517,8.974478460612893,0.1739551026102155,-1.0030523538589478,-0.1244711726903915,-0.1152907609939575
1772808268357303300,3.98930322265625,3.870512230324745,7.722500377443432,-0.4760872339308261,-0.9352196455001832,0.2276045829057693,-0.1365875750780105
1772808268377352200,4.009352294921875,3.957704776087403,5.840641505947708,-0.4759338700000196,-1.016727089881897,0.4390316903591156,-0.0801887810230255
1772808268397401300,4.0294013671875,4.1976451665848495,3.648405018159747,-0.4850227469932288,-1.4427778720855713,0.4419322311878204,-0.0778552442789077
1772808268417450200,4.0494501953125,3.9287405474096535,0.4866711717873811,-0.0937047772008925,-2.409247398376465,0.3470215797424316,-0.198103442788124
1772808268437498400,4.069498291015625,-2.04667592420876,-3.1846283997476097,0.94328060198389,-3.299276351928711,-0.3793619871139526,-0.3424232304096222
1772808268457547300,4.08954736328125,-12.203879483544826,-8.335344106251,1.536658655886352,-3.364623785018921,-1.1677377223968506,-0.3362159729003906
1772808268477596200,4.10959619140625,-20.88627878562212,-11.41236436419487,-0.410397348793596,-3.0356199741363525,-0.781111478805542,0.1166215911507606
1772808268497645300,4.129645263671875,-26.18721661777496,-14.87545782314539,-2.2152913462914525,-2.370056390762329,0.4330942332744598,0.2465561032295227
1772808268517694700,4.14969482421875,-27.1493443243742,-18.284588221240043,-1.576765040825307,-1.5803265571594238,0.8969680666923523,0.2555690109729767
1772808268537742600,4.16974267578125,-24.6293816106081,-20.397225687134263,-0.7182225771892815,-0.5905011296272278,0.5583937168121338,0.2491620481014251
1772808268557791700,4.189791748046875,-19.382405670267342,-19.492125105136637,-0.2493091438779607,0.1357562094926834,0.3673535585403442,0.0497043505311012
1772808268577840600,4.209840576171875,-13.393027308791876,-15.86911230238676,-0.3184955658940598,0.4527979791164398,0.6838549375534058,-0.4545718729496002
1772808268597889500,4.2298896484375,-7.905998749750852,-11.154031407916545,-0.5366472818989306,0.7903594374656677,0.919924259185791,-0.908957064151764
1772808268617938700,4.249938720703125,-3.520661266300082,-5.931386191233992,-0.4423470230229199,1.5392926931381226,0.6902175545692444,-0.947337806224823
1772808268637986600,4.269986572265625,0.0196674080222845,-0.3622445816516876,-0.862303569735214,2.572101593017578,0.3271039128303528,-0.6985654830932617
1772808268658035700,4.29003564453125,3.81774159412384,4.441103209814429,-1.6078396857857704,3.3126885890960693,0.118236094713211,-0.5286298990249634
1772808268678084600,4.310084716796875,7.557011709079146,8.217511507552862,-1.8753899677425625,3.3225042819976807,0.0601493194699287,-0.500496506690979
1772808268698133800,4.3301337890625,9.625943888759611,11.023402456009388,-1.6168918840304016,2.8682515621185303,0.2277141213417053,-0.5989903807640076
1772808268718182700,4.3501826171875,10.298352151691914,12.61497489760518,-0.5151290583781898,2.088567018508911,0.2010737955570221,-0.5988327264785767
1772808268738230800,4.370230712890625,8.566245450246333,13.090525540441272,0.1681169710412621,1.512703776359558,0.0862613916397094,-0.4324601292610168
1772808268758279700,4.39027978515625,5.853633673989773,13.786412878638505,-0.0028911913968622,1.4119209051132202,0.1897688508033752,-0.207318514585495
1772808268778328600,4.41032861328125,4.283901892802119,13.916816205096245,-0.0656771717861294,1.414907455444336,0.276069313287735,0.0461485683917999
1772808268798377700,4.430377685546875,4.732307339081168,13.868200350487232,-0.4601308092556893,1.155746340751648,0.123651310801506,0.0752377063035965
1772808268818426600,4.450426513671875,5.9064124934971325,13.354852184176444,-1.1614423644587395,0.609701931476593,0.154817059636116,0.0020838351920247
1772808268838474800,4.470474853515625,6.100549164196848,13.261805651688576,-1.7410697601020335,0.1401229500770568,0.4836238622665405,-0.0866438746452331
1772808268858523600,4.490523681640625,5.913774546697735,12.543879500162602,-1.4816878792926669,-0.134891077876091,0.5020080804824829,-0.0827568098902702
1772808268878572800,4.51057275390625,5.728064928081631,11.384431232130527,-0.9560106850236654,-0.2176033854484558,0.2854209542274475,0.0832419171929359
1772808268898621400,4.530621337890625,4.862864394795895,9.844700036931036,-0.6916700127631425,-0.0701490938663482,0.0776703655719757,0.360656589269638
1772808268918670600,4.550670654296875,4.226497751581668,7.13501028560102,-0.601297521790117,0.1305495798587799,-0.2068584859371185,0.5791323781013489
1772808268938718500,4.570718505859375,4.511259865102172,4.114381776964664,-0.7122726558089256,-0.0291366968303918,-0.3112831115722656,0.6554815173149109
1772808268958767600,4.590767578125,4.425568956074119,0.4585317034959792,-0.6953650678887963,-0.4054747521877289,-0.2967656254768371,0.5990918874740601
1772808268978816800,4.610816650390625,3.2598540288627147,-2.695963423794508,-0.388313819540292,-1.325652837753296,-1.0452135801315308,0.4059900939464569
1772808268998865700,4.63086572265625,-1.5210843623965975,-6.249698692178725,-0.6265220524828881,-1.964031457901001,-1.234957933425903,0.0801108032464981
1772808269018914800,4.650914794921875,-8.517869249612092,-10.634103863215444,0.416301531336084,-1.798450589179993,-0.8656098246574402,0.4092994332313537
1772808269038962700,4.670962646484375,-14.81167011836767,-15.245888049340246,-0.4602754784233868,-0.9250775575637816,-0.9072709679603576,0.7875717282295227
1772808269059011600,4.691011474609375,-16.537969010317326,-19.583907901299,-1.3014279043845831,-0.4529621303081512,-0.7740698456764221,0.4680715501308441
1772808269079060500,4.711060546875,-15.591815117919444,-22.55096205613613,-1.9987958365283904,-0.6929196119308472,0.2013392150402069,-0.0816833600401878
1772808269099109600,4.731109619140625,-14.871694671219586,-22.91740116686821,-1.8939513142190876,-0.5055341720581055,1.0095930099487305,-0.6213822960853577
1772808269119158800,4.75115869140625,-13.171599895584585,-20.770445251786708,-0.8069632291767745,0.094020128250122,0.82728111743927,-0.9413902163505554
1772808269139206700,4.77120654296875,-10.436422067254782,-16.081469104909896,-0.4133993801537901,0.6584792733192444,0.488847404718399,-1.2356617450714111
1772808269159255800,4.791255859375,-6.751928667625784,-10.17938674957156,0.1912486941732466,0.9324750900268556,0.6800258755683899,-1.396031618118286
1772808269179304700,4.8113046875,-5.28460745959878,-3.678720076924562,1.5381133847393094,1.592787504196167,0.8097094297409058,-0.9585384130477904
1772808269199353600,4.831353515625,-3.2580145384758707,2.26893043588996,1.5407638992480932,2.4866113662719727,0.4774129986763,-0.3278157711029053
1772808269219402800,4.85140283203125,0.2486468440443277,6.963643080592155,0.7380157304830849,2.97355580329895,0.1534562110900879,0.06459691375494
1772808269239450600,4.87145068359375,4.015962319266796,10.444545752477644,-0.1916007224813103,2.7185733318328857,0.4224125146865845,0.1462892442941665
1772808269259499800,4.891499755859375,5.970408872589468,12.663916915428638,-0.6515113131150603,2.171329498291016,0.7117317318916321,-0.0003384100273251
1772808269279548700,4.911548583984375,6.714754829007386,13.42030343825221,-0.432927598901093,1.7306787967681885,0.729306697845459,-0.0300427302718162
1772808269299597800,4.931597900390625,7.222195817101001,13.839932871901988,-0.2799151118807494,1.2702122926712036,0.5266347527503967,0.0468174628913402
1772808269319645700,4.951645751953125,6.886262903791666,13.5872767922163,-0.3948668944455683,0.8941087126731873,0.3158612549304962,0.1649998277425766
1772808269339694800,4.97169482421875,6.223975052857399,12.951370752251147,-1.0548553823962807,0.517428994178772,0.0716048926115036,0.2029777765274047
1772808269359743500,4.991743408203125,5.352606060069799,12.19548107303381,-2.137754225363582,0.1639498323202133,0.1401559114456176,0.058946706354618
1772808269379792600,5.011792724609375,4.322137223172188,11.20042607934475,-2.534552380132675,-0.1848160028457641,0.3237263858318329,-0.0247902013361454
1772808269399841800,5.031841796875,3.1357606162041423,10.548729765051602,-2.739436654818058,-0.303362101316452,0.3233112692832947,-0.1219417601823806
1772808269419889700,5.0518896484375,2.6895377746611837,10.0508889644742,-2.519897247314453,-0.3347193896770477,0.20351542532444,-0.1453273892402649
1772808269439938800,5.071938720703125,2.2052806782782075,9.791762227469684,-2.229644719684124,-0.2456085681915283,0.0863265171647071,-0.1291089951992035
1772808269459987700,5.09198779296875,2.154200771643221,9.36725378960669,-1.77284159354642,-0.1818002760410308,0.0959680154919624,-0.0829600840806961
1772808269480036600,5.11203662109375,2.2867066233381625,8.696239611381293,-1.2852611979596316,-0.2475493252277374,0.0766662582755088,-0.0462286956608295
1772808269500085500,5.13208544921875,1.944647336103022,7.432603823643922,-1.0648637123219669,-0.2701125741004944,0.0227406155318021,0.0278662331402301
1772808269520133000,5.152133056640625,1.9351500244393944,5.368187660083175,-0.3689426179856062,-0.4397438764572143,-0.2214554697275161,0.2021060734987259
1772808269540182000,5.17218212890625,1.1306681637495757,2.317503035879135,-0.0896973681904375,-0.8971092700958252,-0.7664433717727661,0.2607460021972656
1772808269560231200,5.192231201171875,-1.5939078988060351,-1.380322723531723,-0.3830501999236643,-1.3678464889526367,-0.9418950080871582,0.2889147102832794
1772808269580280000,5.212280029296875,-4.498281141063571,-6.704710404855012,0.4132259963482618,-1.2916773557662964,-0.3512580394744873,0.4558855295181274
1772808269600329200,5.2323291015625,-6.909599940237403,-13.00692488169074,2.115206877990812,-0.7749728560447693,-0.5584931969642639,0.9358657598495485
1772808269620377000,5.252377197265625,-8.052062586677074,-18.24085195536613,1.4605900000758467,-0.6270784735679626,-1.435479760169983,1.0285159349441528
1772808269640426200,5.27242626953125,-9.500615381348132,-22.415474558281897,-0.0600792787138372,-0.8312920928001404,-1.511765956878662,0.7663670778274536
1772808269660475100,5.29247509765625,-10.535106897890568,-24.799465790069103,-2.65748434779644,-0.9956228733062744,-0.3994611799716949,0.1425717324018478
1772808269680524000,5.31252392578125,-11.160952147090434,-23.747431602573396,-2.7744448398351667,-0.6451607942581177,0.405001699924469,-0.5783770084381104
1772808269700573200,5.3325732421875,-9.71774363605678,-19.970456903123853,-0.4375423992201686,-0.2211816757917404,0.4772442877292633,-0.977649986743927
1772808269720621000,5.35262109375,-6.669993311738968,-13.79431093841195,1.6380885474465787,0.0178894866257905,0.4990779161453247,-1.2000243663787842
1772808269740670200,5.372670166015625,-4.906795890980959,-7.507715470990538,3.262102684572339,0.4975524842739105,0.2623541057109833,-0.8425012826919556
1772808269760719000,5.392718994140625,-4.168395691224933,-1.2078718149393797,2.8451608825713395,1.5780102014541626,-0.4269399046897888,-0.1587152332067489
1772808269780768300,5.412768310546875,-1.7028285845130682,3.7018501926213503,0.9042308134257792,2.257199764251709,-0.907598912715912,0.2551995515823364
1772808269800817000,5.43281689453125,1.6217723495483398,6.911863793516159,-1.2877467311650517,2.032643318176269,-0.3068668246269226,0.2157466560602188
1772808269820865300,5.452865234375,3.315306159232557,9.038775283956529,-2.1359503908120097,1.4909709692001345,-0.006088538095355,-0.095401830971241
1772808269840914000,5.472913818359375,4.040416377043724,10.926989077436923,-1.724863890710473,1.240553617477417,-0.0647853016853332,-0.2287209928035736
1772808269860963000,5.492963134765625,4.081842612409592,12.402536262017488,-0.7499851313486695,1.3715900182724,-0.2005429863929748,0.0001659099943935
1772808269881012200,5.51301220703125,4.999692785865068,13.116458438599109,-0.5599617411866784,1.394734263420105,-0.3475840389728546,0.1524454653263092
1772808269901060000,5.53306005859375,6.506615936440229,13.114847496271132,-0.7618788366295397,0.7536944150924683,-0.3536434769630432,0.1396884471178054
1772808269921109200,5.553109130859375,5.882876135087013,13.076921377980709,-1.597324283120781,0.1866392940282821,-0.0635184273123741,-0.1455928683280944
1772808269941158100,5.573158203125,4.730778229817748,12.889497941184043,-1.587565105650574,-0.1399131119251251,0.3359941244125366,-0.2970865070819855
1772808269961207000,5.59320703125,3.722095692792535,12.753047151255608,-1.4462472942076623,-0.3272312879562378,0.4012030065059662,-0.315146803855896
1772808269981256000,5.613255859375,3.225926332558691,12.438036614465712,-1.7140673330165446,-0.4561585485935211,0.3250711262226105,-0.3989602625370025
1772808270001304000,5.633303955078125,3.174502727052569,11.76024139779806,-1.2926461936444045,-0.7363663911819458,0.1716441661119461,-0.3927860856056213
1772808270021353000,5.65335302734375,2.53472949026525,11.420968526411055,-0.995963632966578,-0.8422167897224426,0.070483848452568,-0.2945224046707153
1772808270041402000,5.673402099609375,2.0639231193467973,10.807697512102129,-0.7938399090357124,-0.7982887029647827,0.027362210676074,-0.1679900586605072
1772808270061451300,5.693451171875,2.1902327467501164,9.749172209021449,-0.4655449432589113,-0.8427144885063171,-0.0349622406065464,-0.0330226123332977
1772808270081500200,5.713500244140625,2.2072081392094494,8.200586676236986,-0.176973208322376,-0.8360669016838074,-0.1146783530712127,0.1254019737243652
1772808270101548300,5.73354833984375,3.104261316090822,5.3439048672199245,0.4892185181826353,-1.428470253944397,-0.4879875481128692,0.2591672539710998
1772808270121597000,5.753596923828125,2.182369758290052,1.9018068500250576,0.6676045159123838,-2.2476203441619877,-0.6762810945510864,0.3568232953548431
1772808270141646000,5.77364599609375,-1.9628788661032917,-2.651309458553791,0.4005434787772595,-2.798257350921631,-0.8945448994636536,0.4841712713241577
1772808270161695000,5.793695068359375,-7.1420894302070135,-8.345057106491923,0.955418272088468,-2.232741355895996,-0.5123350024223328,0.6268240809440613
1772808270181743000,5.8137431640625,-9.663656072038412,-16.56484766489267,2.79135447358191,-1.7612512111663818,-0.6280125379562378,0.7843786478042603
1772808270201792000,5.8337919921875,-13.686596413624288,-24.85476389892101,2.2588290208533404,-1.6314101219177246,-1.1255940198898315,0.3609663248062134
1772808270221841200,5.853841064453125,-19.37895348398685,-29.733141504669188,0.174855996972695,-1.4139928817749023,-0.7087576985359192,-0.3779419660568237
1772808270241890300,5.873890380859375,-23.49674185452461,-29.92812631663084,-1.061218926078826,-0.6865135431289673,0.9369500875473022,-1.0103628635406494
1772808270261939000,5.89393896484375,-25.243089847290516,-25.01075408657789,0.358695510867983,1.0721559524536133,1.8782118558883667,-0.6185893416404724
1772808270281987000,5.913987060546875,-20.88275061149597,-17.596694804406166,0.7538720557846128,3.13213849067688,1.0798907279968262,-0.0494700148701667
1772808270302036000,5.934035888671875,-10.223491264235973,-9.829523510587215,0.1122859243564307,3.739384651184082,0.488415002822876,0.2089856117963791
1772808270322085000,5.954085205078125,-0.1562488385930657,-1.879903061252832,-1.2699005472205578,2.765735626220703,0.9193027019500732,0.1780381798744201
1772808270342134000,5.974134033203125,4.322278969730436,4.04277492286861,-1.74214425746575,1.6396803855895996,0.9714428186416626,0.1677929759025573
1772808270362183200,5.99418310546875,3.814546597474813,9.031948068284988,-1.846684682261944,1.7267606258392334,0.3549374341964721,0.4262428879737854
1772808270382231000,6.01423095703125,3.677455463816225,12.149047823160886,-1.7886293836563825,2.4494788646698,-0.1982510834932327,0.7627449631690979
1772808270402280200,6.0342802734375,6.654082625901698,13.427232360732557,-2.014516698881984,2.125882625579834,-0.2899751365184784,0.6646791100502014
1772808270422329000,6.0543291015625,7.781823504027724,14.061892200028897,-1.758215832953155,1.3666776418685913,0.0116511462256312,0.2229796797037124
1772808270442378000,6.0743779296875,6.971947967600822,13.557038305819034,-0.9684418581821024,0.7312620878219604,0.1472708582878112,-0.0951851159334182
1772808270462426000,6.094426025390625,5.608824800673127,13.260157299959658,-0.4395692288726568,0.3642211258411407,-0.0926468223333358,-0.1777035593986511
1772808270482475000,6.11447509765625,4.479685161665082,13.22477735902071,-0.7255765201486647,0.0090420451015234,-0.3069026172161102,-0.2463182508945465
1772808270502524200,6.134524169921875,3.464831242528557,13.237807520985603,-1.065035707888007,-0.3904828131198883,-0.2187400609254837,-0.2775625884532928
1772808270522573800,6.15457373046875,2.6469723061323163,13.123472701275348,-1.4158103626288472,-0.7391135096549988,-0.0312322434037923,-0.3358435332775116
1772808270542622700,6.174622802734375,1.9201193363070488,12.818121973234414,-1.1799449664853512,-0.937540590763092,0.1235777288675308,-0.2375729978084564
1772808270562670600,6.194670654296875,1.4201592054881154,12.209158885252474,-0.9790227272987364,-0.9448339343070984,0.1168847903609275,-0.0970816537737846
1772808270582719700,6.2147197265625,1.5145676739789544,11.51737956689596,-1.0276296679489314,-0.8970853686332703,0.1661603152751922,0.0118517819792032
1772808270602769000,6.234768798828125,1.5658675069749357,10.880934597748515,-0.901757555180043,-0.7767543196678162,0.2278024107217788,0.1360959261655807
1772808270622817800,6.25481787109375,1.8896563935041424,9.96396354521513,-0.6932588893897831,-0.6888303756713867,0.0917779877781868,0.2199301123619079
1772808270642867000,6.274866943359375,2.3008383168041706,8.802128089785576,-0.7741640254460275,-0.7037376761436462,0.0244328845292329,0.2647472321987152
1772808270662914800,6.294914794921875,2.614798467758298,6.999497068783641,-0.8567029001839458,-0.7629529237747192,-0.0950983464717865,0.2929667830467224
1772808270682964000,6.3149638671875,3.987369261988997,3.385916111245751,0.4275827307417988,-1.2473329305648804,-0.4871712327003479,0.240644946694374
1772808270703012600,6.3350126953125,5.499357294738292,-2.593917007771134,2.468138418504596,-2.481058359146118,-1.160149335861206,0.1528283506631851
1772808270723061800,6.355061767578125,1.7908973285883665,-10.08082233044505,3.5168265104427934,-3.6518921852111816,-1.337360978126526,0.0026030633598566
1772808270743109600,6.375109619140625,-7.063888584673404,-14.59421394687891,2.9655475496664643,-3.7298269271850586,-1.3880982398986816,0.580036461353302
1772808270763158800,6.39515869140625,-16.89693559321165,-17.21973196157217,-1.3534519600018855,-2.7621092796325684,-1.8854122161865237,1.5083688497543335
1772808270783208000,6.4152080078125,-21.814406022942062,-20.86770501805544,-6.377484529614448,-2.077243566513061,-1.3025821447372437,1.5597957372665403
1772808270803256800,6.4352568359375,-21.650171738553045,-22.141160773539543,-9.479608833676576,-2.0745785236358643,0.6170864105224609,0.4525555372238159
1772808270823305700,6.4553056640625,-19.15143184555769,-18.179675894391536,-7.389774735742807,-1.7518469095230105,1.9061733484268188,-0.4688494205474853
1772808270843353900,6.475353759765625,-15.029135642206668,-13.316657185816764,-2.051227450033277,-0.823951244354248,1.2798742055892944,-0.36665940284729
1772808270863402800,6.49540283203125,-10.116079521787166,-8.565567989376186,0.7713155772123486,0.4057068824768066,0.1475575417280197,0.0783039256930351
1772808270883451600,6.51545166015625,-4.697455805930495,-5.540879391694069,1.0505166956048455,1.098455786705017,-0.3858785331249237,0.2168969810009002
1772808270903500800,6.535500732421875,-2.177840298166871,-0.9888590616583824,0.6414401470862329,1.9437205791473389,-0.5051735043525696,0.1941563636064529
1772808270923548700,6.555548583984375,1.234579789122939,3.760761815795302,0.6368772961501031,2.53511118888855,-0.1890952885150909,0.2922953069210052
1772808270943597800,6.575597900390625,5.079628492367267,7.685833903825283,0.5129445539459586,2.394258737564087,-0.0193091668188571,0.2185601592063903
1772808270963647000,6.59564697265625,6.957400386810303,10.331100575083491,0.548174382357113,2.119184732437134,0.1537598222494125,0.2368118166923523
1772808270983696000,6.61569580078125,8.108327494734525,12.359500253367424,-0.128108055127412,1.6498723030090332,-0.1655644327402115,0.1054088249802589
1772808271003744800,6.635744873046875,8.864227110823988,13.428914614731072,-0.7151682311199605,0.7909340262413025,-0.1890108287334442,-0.1176369711756706
1772808271023792600,6.655792724609375,7.783889788907766,13.919161306917667,-0.6646370444089174,0.1676869690418243,0.3028883635997772,-0.2683409452438354
1772808271043841800,6.675841796875,6.770762547433376,13.815063803583383,-0.3227666673419997,-0.1610806137323379,0.4537378847599029,-0.3527325391769409
1772808271063890700,6.695890625,6.506212616336345,13.711958818417786,0.0514672985173761,-0.3601570129394531,0.4693085849285126,-0.3047283291816711
1772808271083939800,6.71593994140625,6.156397892668843,12.98573947032094,0.3082137893218546,-0.4444954395294189,0.2882205843925476,-0.1817846596240997
1772808271103989000,6.735989013671875,6.094135790023207,11.46676698551178,0.4705731466844677,-0.5754956603050232,0.2179209589958191,-0.0245722252875566
1772808271124036900,6.756036865234375,5.612540606325864,9.80689199206233,0.6344733768135309,-0.6219097971916199,0.3004445433616638,0.1146607100963592
1772808271144085800,6.776085693359375,4.831756724348664,8.157601520991324,0.7098159833718091,-0.5655025839805603,0.1534546762704849,0.1884632557630539
1772808271164134700,6.796134765625,4.367888335999846,6.666458123350143,0.6547939880475402,-0.5878773927688599,0.040395613759756,0.222751647233963
1772808271184183800,6.816183837890625,3.2852906679362057,4.964561266729235,0.6797823718968778,-0.7374075055122375,-0.2244623899459839,0.3669762015342712
1772808271204231700,6.836231689453125,0.0036357261538505,2.7520407003253697,0.7673712965659797,-0.4882839024066925,-0.3897382915019989,0.7817291617393494
1772808271224280800,6.85628076171875,-2.305822534957528,-1.5827362241894003,0.1781091900823637,-0.1268264502286911,-0.3280207514762878,1.1185117959976196
1772808271244329700,6.876329833984375,-2.977234188067913,-6.640281479564309,-1.034990990497172,-0.4795165359973907,-0.4166761636734009,0.949234127998352
1772808271264379000,6.89637890625,-5.974592295753956,-11.247150421118736,-2.0677492535062134,-0.8849804997444153,-0.0738224536180496,0.5881505012512207
1772808271284427800,6.916427734375,-10.702684647488594,-16.052973662787675,-0.8988261048380285,-0.33435720205307,0.127186581492424,0.6827672719955444
1772808271304476000,6.936475830078125,-12.952944285178184,-19.89431941986084,-0.6435812507681549,0.5233995914459229,-0.6225684285163879,0.9029764533042908
1772808271324524800,6.95652490234375,-12.2285463072896,-21.80037515950203,-1.6859753571286795,0.6463208794593811,-1.2271045446395874,0.7898198366165161
1772808271344573700,6.97657373046875,-12.807318839669229,-22.05203287580013,-3.3135330120801925,0.2356420010328292,-1.3761268854141235,0.2991714179515838
1772808271364622800,6.996622802734375,-13.39346570020914,-18.6846373406291,-5.309886862283944,-0.0289265625178813,-0.1919614821672439,-0.4563988447189331
1772808271384670700,7.016670654296875,-13.562020770406722,-13.678375697767734,-3.2605887728780507,0.7592229247093201,0.4929569065570831,-0.4383188188076019
1772808271404719900,7.036719970703125,-10.600129112899303,-8.139562006431818,-0.674949106521532,2.118281602859497,-0.3829589486122131,0.0511574894189834
1772808271424768800,7.056768798828125,-4.171939062920212,-2.4592548548251387,-0.0946222573719918,2.672219038009644,-0.769607424736023,0.3408850431442261
1772808271444817700,7.076817626953125,0.98298870832026,2.9018928236186503,-0.7041483129989355,2.43523907661438,-0.147279292345047,0.0959890410304069
1772808271464865800,7.09686572265625,4.245856824307143,7.070515893858671,-0.3179229171052575,1.8920499086380005,0.457693487405777,-0.4244687259197235
1772808271484914700,7.116914794921875,5.512745768621564,10.793512334883212,0.7425910755746066,1.4547513723373413,0.5531784892082214,-0.7755205631256104
1772808271504963800,7.1369638671875,5.118704949736595,13.64503456918001,2.5434070099785924,1.4138811826705933,0.1351230442523956,-0.5305382609367371
1772808271525012000,7.157011962890625,5.680387231105565,15.192401958346366,3.037623190318048,1.2802940607070925,-0.2219565659761428,-0.1475651562213897
1772808271545061000,7.17706103515625,6.1614908318936825,15.146203686273097,2.399886135533452,0.7378895878791809,-0.2863940000534057,-0.0980584472417831
1772808271565109000,7.19710888671875,5.678847600448131,14.841228221285345,1.5894424438297747,0.0804620236158371,-0.0677375122904777,-0.2734103202819824
1772808271585158100,7.217158203125,4.766301670880615,14.232212526333331,1.090112573738396,-0.4142172038555145,0.1690922230482101,-0.4336347579956054
1772808271605207000,7.23720703125,3.644358957639336,13.865838882052898,1.1270981232430786,-0.624914824962616,0.355811059474945,-0.3762381374835968
1772808271625256000,7.257255859375,2.855665325450897,13.258264618080853,0.945735740051046,-0.6789271831512451,0.3615352511405945,-0.2979670464992523
1772808271645304000,7.277303955078125,2.435756198076904,12.126037534451484,0.6681137075435369,-0.696026086807251,0.3617678582668304,-0.2772237062454223
1772808271665353000,7.29735302734375,2.541138772785664,10.639062946927549,0.5568221279866993,-0.6963461637496948,0.4647093415260315,-0.2789739966392517
1772808271685402000,7.317402099609375,2.401888707527518,9.185150086528065,0.5077431128453463,-0.6748287081718445,0.4929655194282532,-0.3157017529010772
1772808271705451000,7.337450927734375,2.557723412361741,7.471565714722871,0.4814060908660292,-0.6708502173423767,0.5508870482444763,-0.3503672480583191
1772808271725500200,7.357500244140625,3.45163127695471,4.008955655375122,1.1437040248028931,-0.8089010119438171,0.4742648303508758,-0.2242390513420105
1772808271745548000,7.377548095703125,3.302741568952799,-1.0531564695239066,1.370985424735397,-1.261236310005188,-0.3298088014125824,0.0668969601392746
1772808271765597200,7.39759716796875,0.1829188188537955,-7.733203557765483,0.741739354116097,-1.208166003227234,-1.1435503959655762,0.3804360926151275
1772808271785646000,7.41764599609375,-3.570382451802492,-13.909556443226336,-0.7201448504887521,-0.7233577966690063,-1.5587105751037598,0.6540802121162415
1772808271805695000,7.437695068359375,-7.049742570421099,-15.542785421812534,-3.360413421198725,-0.719828188419342,-1.4719650745391846,0.5197157263755798
1772808271825742800,7.457742919921875,-10.856102938830851,-17.183786203444004,-3.364937328363955,-0.0344374254345893,-0.7651673555374146,0.6750152111053467
1772808271845792000,7.4777919921875,-10.0806551571846,-17.663942878770825,-2.8330089647457,0.4690648019313812,-0.4110155701637268,0.5789139866828918
1772808271865841200,7.497841064453125,-7.388627319273352,-18.067464058184623,-2.1611912150524555,0.06234647706151,-0.3918669521808624,0.1867571324110031
1772808271885890000,7.51789013671875,-6.072439506521821,-17.908969778752326,-1.2665690647102892,-0.7011348605155945,-0.2374837398529052,-0.2323793619871139
1772808271905938200,7.537938232421875,-7.86303288372755,-16.22376277564764,-0.4971676505561918,-0.8864405155181885,0.0391934141516685,-0.4551018178462982
1772808271925987000,7.557987060546875,-10.158216535770892,-13.088625844299791,-0.1007308033801615,-0.2525060474872589,0.0376298017799854,-0.6463874578475952
1772808271946036200,7.5780361328125,-10.091908372604848,-8.579420573639869,0.8261020102150738,0.4620107114315033,-0.0781226530671119,-0.7475348711013794
1772808271966084900,7.5980849609375,-8.506594991403817,-2.854682744154334,0.7836081456176937,1.3044408559799194,0.2131164371967315,-0.6404735445976257
1772808271986134000,7.618134033203125,-4.905741998013854,2.714897256845236,0.168320019332692,2.1226255893707275,0.815413236618042,-0.4267590045928955
1772808272006182000,7.638181884765625,-0.705179190416634,7.170441664466262,-0.100904104987299,2.717549085617065,0.8279207944869995,-0.3122356235980987
1772808272026231000,7.65823095703125,3.8295796236947175,10.621672251665592,-0.1616626438027247,2.7578020095825195,0.5926929712295532,-0.370057612657547
1772808272046280200,7.6782802734375,6.91305504912734,12.629792527508735,0.1762509219298139,2.2673139572143555,0.1927806138992309,-0.4690933525562286
1772808272066329000,7.6983291015625,8.505070558315515,13.891444447952509,0.5221363067917525,1.4907056093215942,0.1549014896154403,-0.454716145992279
1772808272086377200,7.718377197265625,8.597555949789285,14.658265855550765,0.5905473605211824,0.645418107509613,0.1615959256887436,-0.4881325662136078
1772808272106426000,7.738426025390625,7.150187980988621,14.577313080960511,0.9480278695762157,0.1434551179409027,0.0252584721893072,-0.4620111286640167
1772808272126475000,7.75847509765625,6.230103764870763,14.130157342481612,0.984160090187192,-0.22819484770298,-0.1119535639882087,-0.4228874742984772
1772808272146524000,7.77852392578125,5.608627816796303,14.175029918909072,0.9217504688296466,-0.6400250792503357,-0.1975482553243637,-0.3220666050910949
1772808272166572000,7.798572021484375,4.139700342616439,14.012157570523025,0.9058576839752496,-0.7538397312164307,-0.1828869879245758,-0.114095889031887
1772808272186621000,7.818620849609375,3.650868193402886,13.18241939576268,0.8711873526103794,-0.912569224834442,-0.0833006352186203,0.1095470711588859
1772808272206670000,7.838670166015625,3.2866862139478323,12.28606559932232,0.6302271175459027,-1.1108276844024658,-0.0838791728019714,0.2650613188743591
1772808272226719200,7.85871923828125,2.4293653279960155,11.09915181673765,0.4143559136936441,-1.1117242574691772,-0.2310404479503631,0.3355675637722015
1772808272246767900,7.878767822265625,1.5785405260652303,9.540206802502274,0.1437996183212846,-1.11127507686615,-0.368802547454834,0.3687282204627991
1772808272266816300,7.898816162109375,0.497882009370625,7.363021168851852,-0.394014223138988,-1.017608404159546,-0.1434895545244217,0.3097163140773773
1772808272286865000,7.918864990234375,0.4362243023589253,3.667420684275031,0.4498527224779128,-1.084469437599182,0.1228965669870376,0.4676226377487182
1772808272306914000,7.9389140625,0.261891525542736,-1.7712006944715977,1.9089821484819052,-1.391361951828003,-0.016454916447401,0.8762129545211792
1772808272326963000,7.958962890625,-1.416856510680914,-9.206662245634195,3.0244390068352223,-1.3274319171905518,-0.1670020669698715,1.3434966802597046
1772808272347011000,7.979010986328125,-3.85872563868016,-13.776393004405495,1.897090050636232,-1.1815526485443115,-0.5676013827323914,1.77238130569458
1772808272367060000,7.99906005859375,-8.878105414050816,-16.3393554864645,-1.614047308254242,-0.4809534251689911,-0.7047123908996582,2.1958446502685547
1772808272387109000,8.019109130859375,-12.938278630965948,-19.84253779469728,-5.573000623098015,1.0126692056655884,-0.4553115367889404,1.978319764137268
1772808272407158000,8.039157958984376,-10.39132737250924,-22.10351522575617,-7.790339403438567,1.188027262687683,-0.0366793349385261,1.0159245729446411
1772808272427206100,8.0592060546875,-7.12150666090548,-21.37494609966278,-9.33454043752849,0.0648545026779174,1.1970432996749878,-0.4433139860630035
1772808272447255000,8.079255126953125,-6.821012725245952,-18.77032123539448,-6.393653574126959,-0.6445972919464111,2.2531449794769287,-1.439394474029541
1772808272467304000,8.099303955078126,-6.71217474938631,-14.138724095296858,-1.990190359137952,-0.6518164277076721,1.9508919715881348,-1.421218752861023
1772808272487353000,8.11935302734375,-7.905036626720428,-8.271531851553917,0.6406089569590986,0.4836878776550293,0.6134577393531799,-0.817121684551239
1772808272507401000,8.13940087890625,-4.987102768883108,-3.85448347106576,1.6941648010641337,1.2426934242248535,-0.344433844089508,-0.1540666967630386
1772808272527450000,8.1594501953125,0.0868944395989179,-0.2928659249991178,1.10677846185714,0.7624041438102722,0.1020801588892936,0.0971605107188224
1772808272547499000,8.1794990234375,1.6100050471261145,3.256215380099416,0.2744150531597435,0.3033365309238434,0.8250279426574707,0.01998246088624
1772808272567548200,8.199548095703125,1.8470932630628347,6.32371260741651,0.2876072738185525,0.5072288513183594,1.002606987953186,0.0514729134738445
1772808272587596000,8.219595947265624,3.296016352351009,8.542538411444426,0.532145440435037,0.6879948377609253,0.7222077250480652,0.2373469918966293
1772808272607645000,8.23964501953125,4.500373144906759,10.109016159272194,0.3162534495230764,0.6920127868652344,0.3236549198627472,0.290236234664917
1772808272627694000,8.259694091796876,5.40223196850419,11.04702649270296,-0.283975730649475,0.5246950387954712,0.2889652848243713,0.0988057404756546
1772808272647743000,8.279742919921874,5.9351943513453005,11.419435910016295,-0.0314449761101976,0.1019965410232544,0.4586795270442962,0.0482763089239597
1772808272667792100,8.299792236328125,5.548773944336175,11.625229700762032,-0.0722370234920643,-0.2791065275669098,0.3860744535923004,-0.0758368149399757
1772808272687840000,8.319840087890626,5.023427881717682,11.558773069036006,-0.4703564351938664,-0.5472304821014404,0.3482328951358795,-0.2839550971984863
1772808272707889200,8.33988916015625,4.295404991330206,11.439638155567645,-0.4802815803481265,-0.6789054274559021,0.3529228568077087,-0.4032037854194641
1772808272727938000,8.35993798828125,3.8556528071060776,11.377409955191611,-0.448446728137508,-0.6861431002616882,0.4500320851802826,-0.4775595068931579
1772808272747987000,8.379987060546876,3.779254042558372,10.959254685747624,-0.2140509661551564,-0.7074546813964844,0.2987828254699707,-0.4896095693111419
1772808272768034800,8.400034912109374,3.6935949899733065,10.504258170640467,0.0141860357354395,-0.6841424107551575,0.003531064838171,-0.4959588646888733
1772808272788084000,8.420083984375,4.328915923526883,9.64460007391274,0.1707400130212306,-0.8072302341461182,0.0614510998129844,-0.4900646209716797
1772808272808133000,8.440133056640626,4.148652879878878,9.001313860568404,0.516811750768125,-0.8926466107368469,0.2762245237827301,-0.3118559420108795
1772808272828182000,8.46018212890625,3.1918913764879107,7.868205902451276,0.9240100112594664,-0.6111724972724915,0.1638128161430359,-0.0652703642845153
1772808272848230100,8.480230224609375,3.52530879984498,5.524973966553807,1.538184988670796,-0.4887378215789795,-0.1455991715192794,0.2030427902936935
1772808272868279000,8.500279052734374,4.344485248580575,1.546041108998656,2.543030870142579,-0.9421303272247314,-0.2359237372875213,0.5825350880622864
1772808272888328200,8.520328125,2.3892227026999,-5.080380772039294,3.4977880479738115,-1.5591546297073364,-0.7120438814163208,1.0476232767105105
1772808272908376800,8.540376953125,-4.403005534349382,-11.15676346322894,1.4120844739735126,-2.0541698932647705,-1.699190378189087,1.75334894657135
1772808272928425000,8.560425048828124,-12.367272056412697,-12.71477031983137,-4.501738588041067,-1.6311957836151123,-1.5289711952209473,1.4363292455673218
1772808272948473900,8.580473876953125,-18.503033403766157,-16.77265571807027,-7.146071193319559,-0.2643032073974609,0.207922101020813,0.9980926513671876
1772808272968523000,8.60052294921875,-19.450691855508087,-19.85971104781628,-7.614635046008229,0.9007349014282228,1.0749517679214478,0.1579678803682327
1772808272988572200,8.620572265625,-15.519734216570852,-20.183716207444668,-5.916124909216165,0.7817354202270508,1.367525339126587,-0.4734512865543365
1772808273008620000,8.6406201171875,-11.307994473659992,-17.943124561810492,-2.9291525864660737,0.6190248727798462,1.5538434982299805,-0.6387403607368469
1772808273028669200,8.660669189453126,-8.519899878656863,-14.98148307967186,0.2046791075021028,0.959589958190918,0.9740285277366638,-0.0669003576040268
1772808273048718000,8.680718017578124,-6.921031434834003,-10.59733743635416,0.1379827852686867,1.6643855571746826,-0.1389477998018264,0.4043643772602081
1772808273068767000,8.70076708984375,-3.393386300995945,-6.898031667518615,-1.1191128235775978,1.6601251363754272,-0.5873924493789673,0.1823027580976486
1772808273088814800,8.72081494140625,-0.978225439441204,-3.4055759204834697,-1.0054969657916577,1.205443024635315,-0.0535200089216232,0.0975846573710441
1772808273108864000,8.740864013671874,-0.5801163482040167,0.8152958079099655,-1.070553448396176,1.2300630807876587,0.197493702173233,0.1119857877492904
1772808273128913200,8.7609130859375,0.576477114918828,4.9724289313644165,-1.0211920361168685,1.6990963220596311,0.0070784986019134,0.0188955180346965
1772808273148962000,8.780962158203126,3.723976684233546,8.152084803396463,-0.0685114453639835,1.782636046409607,0.2166071087121963,-0.0935248956084251
1772808273169011200,8.80101123046875,6.486902351188659,10.705836389517785,1.3020913367293774,1.2814757823944092,0.4377099573612213,-0.2412457466125488
1772808273189059000,8.82105908203125,7.171877834749221,12.263453954541683,2.5180107029154897,0.7630532383918762,0.3509499430656433,-0.1996873915195465
1772808273209108200,8.841108154296874,6.349288362699746,13.365799110126494,3.120010089364648,0.6369549632072449,0.0570035465061664,0.1224009990692138
1772808273229156900,8.861156982421875,6.4298004077851765,13.710515049350262,2.5522481958210466,0.4447925686836242,0.005825653206557,0.4055039882659912
1772808273249206000,8.8812060546875,6.717456489181518,13.371375448954105,1.1092639219973237,-0.1355388760566711,0.2273596972227096,0.2328142374753952
1772808273269254000,8.90125390625,6.210111947199702,12.754287506705522,0.2069876401728019,-0.739885151386261,0.5269662737846375,-0.0244332309812307
1772808273289303000,8.921302978515625,5.079189516428113,12.181277191114424,-0.2196688791021704,-1.0263291597366333,0.5493341684341431,-0.153250440955162
1772808273309352200,8.941352294921876,4.347005414707959,11.663158157140016,-0.3075564944569021,-1.0426685810089111,0.4187216162681579,-0.1772737801074981
1772808273329401000,8.961401123046874,4.329840344895422,11.039103883010148,-0.2977575146992691,-1.0724623203277588,0.3338429927825928,-0.1488412469625473
1772808273349449200,8.98144921875,4.296178021529316,10.146741202032564,-0.1362366539874114,-1.2188708782196045,0.308939516544342,-0.1921767741441726
1772808273369498000,9.001498046875,4.028537723201513,9.754294958862662,0.031275300365407,-1.22038471698761,0.3701404929161072,-0.1891705095767974
1772808273389547000,9.021547119140624,3.718809218467772,9.793308872389792,0.1073200821099802,-1.1563730239868164,0.3317298889160156,-0.1047327145934104
1772808273409596000,9.041595947265623,2.754273866204917,8.731037368518114,-0.1802464030404575,-1.0006215572357178,0.0712295919656753,-0.0630498826503753
1772808273429644000,9.06164404296875,2.084968537724018,6.553694498479366,-0.6590193506576121,-1.098132848739624,-0.2599144279956817,-0.0778159722685813
1772808273449693000,9.08169287109375,0.5242296258091926,2.651997440817952,-0.5741760714348405,-1.758861780166626,-0.4953082799911499,-0.0579666793346405
1772808273469742000,9.1017421875,-3.321433994463086,-3.2864936139851806,-1.08224191342853,-2.1617374420166016,0.0942470282316207,0.119433008134365
1772808273489791200,9.121791259765626,-7.299851888233423,-8.415767888531088,-2.1324210476420817,-2.387305498123169,0.6229788064956665,-0.2446679770946502
1772808273509839000,9.141839111328125,-13.049993623566628,-13.177975860357284,-0.7646041699402034,-1.613130807876587,0.4307246208190918,-0.4505801498889923
1772808273529888500,9.161888427734375,-15.370419268894194,-16.530620401120185,0.5625889844177291,-0.5668357014656067,-0.2475659400224685,0.0741539001464843
1772808273549937400,9.1819375,-14.12298175176382,-19.017397469121217,-0.1588150906181894,-0.3337650001049042,-0.4933140873908996,0.0064980061724781
1772808273569986600,9.201986572265625,-12.81919281733632,-19.77963388701677,-0.621839520689845,-0.9651275277137756,-0.0936299711465835,-0.6294119954109192
1772808273590034400,9.222034423828124,-13.285787415778636,-19.20945499545932,0.5152090282792225,-1.5600383281707764,0.4357733726501465,-0.8418304324150085
1772808273610083600,9.24208349609375,-15.35315833749175,-14.29478676366806,1.0961572607301175,-0.7096959352493286,0.4549760222434997,-0.6447761654853821
1772808273630132500,9.262132568359377,-13.297235861510035,-9.317291781085729,2.133167920486629,0.9841054677963256,0.0296642147004604,-0.1607148796319961
1772808273650181600,9.282181640625,-6.02915390702486,-6.0352779428631065,2.528573597984016,1.6085700988769531,-0.6051773428916931,0.2697533667087555
1772808273670229500,9.3022294921875,0.4546949018120765,-2.299567566215992,0.1493607961123809,1.1462866067886353,-0.8582341074943542,-0.2248841524124145
1772808273690278700,9.322278564453123,3.311471403375268,-0.54469373716712,-0.3263301685098558,0.1900716572999954,-0.1817372888326645,-0.5460341572761536
1772808273710327600,9.34232763671875,3.478210364061594,3.938405032333732,-0.6290656725510955,0.00278614112176,0.7385121583938599,-0.487052321434021
1772808273730376400,9.36237646484375,2.4627426969408988,7.001759753018617,-0.0491620903149247,0.7964358925819397,0.3798185884952545,-0.2622342407703399
1772808273750424600,9.382424560546877,4.474407513523102,8.947078412511944,0.3427789067465812,1.2463921308517456,-0.2971236705780029,-0.0286496616899967
1772808273770473500,9.402473388671876,6.782746415215731,10.051557657516,0.2319548716362565,1.0848748683929443,-0.4268399178981781,0.0152181228622794
1772808273790522600,9.422522705078125,7.774623363390565,10.58163484030962,0.0227780143234878,0.6980714797973633,-0.2275300920009613,-0.0478276573121547
1772808273810571500,9.442571533203123,8.402330314809083,10.68005079087615,0.0543462514871731,0.1713094860315323,-0.1377248018980026,-0.1222543641924858
1772808273830619600,9.46261962890625,8.017410960012674,10.313981097978353,0.0743739076565951,-0.165319338440895,-0.2406432926654815,-0.1461380869150161
1772808273850668500,9.48266845703125,6.918831294441223,10.33916580811739,-0.1405882915919646,-0.1194955110549926,-0.5096515417098999,-0.0903491228818893
1772808273870717400,9.502717529296875,6.329950625023246,9.898410584330556,-0.3347843643287196,-0.0534685589373111,-0.7667269706726074,0.040245272219181
1772808273890766600,9.5227666015625,6.001522388255596,9.159999278658628,-0.7113812599271535,-0.1344956457614898,-0.8583065271377563,0.1474574655294418
1772808273910814500,9.542814453125,5.727531259596348,8.012455383431911,-0.7674538602828979,-0.4098612368106842,-0.5846277475357056,0.2032662034034729
1772808273930863600,9.562863525390624,4.639842405873536,6.934114788290858,-0.3224957414461299,-1.0195719003677368,-0.6094975471496582,0.1788982450962066
1772808273950912500,9.58291259765625,2.4535259557843205,4.875856562837958,0.0534340776788536,-1.404565453529358,-0.7725377678871155,0.2066892683506012
1772808273970961700,9.602961669921877,-0.9040835139095784,2.8109739508092404,0.311625205200538,-1.1287859678268433,-1.1615698337554932,0.1959360837936401
1772808273991009500,9.623009521484375,-1.401449098190665,0.3509066105574369,-0.5387165624536574,-0.427232414484024,-1.0254558324813845,-0.1320081651210785
1772808274011058700,9.64305859375,-2.5336416950285434,-0.963354033523798,-0.6599354425892233,0.4751757979393005,-0.8365011215209961,-1.15705406665802
1772808274031107600,9.663107666015623,-5.163743530380725,-2.596231714454293,-0.6966567151345312,1.0289325714111328,-1.6100058555603027,-1.9579565525054927
1772808274051156500,9.683156494140626,-4.248762774881721,-4.963374687293172,-0.1386899654236622,0.4210918545722961,-2.004129648208618,-1.8763896226882932
1772808274071204600,9.70320458984375,-5.0477112591028215,-7.785808774271607,1.0034494586773215,-1.4301432371139526,-1.8088270425796509,-0.8307633399963379
1772808274091253500,9.72325341796875,-6.705418260863423,-10.103919128394129,1.4989951340548693,-2.907887935638428,-0.9282186031341552,0.7333552241325378
1772808274111302700,9.743302734375,-6.621476825851202,-8.87698137845695,-1.387851949992776,-2.898831605911255,0.1376246511936187,1.8185688257217407
1772808274131351600,9.7633515625,-3.864184780868888,-5.12195956761837,-2.4545485768303275,-2.394221544265747,0.6415891051292419,1.66278338432312
1772808274151400400,9.783400390625,-2.7185271377801894,-4.669767588537932,-1.205655673259869,-1.6344406604766846,0.3634087741374969,0.4346027672290802
1772808274171448600,9.803448486328126,-5.0389972067713735,-1.3924860395342111,-0.1267949267022311,-0.7629256248474121,-0.7893608212471008,-0.9437860250473022
1772808274191497500,9.82349755859375,-1.6645371400415896,-1.3737117809593675,-0.0680209584333002,0.1196027994155883,-0.676006555557251,-0.8117178678512573
1772808274211546600,9.843546630859375,-1.3027502390295267,-0.6141431209683418,-0.2124044410571456,0.3133158087730407,-0.4002091884613037,-0.119505301117897
1772808274231595500,9.863595458984374,0.5910697038948536,-0.1576566595643758,-0.3109657183784991,0.1651866137981414,0.0644328221678733,0.3339627087116241
1772808274251643600,9.8836435546875,2.4733903476834294,0.291520940130949,-1.063139884204045,-0.3433488607406616,0.7235992550849915,0.3382700383663177
1772808274271692500,9.903692626953124,3.301431655398011,1.408842131051421,-0.097543916972354,-0.3762955963611603,1.3223400115966797,-0.1268967092037201
1772808274291741700,9.92374169921875,-1.3492524624854323,1.7728069606244563,1.005925493402034,0.2315409034490585,-0.1290186494588852,-0.5170794725418091
1772808274311790600,9.94379052734375,-1.1536468882769346,1.7357354133367535,1.221892083920166,1.0158789157867432,-1.4134325981140137,-0.4347366094589233
1772808274331838700,9.963838623046875,0.9132529087930916,1.8532208060324191,0.5015609170790761,0.9231830835342408,-1.135347843170166,-0.112697497010231
1772808274351887400,9.983887451171874,1.4221300671696662,0.6975403661012649,-0.3231926742017268,-0.1667405664920807,-0.2388386875391006,0.279651939868927
1772808274371936500,10.0039365234375,2.100766995358467,1.4529606742411851,-0.2924714457888156,-0.9548375010490416,0.1621824204921722,0.4563964307308197
1772808274391985700,10.023985595703126,1.050265424257517,-0.2420779870480298,-0.3555306170962751,-1.0183568000793457,0.0575962215662002,0.5623593926429749
1772808274412033500,10.044033447265624,0.6031786593616009,-0.3582441138386726,-1.022513859305158,-0.7699594497680664,-0.0447623506188392,0.106101207435131
