time,seconds_elapsed,accel_z,accel_y,accel_x,gyro_x,gyro_y,gyro_z
1772808339588825300,0.086825439453125,-0.083444006884098,-0.1749684443712234,0.020515987675637,0.0803697779774665,0.0987993627786636,0.1960365325212478
1772808339608873700,0.106873779296875,-0.2730588162451982,0.1000894367367029,-0.1882468820087611,0.2145710438489914,0.223178282380104,0.2055749595165252
1772808339628921600,0.126921630859375,-0.0742845488727092,-0.0611480039238929,-0.1368413236159831,0.2671035230159759,0.3944559693336487,0.1524358838796615
1772808339648970500,0.146970458984375,0.3043453503906727,-0.3084504476219415,-0.0110340653773862,0.140719935297966,0.535445511341095,0.0954286977648735
1772808339669018600,0.1670185546875,0.6530909835219383,-0.2810392936050891,-0.3997847693644464,-0.0820044577121734,0.4933660924434662,-0.0872281715273857
1772808339689066800,0.187066650390625,0.6204898596465587,0.3766039463937282,0.0699422818847,0.0845465511083602,0.4240838289260864,-0.3033150732517242
1772808339709115400,0.207115478515625,0.5576747992932796,-0.9552741874426602,0.3032192689701914,-0.0341702401638031,0.2004453986883163,-0.1017313599586486
1772808339729163500,0.22716357421875,1.0088982256025076,0.0151858786940574,0.5021749573241919,-0.2227563112974167,0.0706403627991676,0.0580349564552307
1772808339749211600,0.247211669921875,0.5462719462692738,0.2558668584257364,-0.1907342053124681,-0.2304731607437133,-0.0411410667002201,-0.0451972484588623
1772808339769259500,0.267259521484375,0.5034276607990265,-0.0776882198363542,0.0925403365314006,-0.2383425682783126,-0.0538541860878467,0.0688661858439445
1772808339789308700,0.28730859375,0.5441811114698648,0.1491477744162082,-0.1486937470383942,-0.271326869726181,-0.0468227230012416,0.0530528873205184
1772808339809356800,0.307356689453125,-0.1022790557354688,0.2725572964638471,-0.3293703399233519,-0.0828074365854263,-0.0999079421162605,-0.1491136848926544
1772808339829404700,0.32740478515625,-0.4225239860475063,0.4391092101454734,-0.1701351424632594,0.2107913494110107,-0.0672366768121719,-0.2055487781763076
1772808339849453600,0.34745361328125,-0.3274678673028945,0.1755032819002866,0.1362146430850029,0.3306825459003448,-0.0081664081662893,-0.1478304266929626
1772808339869501700,0.367501708984375,0.3359130395650863,0.0886830765813589,0.1807546265572309,0.2119019329547882,0.1157021149992942,-0.1187810972332954
1772808339889549600,0.387549560546875,0.6773509800314903,-0.1945996120363473,0.3150397994169965,-0.008873295970261,0.1279616355895996,-0.0825895071029663
1772808339909598500,0.407598388671875,0.6306243001699448,-0.0643535219669342,0.5145973626542836,-0.1488015353679657,0.0050773113034665,-0.0266888681799173
1772808339929646600,0.427646484375,0.3688923491030931,-0.001115267765522,0.383109382764995,-0.082721821963787,-0.1035311967134475,0.0185982156544923
1772808339949694700,0.44769482421875,0.745758161303401,0.0188379714608192,0.2599331214839592,-0.1247034221887588,-0.0470917411148548,0.0259524751454591
1772808339969742600,0.46774267578125,0.7268032854646443,0.1302110187560319,0.2207745387891307,-0.2020657062530517,0.1338345259428024,0.014283450320363
1772808339989791700,0.487791748046875,0.7040694756090641,0.2647358090579509,0.0529490615077316,-0.1746364831924438,0.3620720207691192,0.0160741619765758
1772808340009839600,0.507839599609375,0.7984709298372268,0.3110901484757661,0.1152335586482658,-0.1620868593454361,0.4224873781204223,0.0403992086648941
1772808340029887700,0.5278876953125,1.0312538497954606,0.3569096503645181,0.0028856384389102,-0.2142268568277359,0.379412293434143,0.0364067740738391
1772808340049936600,0.5479365234375,1.2119114457190037,0.5981780745953321,-0.0268311621718108,-0.203074425458908,0.4232880771160126,0.0676234588027
1772808340069984800,0.56798486328125,1.249737026244402,0.9257809664547444,-0.1274869275543838,-0.0309834387153387,0.4797472357749939,0.1206338629126548
1772808340090032600,0.58803271484375,1.6173644699782133,1.564896616116166,-0.4164187279749661,0.2706815302371979,0.5126376152038574,0.1404003053903579
1772808340110081800,0.608081787109375,2.1935966702252627,2.2810189330905675,-0.6653883742328733,0.4898364543914795,0.4742969870567322,0.1406502872705459
1772808340130129700,0.628129638671875,2.73715818849206,3.130048668298125,-0.8495733405649661,0.6898614764213562,0.4595047533512115,0.0562662295997142
1772808340150177500,0.648177490234375,3.017211978191137,3.698429570522904,-1.1088033187482504,0.7710952758789062,0.4948945343494415,-0.101422794163227
1772808340170225700,0.6682255859375,3.0268624345898627,3.6683179253757,-0.8960225917246192,0.8139894008636475,0.6933532953262329,-0.1367372274398803
1772808340190274600,0.688274658203125,2.648508429658413,3.578117429968714,-0.8782073143750428,0.9216246604919434,0.7131301164627075,-0.1450386494398117
1772808340210322700,0.70832275390625,2.5242045891195533,3.32131533651948,-0.837377437467128,1.1639559268951416,0.7601278424263,-0.15065398812294
1772808340230370600,0.72837060546875,2.198669151183963,2.4121137489438054,-0.4061464133508503,1.302773356437683,0.6555479168891907,-0.1196192577481269
1772808340250419700,0.748419677734375,1.151598139053583,0.3337544002264738,0.4264541651032865,0.985389769077301,0.1397663652896881,0.0015371481422334
1772808340270467600,0.768467529296875,-0.750433751899004,-2.0619868905872107,0.7763919306285679,0.658200204372406,-0.0567009001970291,0.180902674794197
1772808340290515700,0.788515625,-2.863423684492707,-4.286360391870141,0.904761997693032,0.5766127109527588,0.0517433434724807,0.2109333127737045
1772808340310564600,0.808564697265625,-4.413165986096859,-6.947422013631463,1.4509636552050709,0.2609860002994537,0.4374186098575592,0.247336596250534
1772808340330612700,0.82861279296875,-5.9500908917039625,-9.396806631827356,1.6944433257445692,-0.3500692248344421,0.90055251121521,0.1675700098276138
1772808340350660600,0.84866064453125,-9.220393833866716,-11.409149493801593,2.2173392187319694,-0.5651394724845886,0.7576121687889099,0.0506462529301643
1772808340370708500,0.86870849609375,-11.56632041567564,-12.349912925332784,2.3303034807413816,-0.2450724095106125,0.7796974778175354,0.2337522953748703
1772808340390757600,0.888757568359375,-13.009738770067692,-13.413582605564594,2.081413329460472,0.2343416363000869,0.8489030003547668,0.4193706810474396
1772808340410805500,0.908805419921875,-15.209257231557368,-13.11485334149003,2.3003676305525005,1.2084693908691406,0.59056556224823,0.6221221089363098
1772808340430853600,0.928853515625,-14.75598388698101,-11.839255897802111,2.324738393960148,1.9593244791030884,0.0161821078509092,0.9053788185119628
1772808340450902500,0.948902587890625,-12.409383351433275,-9.69191244470775,1.3097313300885258,2.0664501190185547,-0.3345623314380646,0.9221376776695251
1772808340470950700,0.96895068359375,-9.160658619350194,-6.4821852595388885,0.2129951004266738,1.9111629724502563,-0.2075092047452926,0.8086292743682861
1772808340490998500,0.98899853515625,-5.5628702742278575,-2.3758733917832373,-0.8907247045122086,1.8050460815429688,-0.2276108562946319,0.564417839050293
1772808340511047700,1.009047607421875,-2.119689137971401,2.350162027421593,-1.8879251857973636,1.937641978263855,-0.290325790643692,0.2096680998802185
1772808340531095600,1.029095458984375,1.238673195916414,6.229347393545508,-1.4804878558531402,2.183282852172852,-0.4940158426761627,0.0597006417810916
1772808340551143700,1.049143798828125,4.217331863829493,9.375673242905735,-0.4965096981041133,2.237328052520752,-0.7011174559593201,0.2538833618164062
1772808340571191600,1.069191650390625,5.988937047448754,12.293642172056437,-0.5491374187029898,2.29072904586792,-0.4190680980682373,0.4079014956951141
1772808340591241500,1.089241455078125,6.735238229587674,13.873169955593347,-0.0440827412240207,2.312445163726806,-0.2360736727714538,0.5696770548820496
1772808340611289300,1.109289306640625,7.654958288568258,15.117520028102398,0.5480545919023454,2.117527961730957,-0.2560487687587738,0.7896708846092224
1772808340631337500,1.12933740234375,8.044108412802219,15.639093586444854,0.6730339205499738,1.8271976709365845,-0.6108607053756714,0.962486982345581
1772808340651386400,1.149386474609375,8.174811598989367,15.5755233238101,0.5469330770591273,1.3071244955062866,-1.260683298110962,0.9123176336288452
1772808340671434500,1.1694345703125,8.06658094137311,15.121996296733617,0.25083209739523,0.4625604748725891,-1.6614234447479248,0.6174630522727966
1772808340691482400,1.189482421875,6.841395003539324,14.702293213325738,-0.3798427456518635,-0.3792697787284851,-1.584702730178833,0.0470043793320655
1772808340711531500,1.209531494140625,5.162925784257054,14.240332704424857,-0.5480830508118495,-0.9938464760780334,-1.0839178562164309,-0.5023235082626343
1772808340731579400,1.229579345703125,3.7300492821455,13.731599922955036,-0.2374683743607252,-1.313252568244934,-0.5542685985565186,-0.8797992467880249
1772808340751627300,1.249627197265625,2.9888538987129927,12.898067032086848,0.5732365255624056,-1.4493292570114136,-0.000734134344384,-0.8362361788749695
1772808340771675400,1.26967529296875,2.1557465397804974,11.718379109102488,0.9881908800732344,-1.3398942947387695,0.0740402862429618,-0.6817339062690735
1772808340791724300,1.289724365234375,1.9191317865744235,10.133462033742664,1.2531288606397808,-1.1843117475509644,-0.0798051580786705,-0.4476238489151001
1772808340811772400,1.3097724609375,1.8512392768263817,7.367160168352723,1.3792811055243015,-1.1727601289749146,-0.2121032923460006,-0.1501418054103851
1772808340831820300,1.3298203125,1.5257663827329873,3.771044140356779,1.200124415683001,-1.6398694515228271,-0.3250316977500915,-0.0203111004084348
1772808340851869400,1.349869384765625,-1.2591262013584374,-1.4450515085518358,1.187528918808326,-2.603132486343384,-0.755938708782196,-0.1339286267757415
1772808340871917300,1.369917236328125,-7.281434772533178,-6.49820291288197,0.4162523949647322,-3.0838818550109863,-0.8147647380828857,-0.3886013925075531
1772808340891965400,1.38996533203125,-12.751763541185856,-11.11269401987791,-0.5068452506901696,-2.592777729034424,0.306432694196701,-0.5173299312591553
1772808340912014300,1.410014404296875,-15.40090325448513,-15.134868637788294,-0.8379238193035126,-2.106088161468506,1.2702059745788574,-0.5364853739738464
1772808340932062500,1.4300625,-15.39349619309902,-21.390849771237374,1.24724111777544,-2.4137134552001958,1.336353778839111,-0.2729890942573547
1772808340952110300,1.4501103515625,-17.686031960982085,-25.05950555026531,2.067468536868691,-2.666428327560425,0.8916856050491333,0.2655766010284424
1772808340972158500,1.470158447265625,-21.2777003619194,-24.99153266875744,0.7322048522472381,-1.8494662046432493,0.4498818218708038,0.8392154574394226
1772808340992207400,1.490207275390625,-22.70315986577272,-21.01259162789583,-1.5320935399278997,-0.1603581756353378,0.2918463349342346,1.0758198499679563
1772808341012255500,1.51025537109375,-17.139114702546596,-14.48788941514492,-2.749610258308053,1.2516021728515625,1.0755677223205566,0.8789171576499939
1772808341032303400,1.530303466796875,-10.012686951851844,-9.13554288279414,-2.168929261958599,2.1962428092956543,1.3788611888885498,0.5881943106651306
1772808341052352500,1.5503525390625,-2.8813848731189964,-1.7305419363468884,-1.5758743755958973,2.8102738857269287,0.937762975692749,0.5295623540878296
1772808341072400400,1.570400390625,2.30296597648263,6.068961601278185,-1.9137997778967024,3.232043743133545,0.4310522377490997,0.6164789199829102
1772808341092448300,1.5904482421875,4.689074346554279,11.982677695786952,-1.8374357924014328,3.762770175933838,0.3623196184635162,0.9945858120918274
1772808341112497400,1.610497314453125,6.036116147252917,15.344043303143977,-1.3936420777015388,4.375051021575928,-0.0518782548606395,1.1624187231063845
1772808341132545300,1.630545166015625,8.561677996200322,16.405492969238757,-0.3800664348725229,4.367446899414063,-0.6270585060119629,1.0686153173446655
1772808341152593400,1.650593505859375,9.71263199213147,15.73399188427925,0.8008159585934131,3.713476419448853,-1.269576072692871,0.901159644126892
1772808341172642300,1.670642333984375,9.349547452524304,14.97871712208986,0.9203227010488508,2.767268419265747,-1.3065342903137207,0.6553232669830322
1772808341192690400,1.6906904296875,7.820987055158614,14.85087517055273,0.3469798655677586,1.871766448020935,-1.0184282064437866,0.1680926233530044
1772808341212738300,1.71073828125,6.373039825165272,14.44275731099844,0.225364295998495,0.9420469999313354,-0.6560099720954895,-0.3710021674633026
1772808341232786400,1.730786376953125,4.816810499629378,13.941847770500182,0.4853141676878556,0.055445309728384,-0.3263112604618072,-0.8031521439552307
1772808341252835300,1.75083544921875,3.0363486403375863,13.886548492604494,0.5285361638966948,-0.4435221254825592,0.1116814538836479,-1.0309327840805054
1772808341272883500,1.770883544921875,1.8472130900502204,13.57383045066595,0.7569459833372384,-0.5611770749092102,0.3250635862350464,-1.0963342189788818
1772808341292931300,1.790931396484375,1.956854198986292,12.784668616443872,1.116887621808797,-0.6440040469169617,0.4338339865207672,-0.9857547283172609
1772808341312980500,1.81098046875,2.3960768063783644,11.77039220493436,1.2870245543703436,-0.8347924947738647,0.6849588751792908,-0.7646186351776123
1772808341333028400,1.8310283203125,2.38855956261605,9.956654683506487,1.1292562511250377,-0.9802606105804444,0.712581992149353,-0.5955280661582947
1772808341353076200,1.851076171875,2.917196191212535,6.554612782368063,1.222696532170847,-1.2231934070587158,0.8217023015022278,-0.4264927506446838
1772808341373125400,1.87112548828125,3.3487349661037324,0.4658493330329656,2.4612667791694403,-1.9053322076797483,0.5605929493904114,-0.0359045639634132
1772808341393173200,1.89117333984375,-0.5920379644051194,-5.903653550177812,1.8818913124606007,-3.156266927719116,-1.143657922744751,0.2753795981407165
1772808341413221400,1.911221435546875,-9.401534829393029,-12.212224118041991,-0.4724695548903196,-3.6425509452819824,-2.6976253986358643,0.5304955244064331
1772808341433270300,1.931270263671875,-17.235660183066127,-15.376458549058436,-4.693540093791484,-3.2451159954071045,-2.372586965560913,0.9580493569374084
1772808341453318400,1.951318359375,-18.974359122383596,-19.769596477127077,-7.253758245578408,-2.849544048309326,-0.407925009727478,0.7768688201904297
1772808341473366300,1.9713662109375,-17.788738302218913,-23.585329654037952,-5.223091791406273,-2.6656417846679688,0.757857084274292,0.0631287842988967
1772808341493414400,1.991414306640625,-16.87858394396305,-26.11489489340782,-0.4747349425390362,-2.2301952838897705,0.1917767822742462,-0.1175885647535324
1772808341513463300,2.01146337890625,-17.018099966681003,-22.98407407169342,0.8561852329853922,-1.068483591079712,-0.8528904914855957,-0.3836492598056793
1772808341533511400,2.031511474609375,-13.130363045310974,-16.322601920062304,0.880073985029757,0.2140952497720718,-0.1116427481174469,-0.8105137944221497
1772808341553559300,2.051559326171875,-8.098491160374879,-9.801281166443228,2.294314321862906,1.2150949239730835,0.7242364287376404,-0.8720858693122864
1772808341573608400,2.0716083984375,-3.4561697971671816,-2.605454300829768,2.3386323331475256,2.0569255352020264,0.6652598977088928,-0.6588889956474304
1772808341593655600,2.091655517578125,0.7799269728869199,3.951543330848217,1.3785231267638505,2.6951844692230225,0.2107770591974258,-0.3395317196846008
1772808341613703400,2.111703369140625,4.83719043983519,8.671291632607579,0.2068250334896147,2.7366926670074463,0.1419504135847091,-0.1327569782733917
1772808341633752600,2.131752685546875,6.761137225475907,12.387346876192092,-0.2557373137619346,2.437870502471924,0.5551496744155884,0.0743116959929466
1772808341653800400,2.151800537109375,6.592893120923638,14.852764345300196,-0.05871266653575,2.4559359550476074,0.5132791996002197,0.2239433377981186
1772808341673848600,2.1718486328125,7.466855637335777,15.615738429820537,0.499648142260313,2.441115140914917,0.3354476392269134,0.4330177307128906
1772808341693897500,2.1918974609375,8.794931456279754,14.812899952423573,0.9864164177466184,2.1221141815185547,0.1908807754516601,0.6179488301277161
1772808341713945600,2.211945556640625,8.956548251646756,13.22628659453988,1.3333511289983988,1.4124810695648191,-0.1526489853858947,0.6987287402153015
1772808341733993500,2.231993408203125,7.886889560133218,12.112664842659234,0.4862135642129928,0.5862210392951965,-0.2901757359504699,0.4780517220497131
1772808341754041600,2.25204150390625,6.507725358986854,11.493334674441812,-0.8503478320688008,-0.126991793513298,-0.0475216098129749,-0.1469435840845108
1772808341774090500,2.272090576171875,5.170765976363421,11.237455541056391,-1.4036463159739971,-0.5882461667060852,0.6356589794158936,-0.7278012633323669
1772808341794138600,2.292138671875,4.135189002671837,10.8526542596817,-0.986751056528464,-0.8159239292144775,1.085739016532898,-1.019381046295166
1772808341814186500,2.3121865234375,3.732603935064376,10.857347970455884,-0.6250196120306849,-0.9119677543640136,1.1372089385986328,-1.0237876176834106
1772808341834235600,2.332235595703125,2.9724644894480705,10.491448957949876,-0.2148923123501241,-0.8462377190589905,0.7387204170227051,-0.7317688465118408
1772808341854283500,2.352283447265625,2.4700527276933197,9.965982483822106,-0.5024309048466384,-0.6000401973724365,0.4657182097434997,-0.3419518768787384
1772808341874331400,2.372331298828125,2.428786651325226,8.617038648894429,-0.7462082431584596,-0.475475937128067,0.4090299904346466,0.0202329773455858
1772808341894380500,2.392380615234375,2.3055402108848093,5.753802011406421,-0.7452779765710235,-0.4098539054393768,0.3656482398509979,0.2940574586391449
1772808341914428400,2.412428466796875,1.8881383901566269,1.0006365932136774,0.1869178253620863,-0.4642457365989685,-0.0327443182468414,0.5648421049118042
1772808341934476500,2.4324765625,-0.2893541174858808,-5.122385099554061,1.2438877156943082,-1.259946584701538,-1.6400865316390991,0.8583938479423523
1772808341954525400,2.452525390625,-6.2937909318834535,-10.0802074134171,0.4842040510214865,-2.2740440368652344,-3.1694819927215576,1.1082031726837158
1772808341974573600,2.472573486328125,-13.857251086449622,-11.629813521420957,-3.21837489426583,-2.029406785964966,-2.7421932220458984,1.1336045265197754
1772808341994621400,2.492621337890625,-16.02808705881238,-16.464543708622454,-4.802285715192556,-1.8460334539413448,-0.8214858770370483,0.6678789854049683
1772808342014669600,2.512669677734375,-15.687098031157252,-23.428254593753813,-2.1501912437409163,-2.3549463748931885,0.1538816839456558,-0.1622498035430908
1772808342034718500,2.532718505859375,-17.588230927443504,-26.60078455942869,1.754575138363242,-1.8313419818878172,-0.3345788717269897,-0.5648894906044006
1772808342054766600,2.5527666015625,-17.11217291960716,-24.8466881444931,3.062457479584217,-0.6070767045021057,-0.8920315504074097,-0.5727099180221558
1772808342074814500,2.572814453125,-13.09262397402525,-19.236884269654748,1.9353642517119645,0.3591593503952026,-0.2995631992816925,-0.6762374043464661
1772808342094863600,2.592863525390625,-8.140922773391008,-11.824795995295046,1.37384709777683,1.1528044939041138,0.359433650970459,-0.7233173251152039
1772808342114911500,2.612911376953125,-3.4481659389317034,-3.498836972504854,0.1621700818682089,1.7991586923599243,0.4227526783943176,-0.6874349117279053
1772808342134959400,2.63295947265625,1.271240417522192,3.63965180286169,-0.7094611785847693,1.8364802598953247,0.6621667146682739,-0.5608927011489868
1772808342155008500,2.653008544921875,3.736836165806651,9.11605667655766,-0.759161467429623,1.537519454956055,0.8597756028175354,-0.2454201728105545
1772808342175056400,2.673056396484375,4.395975197321176,12.96005674753189,-0.900872808234766,1.544609546661377,1.007152080535889,0.1047960370779037
1772808342195104500,2.6931044921875,5.343415622398257,15.226697026658057,-0.7978826085552573,1.8884084224700928,1.2063653469085691,0.5272506475448608
1772808342215153400,2.7131533203125,7.461146612039208,15.253161839735506,-0.321493834394589,2.111800193786621,0.9202245473861694,0.7937231063842773
1772808342235201500,2.733201416015625,9.826011703073975,13.615594539684055,0.090633626127243,1.7609174251556396,0.2817297577857971,0.8488258123397827
1772808342255249400,2.75324951171875,10.069600679206848,11.978107903653385,0.1279008421175181,0.8692482709884644,-0.4766883254051208,0.5807424783706665
1772808342275297500,2.773297607421875,8.894885868459939,11.209472140109538,-0.423843982604891,-0.0595747828483581,-0.5675088763237,0.0635743886232376
1772808342295346400,2.793346435546875,6.912340763378143,10.479683701354263,-0.91859229705967,-0.7142859101295471,-0.1720592230558395,-0.509227454662323
1772808342315394600,2.81339453125,4.759022327527403,10.113837295818328,-0.82647500824593,-1.0171157121658323,0.2689529061317444,-0.9738700985908508
1772808342335442400,2.8334423828125,3.040595776388049,9.867912570214273,-0.1915288993541151,-0.978087604045868,0.3346396088600158,-1.1804603338241575
1772808342355491600,2.85349169921875,2.5783862611621617,9.805657481831313,0.2751287543870508,-0.9443963170051576,0.3785910308361053,-1.0924232006072998
1772808342375539500,2.87353955078125,2.0598983938753603,9.966946944940087,0.2728384514927864,-0.7675788998603821,0.6085334420204163,-0.8500465750694275
1772808342395587600,2.893587646484375,1.7963035715460776,9.485471588230132,0.1516087577022612,-0.5392398238182068,0.6896007657051086,-0.5188865661621094
1772808342415636500,2.913636474609375,1.901354722343385,8.22709825106561,-0.3010921938136219,-0.6120207905769348,0.4842877388000488,-0.1974554657936096
1772808342435684600,2.9336845703125,1.0573065749406814,6.884190773692727,-1.0935247202694416,-0.5679757595062256,0.5957033038139343,0.194316565990448
1772808342455732500,2.953732421875,0.4391527570262551,2.801110728442669,-0.4852621817722916,-0.2006231695413589,0.653430163860321,0.7679398059844971
1772808342475780600,2.973780517578125,1.7299217586219309,-6.4979170816779135,1.9951973736450077,-0.2478732913732528,-0.1202413886785507,1.369923114776611
1772808342495829500,2.99382958984375,-1.0692200078353284,-17.384543753588197,2.9164468341499563,-2.0756990909576416,-2.764132022857666,1.23396098613739
1772808342515877400,3.01387744140625,-9.927635509771108,-22.00286289443969,-0.1018769046753644,-3.660957098007202,-3.771566867828369,0.8178986310958862
1772808342535925500,3.033925537109375,-17.099617389416693,-22.899881876790523,-4.330374305641651,-3.772634506225586,-1.0188173055648804,0.1846189051866531
1772808342555974400,3.053974365234375,-18.71369743089676,-23.163258087933063,-3.238869985283911,-3.4687509536743164,1.3901381492614746,-0.4127214550971985
1772808342576022500,3.0740224609375,-18.38174277356863,-23.142021238636968,1.055740494667739,-2.56812596321106,0.9621950387954712,-0.3039798736572265
1772808342596074500,3.094074462890625,-13.7173422650218,-14.876065725910662,2.158501537577062,-0.7538729310035706,-0.5562314987182617,0.1317314952611923
1772808342616123600,3.11412353515625,-6.951647522372007,-6.277541807872057,0.6572462035052478,0.6688109040260315,-2.0449981689453125,0.5901872515678406
1772808342636171500,3.134171630859375,-0.6317138489723205,1.391587044867873,-1.6892523329727351,1.40361750125885,-1.475000023841858,0.4263325035572052
1772808342656219400,3.154219482421875,3.9052246472656726,5.992962649703025,-2.3340211860902604,1.481123685836792,0.6976176500320435,0.0266050957143306
1772808342676268500,3.1742685546875,5.68612372893095,8.665048938825725,-1.5859284443594517,1.5296586751937866,2.216092824935913,-0.3366720974445343
1772808342696316400,3.19431640625,7.067539508396386,9.7375109973222,-0.136123530735448,1.6630010604858398,2.4063520431518555,-0.3970388770103454
1772808342716364500,3.214364501953125,8.209898694461584,9.49185632083118,1.346480367423594,1.7851331233978271,1.527015209197998,-0.1102531254291534
1772808342736412400,3.234412353515625,9.447454869046808,8.920735179987549,1.7841303186714648,1.7538965940475464,0.7418977618217468,0.2687391638755798
1772808342756461600,3.254461669921875,9.764897016897796,8.346250115668774,1.6689038108184933,1.1118580102920532,-0.0134463906288146,0.5564190745353699
1772808342776509400,3.274509521484375,8.397830080780386,8.525418349817395,0.4482003521610051,0.3587183356285095,-0.3919165730476379,0.4142937958240509
1772808342796557600,3.2945576171875,6.247361189141869,8.947820170789957,-1.0480035437401385,-0.0141837447881698,-0.2585843503475189,-0.1879085898399353
1772808342816606500,3.3146064453125,4.796508300834894,9.481760458752513,-1.263578066200763,-0.2380108684301376,0.3019198477268219,-0.7089372873306274
1772808342836654600,3.334654541015625,3.8690544327318666,9.794179810005426,-0.5680052738454192,-0.2433995306491851,0.9422544240951538,-0.7550787329673767
1772808342856702500,3.354702392578125,3.1154677697598934,10.010442387795448,-0.1349637662410736,-0.0658667683601379,0.820071280002594,-0.6951972246170044
1772808342876751600,3.374751708984375,2.982881254044175,10.144148262929916,0.1635655913472175,0.0968599244952201,0.820647656917572,-0.416141539812088
1772808342896799500,3.394799560546875,3.290815568837523,10.49809847896695,-0.0460546258188784,0.1883328557014465,1.2135591506958008,-0.0714733526110649
1772808342916847400,3.414847412109375,3.8893344196945434,10.682516304206848,-0.3200971924044191,0.2681645154953003,1.6690431833267212,0.274887204170227
1772808342936896500,3.434896484375,4.093901883515716,9.179463273063302,-0.3561054943747818,0.1192515343427658,1.4154529571533203,0.5762588381767273
1772808342956944400,3.4549443359375,1.2453677251189947,2.49920108076632,1.0425548498801886,-0.5880880951881409,-0.1122917234897613,1.044087052345276
1772808342976992500,3.474992431640625,-6.106390291440486,-4.161286736002564,-0.140950585565716,-0.9041998386383056,-0.8714187145233154,1.1135789155960083
1772808342997040400,3.495040283203125,-13.149900104951858,-7.4032526414752,-3.022275691321492,0.4328845143318176,0.3152348399162292,0.689784049987793
1772808343017089500,3.515089599609375,-10.404081640142202,-12.535574613153932,-2.50555103431493,1.1045724153518677,1.1893117427825928,0.2446186691522598
1772808343037137400,3.535137451171875,-4.247890083700418,-19.74240451881885,0.3034507396385073,-0.0301096010953187,0.0989082157611846,-0.2315643429756164
1772808343057185500,3.555185546875,-5.611855546671152,-26.93221782323122,3.0645576667338608,-1.6427483558654783,-2.222286939620972,-0.3227892816066742
1772808343077234400,3.575234375,-13.015926518791913,-27.460522735655307,1.6887405840583145,-1.6105473041534424,-3.833859443664551,0.0727133229374885
1772808343097282600,3.595282470703125,-17.98300765938759,-23.742785822594165,-1.7254843606963752,-0.3729876577854156,-2.745558977127075,0.1881415396928787
1772808343117330400,3.615330322265625,-16.76810229254961,-18.901360521668195,-2.850141009071469,0.7119989991188049,-0.7291663885116577,-0.6922785043716431
1772808343137379600,3.635379638671875,-9.57710299322307,-12.504252423173188,-0.3830198778506368,1.050565242767334,0.4508360028266907,-1.7325750589370728
1772808343157427500,3.655427490234375,-2.981832037252188,-4.563711936873197,1.779581277064979,0.7074829339981079,1.0184139013290403,-2.2390928268432617
1772808343177475600,3.6754755859375,0.7433814952999352,3.6702807498812673,3.841090321007371,0.5778124332427979,1.290913701057434,-1.6666189432144165
1772808343197523700,3.695523681640625,0.3587070551753044,10.172691635847093,4.2970501281887294,1.76650071144104,0.7153801321983337,-0.4012646377086639
1772808343217572600,3.715572509765625,3.3350995317220686,13.652654396533965,3.568555236375332,2.719484567642212,-0.2164918333292007,0.8778935074806213
1772808343237620500,3.735620361328125,7.714544450002908,14.74736686528325,1.4665833952717482,2.438044786453247,-0.6810785531997681,1.442548394203186
1772808343257668600,3.755668701171875,10.126879148221017,14.843865584051608,-0.7362637722492218,1.5641210079193115,-0.3921149969100952,1.2758972644805908
1772808343277717500,3.775717529296875,10.13867363091111,13.691347407543658,-1.5074650023669005,0.5842220187187195,-0.1901986300945282,0.8408205509185791
1772808343297765400,3.795765380859375,8.954145866680145,12.587266221946477,-1.443900877211988,-0.239756241440773,-0.0584028549492359,0.4147337973117828
1772808343317813800,3.815813720703125,6.830339941039681,12.109156542277336,-1.587569635695219,-0.5708497762680054,-0.0492790713906288,0.0265852399170398
1772808343337862400,3.8358623046875,5.780263901874423,11.1452776080966,-1.480591754619032,-0.851307213306427,-0.1269460320472717,-0.253542810678482
1772808343357910500,3.85591064453125,5.535063983413576,10.980927588373422,-1.653689582812786,-1.202950119972229,0.2569436728954315,-0.3793493211269378
1772808343377958700,3.875958740234375,4.968197577404975,11.147801573616263,-1.6328560536205767,-1.2726093530654907,0.412648469209671,-0.3960202634334564
1772808343398007600,3.896007568359375,4.24432508469522,10.642906762874128,-1.3517553852170705,-1.2246804237365725,0.0282416678965091,-0.1724739819765091
1772808343418055400,3.916055419921875,3.3811522578448057,9.984204369211197,-1.613701855817437,-1.0479471683502195,-0.4286894202232361,0.1775443702936172
1772808343438103600,3.936103515625,3.4701521452903745,9.272801481974124,-2.316650510703027,-0.8131046891212463,-0.3305689990520477,0.4373208582401275
1772808343458151700,3.956151611328125,3.8262469721406696,7.675124293762445,-2.688725289234519,-0.8398154973983765,-0.435791552066803,0.4166304171085357
1772808343478200600,3.97620068359375,3.518934004116058,5.932746373671293,-2.972559766516089,-0.8904972672462463,-0.3705076575279236,0.2239163666963577
1772808343498248700,3.996248779296875,1.7610539789885282,3.101452688410878,-2.04942273869887,-0.6898797750473022,-0.2638366222381592,0.1243972033262252
1772808343518296600,4.016296630859375,0.8458493516057729,-2.682987037843465,0.5013184866253286,-0.4066939949989319,-0.3354270160198211,0.3691469728946686
1772808343538345500,4.036345458984375,-1.882997520136833,-11.759444109940528,2.554479023613036,-1.0458550453186035,-1.896007061004639,0.5690937042236328
1772808343558393600,4.0563935546875,-11.18981233087182,-19.379530991613866,0.674993164858967,-1.7093768119812012,-3.436392068862915,0.2933412194252014
1772808343578441700,4.076441650390625,-20.78303585329056,-20.926800181102752,-4.638492160308361,-1.5276588201522827,-2.3357536792755127,-0.3516302406787872
1772808343598486800,4.09648681640625,-21.49577378852367,-21.26120983036756,-7.904913877123594,-1.6288609504699707,1.490025758743286,-1.3625519275665283
1772808343618534700,4.11653466796875,-18.813236832535267,-22.334511262297628,-3.407587260305881,-1.8801089525222776,3.1231539249420166,-2.048938751220703
1772808343638582800,4.136582763671875,-14.69402690476179,-21.0976980150342,2.7504654138326643,-1.5478949546813965,1.2267616987228394,-1.9534639120101929
1772808343658630700,4.156630615234375,-8.456246029391885,-14.457342301189898,2.979396919059753,-1.4728429317474363,-0.4384071826934814,-1.6417860984802246
1772808343678679800,4.1766796875,-7.589584191381931,-5.944788109120727,3.0423028725668786,0.1028952896595001,0.0054201576858758,-0.3270688056945801
1772808343698727700,4.196727783203125,-5.775734441751242,-0.2080342631489038,2.1583739656746386,2.227303028106689,-0.9560670852661132,0.5909526348114014
1772808343718775600,4.216775634765625,1.493386792653799,4.07498207899034,0.0735560884676873,2.842672348022461,-1.545801877975464,0.7341151833534241
1772808343738824700,4.23682470703125,7.573916082128882,6.883095964193344,-2.303884552632272,2.1906330585479736,-0.8314915895462036,0.0327450707554817
1772808343758872600,4.25687255859375,10.573849008738994,8.742109382152558,-2.790310225225985,1.1428791284561155,0.4914897680282593,-0.7683048844337463
1772808343778920700,4.276920654296875,10.2444031193614,9.418184350898862,-0.8707163740977645,0.6332341432571411,0.9368001222610474,-0.9450114965438844
1772808343798969600,4.296969482421875,9.026203387153148,9.548375495910644,1.082211664420739,0.8948807120323181,0.3050543665885925,-0.4866931736469269
1772808343819017700,4.317017822265625,9.20595146701634,9.570493219694496,1.3901971979446708,1.050618290901184,-0.5206783413887024,0.0251222215592861
1772808343839065600,4.337065673828125,8.385451660722493,9.912112946468593,0.5342470888894051,1.0157839059829712,-0.8902056813240051,0.2203837484121322
1772808343859114800,4.35711474609375,7.0397022379219525,10.183498276543617,-0.2981692921042442,0.7263471484184265,-0.9707239270210266,0.1463544368743896
1772808343879162600,4.37716259765625,6.16358400478065,10.443964737719297,-1.3699766860842704,0.1270395815372467,-0.5368558168411255,-0.1809293627738952
1772808343899210800,4.397210693359375,4.616904597878456,10.999219616389274,-1.7806440839909017,-0.3869366347789764,0.2181070297956466,-0.4701448380947113
1772808343919258600,4.417258544921875,3.217964852160215,11.90858370105028,-1.730174418208748,-0.4391511976718902,0.5620713829994202,-0.6045722961425781
1772808343939307800,4.437307861328125,2.6550124047249555,11.642463744157553,-0.7451529619518668,-0.4220442771911621,-0.3079644739627838,-0.4052241742610931
1772808343959355600,4.457355712890625,2.566667766317725,11.039404327261447,-0.8418151276536285,-0.2727892696857452,-0.2897833585739136,0.0424198694527149
1772808343979403500,4.477403564453125,3.369525532937049,9.982077878576517,-1.3304061615876852,-0.1655971556901931,0.546856701374054,0.2478951662778854
1772808343999452700,4.49745263671875,4.91393757942915,8.094968831467629,-1.1382470745712518,-0.3603393137454986,0.7350710034370422,0.2440286725759506
1772808344019500800,4.517500732421875,5.723481107422709,5.361496638011932,-0.6545492195062339,-0.8531904220581055,0.1336632072925567,0.2258444875478744
1772808344039548700,4.537548583984375,4.15299587751925,1.6512363444417717,-0.1074001981414854,-1.1405481100082395,-0.2834963500499725,0.3841425478458404
1772808344059597800,4.557597900390625,0.6060667820185422,-2.3495734138786792,0.1672412111200392,-1.370066523551941,-0.708499550819397,0.4565525949001312
1772808344079645700,4.577645751953125,-4.063779716974497,-6.912294001626968,-0.3885287774652242,-1.3417701721191406,-0.8890616297721863,0.279500275850296
1772808344099693600,4.597693603515625,-8.794815720945596,-11.88631575514078,-0.4186905453644692,-1.267737865447998,-0.4409221410751343,0.1315155625343322
1772808344119741700,4.61774169921875,-11.90545066372156,-17.93197656033039,0.5482754681114107,-1.3398680686950684,-0.0365873239934444,0.0455789938569068
1772808344139790600,4.63779052734375,-16.85836883893013,-23.17482460708618,-0.098577059412375,-2.1933577060699463,-0.9510928988456726,-0.3358227610588074
1772808344159838700,4.657838623046875,-25.424962664222715,-23.63953119982481,-2.376849981730431,-2.3976120948791504,-0.9597792625427246,-0.6750163435935974
1772808344179886600,4.677886474609375,-29.09537668509483,-19.90362033216953,-3.496061662572622,-0.9576336145401,1.0300416946411133,-0.8476231694221497
1772808344199935700,4.697935791015625,-24.10214988037348,-16.380823807406426,-0.1425279909502714,0.853064239025116,1.4333611726760864,-0.723345160484314
1772808344219983600,4.717983642578125,-13.65231186670661,-11.366085428100824,2.608295077213645,1.9548426866531368,0.5341029763221741,-0.2557838857173919
1772808344240031700,4.73803173828125,-3.464644195523858,-3.79336644680202,1.4347558861173688,2.3856091499328613,-0.3395107090473175,-0.0101689267903566
1772808344260080600,4.75808056640625,4.926266899648309,3.391919735574722,-0.7974647484693675,1.7353918552398682,-0.0609506666660308,0.0051812045276165
1772808344280128800,4.778128662109375,8.186682654047011,8.776750487422943,-1.5648502927564083,1.2346712350845337,0.4278229773044586,0.0244502164423465
1772808344300176600,4.7981767578125,10.214009150141475,11.910917112433909,-0.783986039019376,1.0670592784881592,0.2932137250900268,0.1711958646774292
1772808344320224500,4.818224609375,12.358321857237817,13.403355810582635,-0.0640117958571761,0.7441179156303406,0.0151071464642882,0.3685837388038635
1772808344340273700,4.838273681640625,12.87689448019862,12.667931411767006,0.8913730854183435,0.3357494175434112,-0.4756158590316772,0.5841449499130249
1772808344360321500,4.858321533203125,12.05743336930275,11.383798779445886,1.4047162832930684,-0.0388572961091995,-0.9246671795845032,0.8440414071083069
1772808344380369700,4.87836962890625,10.449235956120493,10.356087716823817,0.6608177783817052,-0.3315685987472534,-0.9920445680618286,0.7859649658203125
1772808344400418600,4.89841845703125,8.691147841200232,9.270220233309267,-0.2721071415435522,-0.7963224649429321,-0.8107664585113525,0.3711307048797607
1772808344420466700,4.918466796875,7.071718255385756,8.809974711632728,-0.6099232747836039,-1.2100765705108645,-0.1649355441331863,-0.0374587774276733
1772808344440514600,4.9385146484375,6.09250789656043,8.803545555368066,-0.3483783341888338,-1.3459933996200562,0.2739060521125793,-0.3106044828891754
1772808344460563700,4.958563720703125,5.635570768779516,8.863705717298387,0.2429734015177935,-1.2081077098846436,0.3372347056865692,-0.3202699422836303
1772808344480611600,4.978611572265625,6.028564124438167,8.380318974009155,0.423768433150649,-0.9812219142913818,0.1799784451723098,-0.1364804655313491
1772808344500659700,4.99865966796875,7.293090139013528,7.819736762836575,-0.2155790525052696,-1.13993239402771,-0.1223176568746566,-0.1083744093775749
1772808344520707600,5.01870751953125,6.806794814801216,7.380656194263696,-1.166102465224266,-1.4466471672058103,-0.0305538307875394,-0.252171903848648
1772808344540756700,5.0387568359375,5.437617754662036,6.662501494678854,-1.4860072037965055,-1.5310227870941162,0.3416087627410888,-0.3821275532245636
1772808344560804600,5.0588046875,4.508881445533037,5.136702378720045,-1.1426882718890905,-1.4985220432281494,0.4415256083011627,-0.3955724537372589
1772808344580852500,5.0788525390625,2.5483658014297483,3.050194210338592,-0.285616757588461,-1.3918732404708862,-0.0336623676121234,-0.2555939257144928
1772808344600905000,5.098905029296875,-0.9126736476004124,0.5195785851329565,0.142420731183514,-1.2105919122695925,-0.6966021656990051,0.1162260919809341
1772808344620952800,5.118952880859375,-4.131709343862533,-3.093590284472704,-0.5469291680689901,-1.128531575202942,-0.7503129839897156,0.2494276911020279
1772808344641001000,5.1390009765625,-8.397689795526862,-6.911074104443192,-1.0747776419624686,-1.2175558805465698,-0.3777559399604797,0.1165867149829864
1772808344661049900,5.1590498046875,-14.244922370302676,-8.37037274953425,-1.9875763772472737,-1.1143667697906494,-0.2486527562141418,-0.255717009305954
1772808344681098000,5.179097900390625,-17.27293514397144,-9.798653740549089,-1.8751053055822848,-0.9998718500137328,0.1084342375397682,-0.3744284212589264
1772808344701145900,5.199145751953125,-20.892790359473228,-11.345647035706042,-1.1855581301920115,-1.057781457901001,0.0781514346599578,-0.3894893825054168
1772808344721194000,5.219194091796875,-23.019461026895044,-11.870655244672298,-0.8350712063513696,-0.8640581369400024,0.4046414792537689,-0.3724111020565033
1772808344741243000,5.239242919921875,-22.116699701499936,-11.545827078223228,0.352628392848745,-0.4322914183139801,0.7125601768493652,-0.2247988879680633
1772808344761291000,5.259291015625,-20.081635304629803,-10.792062720596787,2.115199863728136,0.6147849559783936,0.3517886996269226,0.1638436615467071
1772808344781339000,5.2793388671875,-14.700955827242137,-8.939526974219083,2.113385361652076,1.4760167598724363,-0.178908571600914,0.3859378397464752
1772808344801388000,5.299387939453125,-8.365888297596573,-5.528896108433604,1.159916543130949,1.9749385118484497,-0.6349172592163086,0.3875720202922821
1772808344821436000,5.319435791015625,-0.8136065396487713,-0.6412456474274396,-0.6912264337141066,1.4325001239776611,-0.470965713262558,0.2284507304430008
1772808344841483800,5.33948388671875,2.974865705370903,3.8741760135293006,-2.3029237447761,0.6155513525009155,0.4812777042388916,-0.0735966265201568
1772808344861532000,5.359531982421875,2.351801026800275,7.318409289187192,-1.2959038802661,1.2114923000335691,0.9309865832328796,0.0544605478644371
1772808344881580800,5.379580810546875,5.494599286556244,8.971535392898321,-0.0780642135418951,1.8447619676589968,0.1366304904222488,0.3105958998203277
1772808344901629000,5.39962890625,10.244677844649551,9.479182132697105,-0.1036390189770609,1.7083975076675415,-0.2129048258066177,0.3972800374031067
1772808344921676800,5.4196767578125,12.269543503588435,9.123828479602931,-0.2452285600334405,1.219692349433899,-0.0397377274930477,0.3130610883235931
1772808344941726000,5.439725830078125,12.165965055692196,8.239248123064637,-0.0570068855311721,0.8086802363395691,-0.0296778045594692,0.0907512083649635
1772808344961773800,5.45977392578125,11.352450870501997,7.933918437811732,0.0978756331447511,0.4978180825710296,0.1554231792688369,-0.038010649383068
1772808344981822000,5.479822021484375,10.312312872505188,7.908475368997454,-0.056521293971315,0.2023266851902008,0.4008724391460418,-0.0800026655197143
1772808345001870800,5.499870849609375,9.132507460621,7.906421359077095,-0.9705096774321048,-0.1292834430932998,0.535225510597229,-0.2977778315544128
1772808345021919000,5.5199189453125,8.198858829531073,7.720082210385799,-0.8634224907625466,-0.4106569290161133,0.8516895174980164,-0.3425198495388031
1772808345041966800,5.539966796875,7.109518701469898,7.477935834276676,-0.8269558505654334,-0.4588584303855896,0.6678269505500793,-0.2443732321262359
1772808345062016000,5.56001611328125,6.751950879457593,7.413908475524186,-0.9448495318010448,-0.3912339210510254,0.5782769918441772,-0.0175736993551254
1772808345082064000,5.58006396484375,6.475459750676155,7.422389888143539,-1.011708022326231,-0.2459754645824432,0.4090238511562347,0.2518706321716308
1772808345102112000,5.600112060546875,6.237856278693676,6.8567059699177735,-1.0944878662131723,-0.1816476583480835,0.1489391475915908,0.4178590178489685
1772808345122159900,5.620159912109375,5.501522363817691,5.770761329513788,-1.0506374724403025,-0.1671755462884903,0.0499462559819221,0.5853962898254395
1772808345142209000,5.640208984375,3.947068815782666,3.664020520442724,-0.6279025470558554,-0.0430303961038589,-0.0918239951133728,0.7300866842269897
1772808345162257000,5.6602568359375,2.207255193221569,0.1038987658917903,0.0749378982149064,-0.0849693045020103,-0.275955319404602,0.6743003726005554
1772808345182304800,5.6803046875,-0.0825292301267385,-5.781282723528147,1.5888573374181985,-0.9484535455703736,-0.6751022338867188,0.3870024681091308
1772808345202354000,5.70035400390625,-8.349639173585176,-9.369131273916365,0.4450652690056711,-1.917191505432129,-0.9982752203941344,-0.2226892113685608
1772808345222401800,5.72040185546875,-17.73477056518793,-11.3422205683887,-0.47891244741939,-1.754613757133484,-0.078743852674961,-0.7506504654884338
1772808345242450000,5.740449951171875,-21.681450673913957,-12.906968131422996,0.8064145823180675,-1.7624495029449463,0.6708049178123474,-0.8407365083694458
1772808345262497800,5.760497802734375,-21.755680277729034,-14.659925897717477,3.3502421557962894,-1.8410154581069944,0.8857147097587585,-0.5321569442749023
1772808345282547000,5.780546875,-22.04037984740734,-15.727003340566158,4.850486266998947,-1.1863560676574707,-0.0397793613374233,0.0769804418087005
1772808345302594800,5.8005947265625,-19.90594906737804,-13.6200240465641,2.8185549074575302,-0.2676079273223877,-0.4205511212348938,0.088665597140789
1772808345322643000,5.820642822265625,-14.538812962174417,-8.937217528232932,0.7962083917327225,0.5331063866615295,0.5801355838775635,-0.1408876925706863
1772808345342691800,5.84069189453125,-7.62364019024074,-3.2361277008384466,0.0275759891897439,1.2189041376113892,1.235027313232422,-0.2037771791219711
1772808345362740000,5.860739990234375,-1.9521376918584108,1.586232249611616,0.2473062430903315,2.049616575241089,0.3828195929527282,0.0395446270704269
1772808345382787800,5.880787841796875,4.000964072099328,5.535744951415062,-0.6284906491421163,2.5187368392944336,-0.8992217779159546,0.1387799680233001
1772808345402837000,5.9008369140625,10.431772780144216,8.414635085108875,-1.9162829730145632,2.0094497203826904,-0.6588964462280273,-0.0510911457240581
1772808345422884900,5.920884765625,12.9173281973958,9.596568741193414,-1.3645013234131038,1.4165581464767456,-0.0704586282372474,-0.0502888560295105
1772808345442932700,5.9409326171875,12.970066100370882,9.895469270181655,-0.6521208963807672,1.139958381652832,-0.3537704348564148,0.0483274050056934
1772808345462980900,5.96098095703125,12.949285178148743,9.355942706519365,-0.2238388582631945,0.8618543744087219,-0.4951735734939575,0.1729277223348617
1772808345483029800,5.98102978515625,12.527269726145269,9.372318671780825,-0.96786091648899,0.2674622237682342,-0.0304719526320695,0.12540103495121
1772808345503078000,6.001077880859375,10.919669694334267,9.112787445628642,-1.9874498282581567,-0.3453304767608642,0.3656571805477142,-0.293893039226532
1772808345523125800,6.021125732421875,9.304567324069142,8.758413451221585,-1.690446949584782,-0.7448851466178894,0.537557065486908,-0.5278058052062988
1772808345543175000,6.0411748046875,7.788931874728203,8.389182663944363,-0.9184401021726428,-0.8140087127685547,0.1692347228527069,-0.4840773344039917
1772808345563222800,6.061222900390625,7.158725507709383,7.729220625609159,-0.3271373201742768,-0.6454132795333862,-0.1590735167264938,-0.1910345256328582
1772808345583267800,6.081267822265625,6.699650783377885,6.924358533430099,-0.0143098265118896,-0.4594530463218689,-0.5542327761650085,0.0819673910737037
1772808345603317000,6.10131689453125,6.722814801344275,6.373766970396042,-0.5677049026593566,-0.4098095297813415,-0.3972217738628387,0.1818911135196685
1772808345623364900,6.12136474609375,6.369464889287948,5.653329128310084,-0.7340672120530158,-0.476663738489151,-0.0972396954894065,0.1966372579336166
1772808345643412700,6.141412841796875,4.987897718653082,4.266634531658887,-0.2154644131496548,-0.2454316169023513,-0.1542001813650131,0.2915434837341308
1772808345663460900,6.1614609375,3.745563662141561,1.7337848637908695,0.4554993500627577,-0.2186434715986251,-0.6466216444969177,0.4773465991020202
1772808345683510000,6.181510009765625,1.3503507791161535,-1.1314192743778229,0.0705216161426156,-0.4019201397895813,-0.9486727714538574,0.4667836427688598
1772808345703558000,6.201557861328125,-3.021083851188421,-4.200606354478001,-0.3753941322125494,-1.04710853099823,-1.3203017711639404,0.2641074061393738
1772808345723605800,6.221605712890625,-9.32389103322029,-7.237930561849475,-1.047577792608738,-1.777648687362671,-0.5801411271095276,-0.0357233732938766
1772808345743655000,6.241655029296875,-16.700446221905946,-8.537416246125101,-1.7139903222575783,-1.030109405517578,0.4832029938697815,-0.8871303200721741
1772808345763702800,6.261702880859375,-18.72915452774763,-10.473084449219703,1.539416722422838,-0.7078603506088257,0.5150642991065979,-0.6310755014419556
1772808345783751000,6.2817509765625,-20.63681653354168,-12.469383354365824,2.3010864463463423,-0.5584536194801331,0.0951639637351036,-0.3935868144035339
1772808345803799000,6.301799072265625,-21.27100875532627,-13.060926520991323,1.686461387079954,-0.1698935031890869,0.1656558066606521,-0.3124865293502807
1772808345823848000,6.321847900390625,-18.8509642133832,-12.163397835552692,1.7721046575739978,-0.0162072740495204,0.5179941058158875,-0.0558323711156845
1772808345843895800,6.341895751953125,-16.186785920906065,-10.049066425222158,1.5189109638802707,0.3661929965019226,0.5728147029876709,0.17437544465065
1772808345863944000,6.36194384765625,-12.922003203469512,-7.712071922409534,0.6706801970306784,1.07807719707489,0.1722757369279861,0.3454480469226837
1772808345883992800,6.381992919921875,-7.756507276463508,-4.363863318267464,-0.7737979686126113,1.7199835777282717,-0.2435637712478637,0.2556020319461822
1772808345904041000,6.402041015625,-1.7995488370776176,-0.2128478009104728,-1.916090519182384,1.8707486391067505,-0.1603315621614456,-0.0190293472260236
1772808345924088800,6.4220888671875,3.0509605185359714,3.811362122219801,-1.8837310951083897,1.8799452781677248,0.2148787528276443,-0.1892311722040176
1772808345944137000,6.442136962890625,6.610874767816067,6.596477993673086,-1.2018364802978931,1.8629614114761357,0.243104875087738,-0.2535950839519501
1772808345964185900,6.462185791015625,9.118451462739705,8.43886994717717,-0.5772334862440824,1.750212788581848,0.0267477817833423,-0.2186074554920196
1772808345984234000,6.48223388671875,10.428805747032165,9.413793422463536,0.0484334837794303,1.5571739673614502,-0.1344201862812042,-0.0976638793945312
1772808346004282000,6.5022822265625,10.943467918550969,9.947739555644988,0.5684395736094564,1.3844581842422483,-0.1241304650902748,0.0698112472891807
1772808346024330800,6.522330810546875,11.486970400106909,10.140005171775815,0.525598722205311,1.011183261871338,-0.0078715765848755,0.2070599794387817
1772808346044379000,6.54237890625,11.939329552447797,10.237115300440788,-0.2910037843890488,0.3164503574371338,-0.0791758000850677,0.0180578902363777
1772808346064427000,6.562427001953125,11.357089636218548,10.393879395079612,-0.6404745169244707,-0.3411545157432556,0.1396856606006622,-0.130135953426361
1772808346084476000,6.582475830078125,10.016825366830826,10.162877513319254,-0.5292123095925897,-0.7087390422821045,0.2293576002120971,-0.0879063606262207
1772808346104523800,6.602523681640625,9.01609057393968,9.62633844103515,-0.6510721910454332,-0.8602713942527771,0.0764805898070335,-0.0117743965238332
1772808346124572200,6.622572265625,8.44928028203249,8.942213436824083,-0.938284108870849,-0.9175796508789062,0.0221029575914144,0.0625640749931335
1772808346144620000,6.6426201171875,7.841187547144293,8.181496775841712,-1.1282830952439455,-0.9839666485786438,-0.1687028855085373,0.1144166514277458
1772808346164669000,6.6626689453125,6.940194400465488,7.120819263163209,-1.0323339731823653,-1.009924292564392,-0.1612653881311416,0.2460779547691345
1772808346184717000,6.682717041015625,5.238405095872283,5.4721629983425135,-0.8115275414176285,-0.8702872395515442,-0.2284089475870132,0.4381200969219208
1772808346204765000,6.702764892578125,3.20210326616168,2.917169887727499,-0.8366426203865558,-0.7334399223327637,-0.4407520890235901,0.4977413713932037
1772808346224813800,6.722813720703125,0.5610977594792843,-0.478567944830656,-0.4563497563470154,-0.628834068775177,-0.6046232581138611,0.4327113032341003
1772808346244862000,6.742862060546875,-2.3106746511638163,-2.9522008690983057,-0.6149972535796463,-0.7581070065498352,-0.6862589716911316,0.1874105632305145
1772808346264910000,6.76291015625,-5.739777577707171,-5.389332154920697,-1.1671911372438073,-1.2871521711349487,-0.2474478781223297,-0.244022250175476
1772808346284958700,6.782958740234375,-9.957720851433276,-7.580429409545659,-0.834682133968547,-1.7382277250289917,0.4952265620231628,-0.6838192939758301
1772808346305007000,6.803007080078125,-13.781085546135902,-9.192806738761067,1.1029761469647288,-1.6873066425323486,0.933571994304657,-0.6117566823959351
1772808346325055000,6.823054931640625,-16.947987735056877,-11.81887712664008,3.0769246886149046,-1.762427568435669,0.201158657670021,-0.2452496737241745
1772808346345103000,6.84310302734375,-20.3957106063962,-13.008167575228214,2.8382512493133545,-1.613514423370361,-0.2721621692180633,-0.0358170270919799
1772808346365152000,6.863152099609375,-22.392442057740688,-12.94806469644308,2.299065461912751,-1.1736043691635132,-0.0043145036324858,0.1661039292812347
1772808346385200000,6.8832001953125,-21.733627435874936,-11.22759699486494,1.7258359506130216,-0.5886229872703552,0.3441049456596374,0.3396620750427246
1772808346405248000,6.903248046875,-18.73311057189703,-8.15708831077218,0.9473648025576024,0.6212974786758423,0.3845396637916565,0.4962895512580871
1772808346425297000,6.923296875,-11.405873833131787,-4.735661910206079,0.6507163633450865,2.0097761154174805,-0.0906051620841026,0.6226319670677185
1772808346445345000,6.943344970703125,-1.387761933621764,-1.0056032757103444,0.4534348918136209,2.286250352859497,-0.5993170738220215,0.7348812818527222
1772808346465393000,6.963392822265625,6.849318197754025,3.228819423651695,-0.4790699030034244,1.5855560302734375,-0.3421533405780792,0.646818220615387
1772808346485441000,6.98344091796875,11.485794342064857,6.351086936554312,-0.681819211486727,0.6058946847915649,0.3635963797569275,0.5385316610336304
1772808346505490200,7.003490234375,11.773287926375865,7.646472784295677,0.8585184251733123,0.1398700624704361,0.4643772840499878,0.9348607063293456
1772808346525538000,7.0235380859375,10.841789166796207,8.835619440498947,1.0243114833116531,0.5483386516571045,0.0689761936664581,1.2069385051727295
1772808346545586000,7.0435859375,11.868348721295597,8.530721716922521,0.1815284604739397,0.7127853631973267,-0.3547607958316803,0.8150468468666077
1772808346565635000,7.063635009765625,12.38697745835781,7.595206707438826,0.619414193239063,0.3882010281085968,-0.2482181787490844,0.4787488281726837
1772808346585683000,7.083682861328125,11.782530386495589,7.0348682418942445,0.4903849316135049,-0.0977156609296798,0.2564557194709778,0.1878381371498108
1772808346605730800,7.103730712890625,10.143395398736,7.223869887793064,0.1393590968568809,-0.3907405138015747,0.6683877110481262,-0.0571789853274822
1772808346625780000,7.123780029296875,8.882890310239791,7.289895142364501,0.0311344853889197,-0.5339666604995728,0.6523579955101013,-0.2274481952190399
1772808346645827800,7.143827880859375,8.50289672140777,7.176285129797458,0.2146705593582242,-0.7260537147521973,0.2147703617811203,-0.2875772416591644
1772808346665876000,7.1638759765625,7.580770185807347,7.270367435073852,0.0648730157963931,-0.7879271507263184,-0.0870697870850563,-0.2286268025636673
1772808346685923800,7.183923828125,6.821923994871973,6.903051541507244,0.0367939724553376,-0.5448903441429138,0.1167722418904304,0.0301932319998741
1772808346705973000,7.203972900390625,6.927056101951003,6.297969678872823,-0.4877002956394106,-0.5616350769996643,0.055616233497858,0.1456387490034103
1772808346726020900,7.224020751953125,6.663375354903936,5.328438418018818,-1.08382019559592,-0.6258456110954285,0.2364397048950195,0.2088415622711181
1772808346746068700,7.24406884765625,4.894847094511985,3.378431892970204,-0.769762064160034,-0.4266887009143829,-0.0052679665386676,0.3521419167518616
1772808346766118000,7.264117919921875,2.6679940513730047,0.1852139440536498,-0.3896500731127336,-0.1114093363285064,-0.794670820236206,0.5445025563240051
1772808346786165800,7.284165771484375,0.3803121532618999,-3.4929069979339835,-1.2746939189769326,-0.589475691318512,-1.1066452264785769,0.5189772844314575
1772808346806214000,7.3042138671875,-5.189275446522236,-5.3588370634138585,-4.359230982291698,-1.6995922327041626,-0.5820990204811096,-0.0083426153287291
1772808346826261800,7.32426171875,-12.646311116111278,-7.875062928739189,-5.101645093864202,-1.8594740629196167,0.8289680480957031,-0.5835492610931396
1772808346846311000,7.344310791015625,-18.24669249808788,-8.209731521201133,-1.4124372329339383,-1.4511018991470337,0.6455484628677368,-0.8072810173034668
1772808346866358800,7.36435888671875,-22.23045701358318,-9.41244376142025,0.2610805196871049,-1.83367931842804,-0.4226612448692322,-0.341464638710022
1772808346886407000,7.384406982421875,-26.627179229879378,-8.711607860904932,-1.2388606813125311,-1.3121463060379028,-0.1287136077880859,-0.2420199364423751
1772808346906455800,7.404455810546875,-27.568972588980195,-8.352775718045233,-0.3759728088833391,0.1861592084169387,0.1929745078086853,-0.0753189325332641
1772808346926504000,7.42450390625,-23.537967014360422,-7.613674676543474,0.8289160447224975,1.6279067993164062,-0.7351630926132202,0.3217124044895172
1772808346946551800,7.4445517578125,-14.981353315812347,-5.38352609899044,-1.462608792552352,2.4027998447418213,-0.8627561926841736,0.1179992258548736
1772808346966601000,7.46460107421875,-5.294712674027681,-2.952669947914779,-2.825467463324964,2.304682731628418,-0.4754063487052917,-0.6792008876800537
1772808346986648800,7.48464892578125,2.870812625700235,0.5720861864835024,-1.9201194824375207,1.3515112400054932,-0.1945541650056839,-1.2742083072662354
1772808347006697000,7.504697021484375,4.851537529617548,4.3321214415699245,0.5303528579298407,1.300700068473816,-0.0344881564378738,-0.929039716720581
1772808347026744800,7.524744873046875,6.226156488549709,7.242592708441615,1.2998001570522784,2.014312028884888,-0.402172327041626,-0.4825033545494079
1772808347046794000,7.5447939453125,10.301599755311011,8.776620139041542,1.168811943378672,2.076402425765991,-0.3088532984256744,-0.3069962561130523
1772808347066841900,7.564841796875,13.037608773767948,9.290399682506918,1.448159265308827,1.3653277158737185,-0.1516122221946716,-0.2081596255302429
1772808347086889700,7.5848896484375,13.488286841154098,9.11090586966574,1.246740913168341,0.6883026361465454,-0.0246980041265487,-0.3282634615898132
1772808347106939000,7.60493896484375,12.386442036306857,8.20175513549447,2.1595542615003884,0.3077049553394317,-0.0200438015162944,-0.1152172163128852
1772808347126986800,7.62498681640625,10.920676241028309,7.833765872710943,1.5877786022707818,0.1241225004196167,-0.237046331167221,0.0125933792442083
1772808347147035000,7.645034912109375,9.471294009795784,7.624730323565005,0.5752664239548146,0.005019037052989,-0.4001108407974243,-0.0758267343044281
1772808347167083800,7.665083740234375,8.743378379175066,7.234374915194511,-0.0098561213389271,-0.3597548007965088,-0.5393380522727966,-0.2612353265285492
1772808347187132000,7.6851318359375,8.260328905016184,6.966405531042814,-0.3184165093084797,-0.7667653560638428,-0.1002559810876846,-0.3964383900165558
1772808347207179800,7.7051796875,7.027578669407963,6.894122385120392,0.0274792782164644,-0.8720747828483582,0.3177076578140259,-0.3216320872306824
1772808347227228000,7.725227783203125,6.060603522777557,6.736679660567641,-0.200653742709849,-0.6211447715759277,0.1802139580249786,-0.3093671500682831
1772808347247276800,7.74527685546875,6.390812797743082,6.184214704877138,-0.4750798835191875,-0.5639997720718384,0.0490100793540477,-0.3323643803596496
1772808347267325000,7.765324951171875,6.132050802397727,5.1401060496836894,-0.7707137388616799,-0.5382184982299805,0.1440730690956115,-0.3618598878383636
1772808347287372800,7.785372802734375,4.722183419951796,3.48843774356544,-0.2586810755962506,-0.3216599524021148,0.0643109604716301,-0.2629931271076202
1772808347307422000,7.805421875,3.419143258064985,0.3268336610525846,0.6296531170502304,-0.198432981967926,-0.0967900827527046,-0.0299528054893016
1772808347327469800,7.8254697265625,1.6345716253668068,-4.214637217918038,1.0072149486906825,-0.6375320553779602,-0.3012440502643585,0.1095760241150856
1772808347347517700,7.845517578125,-3.0336773753017185,-7.513778132030367,-0.590461947260052,-1.892326831817627,-0.5390356183052063,-0.1873386204242706
1772808347367566800,7.86556689453125,-10.960669228720665,-9.026755760338904,-1.496840732499957,-2.74524474143982,0.5632215142250061,-0.7188906073570251
1772808347387614700,7.88561474609375,-18.68293755097389,-8.747018196982145,0.073016355567798,-2.5494589805603027,1.244251728057861,-0.5143013596534729
1772808347407662800,7.905662841796875,-23.289138384008407,-10.080762709212305,2.0916884936288,-1.7387207746505735,0.3854011595249176,0.0473941192030906
1772808347427710700,7.925710693359375,-24.36744098522663,-10.172498743623494,1.908622667519748,-0.6576284766197205,-0.5167040824890137,0.2104142904281616
1772808347447760000,7.945759765625,-21.747452547609804,-10.29934583890438,1.9548167018093168,-0.0022571664303541,-0.6877889633178711,0.4105158150196075
1772808347467807700,7.965807861328125,-17.004562439715862,-8.175368648350238,0.3341596565591171,0.4568911492824554,-0.0885774344205856,0.3694862723350525
1772808347487855900,7.98585595703125,-12.304689635771512,-5.095905673429369,-0.95903719323799,1.170847773551941,-0.2949759066104889,0.0418840050697326
1772808347507904800,8.00590478515625,-7.586836353978514,-1.662220387531817,-0.8513794401388615,1.9141985177993772,-1.2017765045166016,-0.167356863617897
1772808347527953000,8.025952880859375,-2.3809084633409974,1.878168784806132,-0.9593641601700336,2.14490818977356,-0.8514923453330994,-0.1245337054133415
1772808347548000800,8.046000732421875,1.5656711076200007,4.544960474652052,-1.166393264864385,2.040421724319458,0.3241736590862274,-0.0993422120809555
1772808347568048600,8.066048583984376,4.159339693588018,6.535294333913922,-0.6308515330545604,2.004356861114502,0.5756287574768066,-0.1650851815938949
1772808347588096800,8.0860966796875,7.282510877332091,7.7600570778995746,0.2929576218705624,1.849216341972351,0.3708890676498413,-0.205972135066986
1772808347608144600,8.10614453125,10.262506931328772,7.8528809075474735,1.1553905170738696,1.481129765510559,0.5569333434104919,-0.148841381072998
1772808347628193000,8.126193115234376,11.112090793287754,7.307678636336326,2.283434323669225,1.2036070823669434,0.5186166763305664,0.1662329733371734
1772808347648241700,8.14624169921875,11.481495768088102,7.749289015647768,1.921868518061936,1.049205660820007,0.1274413764476776,0.25804403424263
1772808347668289800,8.166289794921875,12.355111663019656,7.813735476595163,0.7434149591781198,0.6583514213562012,0.1154663413763046,0.094343788921833
1772808347688338000,8.186337890625,12.120406250566244,7.90984607282877,0.0802889403866603,0.0060031926259398,0.3549274206161499,-0.1235933303833007
1772808347708386000,8.206385986328126,10.749368072730302,8.181491515144705,-0.4263374433884397,-0.4856392443180084,0.575348436832428,-0.3132461011409759
1772808347728434700,8.2264345703125,8.952900835055113,8.23448602322936,-0.5673698985513299,-0.5367398858070374,0.5867236852645874,-0.263125866651535
1772808347748482800,8.24648291015625,7.799718641680479,8.394781214603782,-1.0509121246632187,-0.2438720911741256,0.1314222663640976,-0.259388118982315
1772808347768531000,8.266531005859376,8.030629338026046,8.564431094300746,-1.1683386267784983,-0.1290047913789749,-0.1401209384202957,-0.1667068153619766
1772808347788579800,8.286579833984375,8.4697566683501,8.571029761913419,-1.6282000445082785,-0.496320366859436,-0.2212123572826385,-0.1732125282287597
1772808347808628000,8.3066279296875,7.668391770637035,8.217426751878858,-2.278037433061749,-0.8782548904418945,0.1007668226957321,-0.239745482802391
1772808347828675800,8.32667578125,5.695306567817926,6.973856431570649,-1.818928660330176,-0.9947584867477416,0.3225949704647064,-0.075715385377407
1772808347848724700,8.346724853515624,3.5009850904494524,4.499476488327979,-1.325681617283821,-0.927805721759796,-0.2066451907157898,0.1721299290657043
1772808347868772900,8.36677294921875,1.985882140550017,-0.4946966573327779,-0.2751895446635782,-1.164110779762268,-0.8583245277404785,0.4029670655727386
1772808347888821000,8.386821044921875,-1.7475784113436936,-6.262606104546785,0.5217272145342081,-2.167598962783813,-1.625962495803833,0.4510251879692077
1772808347908868900,8.406868896484376,-11.299350563955306,-8.428771162489056,-2.769531348830461,-3.126580238342285,-1.5094400644302368,-0.1238525137305259
1772808347928917800,8.426917724609375,-20.939624591362477,-8.13254423662424,-4.458081524883211,-2.694026470184326,0.1045649498701095,-0.7529762983322144
1772808347948966000,8.4469658203125,-26.1268775921464,-11.359081686818598,1.1210440839011222,-2.069554567337036,0.5220975279808044,-0.2025481015443802
1772808347969014000,8.467013916015626,-30.598584614539146,-13.649295733755826,3.134037737934291,-0.9099183678627014,-0.4759485721588135,0.6033276319503784
1772808347989063000,8.48706298828125,-30.40579526679516,-13.77230368926525,0.720032183894515,0.6481021642684937,-0.9228544235229492,0.3979592025279999
1772808348009111000,8.507111083984375,-23.80702244018316,-12.624108636653425,-0.0389160335100721,1.2777774333953855,0.0764996707439422,-0.0504068620502948
1772808348029159000,8.527158935546876,-15.495146887803076,-9.29580475642085,-0.0674219787599984,1.3030593395233154,1.156352996826172,-0.5613469481468201
1772808348049207800,8.547207763671874,-6.457348924446106,-4.530107481174171,0.3009745953159407,1.1673074960708618,1.2142776250839231,-0.9765781164169312
1772808348069256000,8.567255859375,0.92582655916214,0.5662438901960849,1.1984894348923116,1.0155986547470093,0.6619230508804321,-0.8061840534210205
1772808348089304000,8.587303955078125,3.4024937365591525,5.334351441454887,0.9884538418583572,1.4228694438934326,0.0027884407900273,-0.2301884293556213
1772808348109352000,8.60735205078125,6.666475659006833,8.085121391192079,-0.1812567308604717,1.6743297576904297,-0.3921648561954498,0.0482439361512661
1772808348129401000,8.627401123046875,10.885409697335955,8.304511745613812,-0.5393168664343655,1.231964111328125,-0.5245160460472107,0.0801970958709716
1772808348149449000,8.647448974609375,12.960055578488111,5.643890853357314,0.3211263893216848,0.7442930340766907,-0.5565416216850281,0.3697111904621124
1772808348169496800,8.667496826171876,14.432841481661796,9.972361955726146,-1.0400150292042645,0.5188598036766052,-0.0580778047442436,0.2380636483430862
1772808348189546000,8.6875458984375,13.611922573173045,6.162288704273104,-0.3603481003805995,0.0340789146721363,-0.1533334702253341,0.0111957844346761
1772808348209593900,8.70759375,13.48712598068118,6.715526397901773,-0.2238510966902598,-0.5279826521873474,0.101132333278656,-0.0133685376495122
1772808348229642000,8.72764208984375,11.001948164570331,6.504339223679899,-0.3044239685848355,-0.6698744893074036,0.2534718513488769,0.0483395978808403
1772808348249689900,8.74768994140625,8.590522982412576,6.767171829465031,-0.2874035679399967,-0.4229372143745422,0.0514522604644298,0.1918419003486633
1772808348269739000,8.767739013671875,8.327993743488191,7.156188682708144,-1.3160882978998123,-0.383548766374588,-0.3097295761108398,-0.0234264358878135
1772808348289787000,8.787786865234375,8.999539252111315,6.796462221357226,-1.721566602730751,-0.7781626582145691,0.0056957551278173,-0.2773537933826446
1772808348309835000,8.8078349609375,7.921812404954433,6.260914498198032,-0.7165377659074962,-0.8330591917037964,0.2861101031303406,-0.0611701123416423
1772808348329884000,8.8278837890625,6.887569310215115,5.778585739529133,-0.5661947903573513,-0.4901127517223358,-0.0285399854183197,0.2000719010829925
1772808348349932000,8.84793212890625,6.950470879808067,4.918808400335908,-0.8754381419226527,-0.3277074992656708,-0.3780670464038849,0.3215909600257873
1772808348369980000,8.86797998046875,6.003072540307045,3.9355613333404063,-0.964165057645738,-0.2693734169006347,-0.3807196319103241,0.4093806743621826
1772808348390027800,8.88802783203125,4.560743734717369,2.318095156553388,-0.7880743312463164,-0.1909583956003189,-0.574524998664856,0.3525323867797851
1772808348410077000,8.908076904296875,3.163908267802,-0.9473591765344144,0.5085006897469982,-0.2963147163391113,-0.8467976450920105,0.3969927430152893
1772808348430124800,8.928124755859375,1.4994120442926884,-4.0419817266643046,1.5343082933679222,-0.5807310938835144,-0.8101341128349304,0.5295469164848328
1772808348450173000,8.9481728515625,-1.624959162890911,-6.4802598444342605,0.8464091774456203,-2.183563232421875,-0.7891496419906616,0.8932095170021057
1772808348470221800,8.968221923828125,-8.890498447155952,-4.241045624633133,-1.7831477373749016,-3.339035749435425,0.205316349864006,0.6095695495605469
1772808348490270000,8.98827001953125,-16.203125645810363,-4.802985387894511,-2.928811517943441,-2.7273025512695312,0.4636440873146057,0.0584246069192886
1772808348510317800,9.00831787109375,-18.89122374305725,-3.2581974938273426,-3.055598115208745,-1.9634147882461548,0.3382936716079712,-0.2279884815216064
1772808348530366000,9.028365966796876,-21.327342636966705,-3.53700274477005,-1.7731148575298488,-0.3707925975322723,0.1752290874719619,-0.1234080418944358
1772808348550414800,9.048414794921875,-22.12588370943069,-5.663637171834707,-0.0351401043010875,0.5892331004142761,-0.4798584878444671,0.439749926328659
1772808348570463000,9.068462890625,-20.029409442830083,-7.388458392447233,-0.0973719579389318,0.9087769985198976,-0.5931477546691895,0.7805490493774414
1772808348590510800,9.0885107421875,-17.033690334522724,-8.369317687523365,-1.1124718511931595,1.0071295499801636,-0.2836325168609619,0.7419523000717163
1772808348610560000,9.10856005859375,-11.72795708478689,-7.1901254391014575,-2.3221017618462443,1.170055866241455,0.3391782939434051,0.3293434083461761
1772808348630608000,9.12860791015625,-5.518772189304232,-5.429153877699375,-2.270511421471089,1.1732155084609983,0.7502507567405701,-0.3229778409004211
1772808348650655700,9.14865576171875,-0.1060638349711895,-3.1377152574032543,-1.158007567704469,0.8693007826805115,0.7183997631072998,-0.6384009122848511
1772808348670703900,9.168703857421876,3.6324528312683104,-0.5233072502672672,-0.1853389586728066,0.5428614616394043,0.4704127609729767,-0.7442634105682373
1772808348690752800,9.188752685546875,4.643111636802554,2.7494638355746863,0.825605093543604,0.607179582118988,0.3405641913414001,-0.6649886965751648
1772808348710801000,9.20880078125,4.300381318438053,3.861365924055874,2.3357890725456176,1.374783277511597,0.0050222477875649,0.2202313840389251
1772808348730848800,9.228848876953125,5.809442650085687,5.378160772565007,1.2313397842884064,1.8480232954025269,-0.5426993370056152,0.607014536857605
1772808348750898000,9.24889794921875,8.76161195500195,6.00272767239213,-0.1981992987624369,1.607211947441101,-0.3373356461524963,0.2962963283061981
1772808348770945800,9.26894580078125,10.456652369856831,6.106340607079863,-0.534984901644662,0.94961017370224,0.3602851629257202,-0.0836006477475166
1772808348790994000,9.288993896484374,10.015138436657187,5.861339426061511,0.1075362821439281,0.5092189311981201,0.727029025554657,-0.1077659428119659
1772808348811041800,9.309041748046877,8.921812453830242,5.456855539095401,0.8641415988173335,0.602175772190094,0.6605896949768066,0.1819841563701629
1772808348831091000,9.329091064453126,8.521203946992754,5.4940416526734825,0.4527665640980005,0.8532306551933289,0.281998872756958,0.2761583030223846
1772808348851138800,9.349138916015624,8.938818533688783,5.833416815391183,-0.3947565294062718,0.9257155656814576,-0.001737127546221,0.0389130786061286
1772808348871187000,9.36918701171875,9.35042949605584,5.931403142368793,-0.7268803692888468,0.6804901957511902,-0.047190997749567,-0.3601657748222351
1772808348891235800,9.38923583984375,9.42978769493103,5.714743089693784,-0.718695090071857,0.1685637235641479,0.0672104135155677,-0.4328786134719848
1772808348911284000,9.409283935546876,8.613944774532317,5.723081878972053,-0.6959859762661159,-0.3081037998199463,0.4462442398071289,-0.3216128945350647
1772808348931331800,9.429331787109374,6.719483026573061,4.606429381093383,-0.5995035510454326,-0.2525331377983093,0.645944356918335,-0.1699974536895752
1772808348951379700,9.449379638671877,3.1938983323961496,4.3044308860898015,-0.4377807745533064,0.313473641872406,0.5172502994537354,-0.1695448905229568
1772808348971428900,9.469428955078126,1.4379910686463118,0.8800111489266157,0.9012250557385384,0.9840874075889589,0.3226096630096435,-0.0610277540981769
1772808348991476700,9.489476806640624,1.702897558096051,-3.974192385029792,3.216351864005625,0.7684418559074402,-0.4851045310497284,-0.099731296300888
1772808349011524900,9.50952490234375,-0.2783791344851255,-9.5659871404469,4.4253094283550976,-1.8315787315368648,-2.6808199882507324,0.32354336977005
1772808349031573800,9.52957373046875,-3.1930034293830394,-4.090845418554545,-1.1688608970869332,-4.494673728942871,-2.121315717697144,0.1937317550182342
1772808349051622000,9.549621826171874,-11.516797383093833,2.5447645620673893,-5.485087946367264,-4.400628566741943,0.1950724422931671,-0.2944656014442444
1772808349071669800,9.569669677734376,-15.747735162949562,1.943919898611307,-3.2620714126512405,-2.575073480606079,0.8242464661598206,-0.5213515758514404
1772808349091718000,9.5897177734375,-12.778568546003102,0.3247936796575784,0.0498786410864442,-1.3135488033294678,-0.951092541217804,-0.3057073652744293
1772808349111766800,9.609766845703126,-8.137819546678662,-1.5977634051904082,0.9358828198827802,-1.1550068855285645,-1.8984787464141848,0.1453185826539993
1772808349131815000,9.62981494140625,-6.044214113512635,-0.5504010088980198,-0.5622757172174752,-1.197448492050171,-0.6257144212722778,0.2705965936183929
1772808349151862800,9.64986279296875,-4.951977679488063,0.0014820552513003,-0.8537836517363786,-0.8298540115356445,0.5683590769767761,0.1298084259033203
1772808349171912000,9.669911865234376,-3.3025989456117157,0.0454553447514772,-0.1950564889583736,-0.3898224234580993,0.5305944085121155,-0.0662384405732154
1772808349191959800,9.689959716796874,0.3031248686850071,0.0587622778311371,0.3954983972821384,-0.2258198112249374,0.7120797038078308,-0.0082325432449579
1772808349212007700,9.710007568359377,1.5342232454329727,-0.354498497569561,1.1593632200971244,0.0226356983184814,0.5369977951049805,0.2588688135147095
1772808349232055800,9.730055908203123,2.069872090879082,0.2570914317846298,1.3234899524584411,0.6576195955276489,-0.245149627327919,0.4761579632759094
1772808349252104700,9.750104736328124,3.5710359472751616,0.1774032703027129,1.1618141203805803,0.9274494647979736,-0.7597070932388306,0.5122981071472168
1772808349272152800,9.77015283203125,4.806292028224468,0.2872244119808078,0.4546498936265706,0.8498742580413818,-0.4866428971290588,0.3621549904346466
1772808349292200700,9.79020068359375,4.880833182206749,0.1457850199848413,0.2006329739164561,0.5799548625946045,-0.244646355509758,0.1494863778352737
1772808349312249900,9.810249755859376,4.2379695781886575,-0.3776721601471304,0.4368924839440733,0.2191756218671798,-0.2387276142835617,-0.0201367475092411
1772808349332297700,9.830297607421874,2.3454209703743456,-0.2073684927165508,0.5026750888660549,-0.0200904309749603,-0.4325633645057678,-0.0730853900313377
1772808349352345900,9.850345947265623,-0.2695189516812563,0.141658295443654,0.172784889787063,-0.4022941291332245,-0.949030578136444,-0.2306450754404068
1772808349372393700,9.870393798828124,-2.081229351195693,0.549540884937346,-0.2671623055525124,-0.8358817100524902,-0.9079137444496156,-0.3767678141593933
1772808349392443000,9.89044287109375,-2.9046377384126183,0.7127256602734326,-0.7989115862768142,-1.1688534021377563,-0.4154040515422821,-0.4043002426624298
1772808349412490800,9.91049072265625,-2.8334079009354114,0.9413239880234002,-1.4165642497360706,-0.782109797000885,0.2197267115116119,-0.5367460250854492
1772808349432538600,9.93053857421875,-2.0175047747820614,1.4335679915070534,-1.0044833317697048,0.0858718305826187,0.6598170399665833,-0.9360389113426208
1772808349452587800,9.950587890625,-0.9917769949316978,-0.2424853988051414,0.3817391173250973,0.4618256390094757,0.2939377129077911,-0.9426146745681764
1772808349472635600,9.9706357421875,0.4949047471255063,-0.5553194683387875,0.8102560601770877,0.2435736060142517,-0.075296826660633,-0.8300698399543762
1772808349492683800,9.990683837890623,0.3157452808052301,-0.9675663905218242,0.6078819416817277,-0.0529642552137374,-0.1142546758055687,-0.7569942474365234
1772808349512732000,10.01073193359375,0.7207102292865515,-0.2340782204657792,-0.6570166325330734,-0.1961512416601181,0.2726511657238006,-0.3415509760379791
1772808349532780800,10.03078076171875,0.5302537084043025,0.4756202009409666,-0.3705990799557417,-0.2631893455982208,0.8514934182167053,0.01702213101089
1772808349552828700,10.05082861328125,-0.6913169615417718,-0.1444853355631232,0.4029742861207574,-0.1939603835344314,0.693839967250824,0.1925794333219528
1772808349572877000,10.070876953125,-2.601741417786479,0.1947293758958578,0.4974524953795596,0.4973872005939483,-0.5501884818077087,0.2318088561296463
1772808349592929800,10.0909296875,-0.9408996251314878,0.2069119811207055,-1.1445504124991597,0.928589642047882,-0.579535186290741,0.2403865605592727
1772808349612977700,10.110977783203126,0.2528366969496011,0.5668485780909657,-1.7625678906828164,0.7587630748748779,-0.1000806018710136,0.0513705424964427
1772808349633025800,10.13102587890625,0.2320236260235309,-0.2411120646253228,-0.8651667040813714,0.3271901309490204,-0.0315820574760437,0.1311525106430053
1772808349653073700,10.15107373046875,-0.0826367821544408,0.0278746798753738,-0.0631353052835911,0.2228077501058578,-0.2066229432821273,0.1656689196825027
1772808349673122800,10.171122802734375,-0.1373509536385536,0.5867366431266069,0.2807129111949354,0.7779693007469177,-0.4739982187747955,0.2435552030801773
