time,seconds_elapsed,accel_z,accel_y,accel_x,gyro_x,gyro_y,gyro_z
1772807759465463000,0.077463134765625,0.1601730262994766,0.0520832384586334,-0.1187671030692756,-0.0081364633515477,-0.0098531981930136,0.0060912016779184
1772807759485512000,0.097511962890625,0.0546405217260122,0.0116284784734249,-0.0823725051950663,-0.0366314761340618,-0.0260342117398977,0.0016204242128878
1772807759505561000,0.11756103515625,0.0252659586817026,-0.0175625446975231,-0.0496172136712819,-0.0200841352343559,-0.0115822330117225,-0.017867624759674
1772807759525609000,0.13760888671875,0.0061830725491046,0.0244569803863763,-0.0904926832865923,0.0104176811873912,0.0083497185260057,-0.01756470836699
1772807759545658000,0.157658203125,0.0998591351121664,0.0238283270940184,-0.0114093558300286,0.0174660738557577,0.0102140866219997,0.0011672016698867
1772807759565707000,0.17770703125,0.0756517455726862,-0.0079492054387927,-0.0179428492520004,-0.021433487534523,-0.0304942484945058,0.0024991990067064
1772807759585756200,0.197756103515625,0.1082248123973608,0.0529690813824534,-0.0126594289563596,-0.0400996133685112,-0.0404682606458663,-0.0091127259656786
1772807759605804000,0.217803955078125,0.0056225160568952,0.015028057783842,-0.0350623263571411,-0.0355129688978195,-0.0326570868492126,-0.0147529318928718
1772807759625853200,0.237853271484375,-0.0229243639916181,0.0389116221964359,-0.0304052212662994,0.015846412628889,-0.0267338454723358,-0.0130464499816298
1772807759645902000,0.257902099609375,0.0098813425451517,0.0872214795961976,-0.0016286241151392,0.0656004101037979,-0.0358691960573196,-0.0021147620864212
1772807759665950000,0.277949951171875,0.12206453717947,0.0244604875177145,-0.0171853819482028,0.0686045438051223,-0.0651871189475059,0.018599048256874
1772807759685999000,0.2979990234375,0.2169599124044179,-0.0159881349876523,0.0138997844062745,0.0235380232334136,-0.1166067123413086,0.0209778975695371
1772807759706048000,0.318048095703125,0.2353384496599435,-0.0134662152945995,0.0034546704985201,-0.0193749759346246,-0.1522511392831802,0.0101747401058673
1772807759726096100,0.33809619140625,0.1867658496707678,0.0054407297492027,-0.1099910914175212,-0.0568577125668525,-0.149136021733284,-0.0151781924068927
1772807759746145000,0.35814501953125,0.0776098939031362,0.0408420057371258,-0.0999591979531571,-0.0654423311352729,-0.1301996409893036,-0.0793942883610725
1772807759766194200,0.378194091796875,0.0449859736740589,0.1121487078428268,-0.102797599716857,-0.0244763456284999,-0.0647324919700622,-0.0833677351474762
1772807759786242300,0.3982421875,-0.0099433018654584,0.1054594393372535,-0.001945654175058,-0.0056560849770903,-0.0037619874347001,-0.0549811832606792
1772807759806290200,0.418290283203125,0.0039367549270391,0.0497846061274409,0.0601132905812934,-0.0322443060576915,0.0244492851197719,-0.0028236848302185
1772807759826339300,0.43833935546875,0.0088297876656055,0.0255409762308001,0.05482066406589,-0.0426859594881534,0.0359367169439792,0.0347021520137786
1772807759846388200,0.45838818359375,0.1002338136434555,0.0299796893306076,0.0249211272994056,-0.0391055420041084,0.0376404151320457,0.0353396125137805
1772807759866436400,0.478436279296875,0.0080786770373582,-0.0512188767142593,0.040972390651144,-0.0463535971939563,-0.0025532646104693,0.0199123229831457
1772807759886485000,0.498485107421875,0.0886643718808889,0.0209115628644824,-0.0002808262353762,-0.0224523935467004,0.0038127172738313,-0.0017799921333789
1772807759906534100,0.5185341796875,0.0430529597848653,0.0180655257835984,-0.0632526845855638,-0.0040821260772645,-0.0068950266577303,0.0048364228568971
1772807759926583000,0.5385830078125,0.002907411879301,0.0185692375220358,-0.0394016707357019,0.0062902849167585,-0.0250187907367944,0.0073775774799287
1772807759946631200,0.558631103515625,0.0920703809320926,0.0452867101863026,-0.0941794820405542,0.013982362113893,-0.0037415772676467,-0.0040188538841903
1772807759966680000,0.57868017578125,0.0115793786346912,0.0310970029227435,-0.0477141565289348,0.0163157060742378,-0.0241610147058963,0.0034866407513618
1772807759986729200,0.598729248046875,0.013920388802886,0.0714556090570986,-0.0651202685557305,0.034077875316143,-0.0358951985836029,0.0086720241233706
1772807760006777000,0.618777099609375,0.0738368051052093,0.0769243958570063,-0.1010924032341688,0.0289629455655813,-0.0102578187361359,0.0006874373648315
1772807760026826200,0.638826171875,0.1473772576123476,0.0325213366374373,-0.0971344959212467,0.0013005866203457,0.0178272109478712,-0.0127956010401248
1772807760046875100,0.658875244140625,0.1833686084479093,0.0553330340348184,-0.0126715577855706,-0.0261206645518541,-0.0013547844719141,-0.0125054223462939
1772807760066923300,0.67892333984375,0.119530050265789,0.0487919418282806,0.0216784555837512,-0.0244552213698625,-0.042122509330511,0.0045986138284206
1772807760086972200,0.69897216796875,0.19966741681993,0.1412112823285162,-0.0152536101680248,0.0026047856081277,-0.0481693558394908,0.0183160379528999
1772807760107021000,0.71902099609375,0.1871492960304021,0.0888737768478691,-0.0132770128654316,-0.0164235793054103,-0.0355586856603622,0.001261280151084
1772807760127070200,0.7390703125,0.1520113471537828,0.0407801925472915,-0.0281865588361397,-0.0566820204257965,-0.0324029400944709,-0.0140110682696104
1772807760147118000,0.7591181640625,-0.0189940388053655,0.0478103834450244,-0.0165408004343509,-0.0690701305866241,-0.0486946403980255,-0.0316807813942432
1772807760167167200,0.779167236328125,-0.0765530783265829,0.0523940579734742,-0.0065380234666168,-0.0158632881939411,0.0001689653145149,-0.0204237289726734
1772807760187216100,0.799216064453125,-0.123129536062479,0.086263009827584,-0.0010315715374425,0.0293044727295637,0.0304071567952632,-0.0056964713148772
1772807760207264300,0.81926416015625,-0.0685112261682748,-0.0890612622439861,0.0252627803439274,0.0005207690410315,0.0189061053097248,0.017501663416624
1772807760227313200,0.839313232421875,-0.0558235940307378,-0.0761713855326175,0.0794682716535404,-0.0248057898133993,-0.0090296398848295,0.0083220973610877
1772807760247362000,0.859362060546875,-0.0462140541642904,-0.0234197462931275,0.0381251479938626,0.0148796681314706,0.0061113303527235,-0.001196158118546
1772807760267410000,0.879409912109375,0.0495481670230627,0.0401883641339838,-0.0611317834414541,0.059617705643177,0.038824763149023,0.0152687653899192
1772807760287459000,0.899458984375,0.1855629036217927,0.0176985921673476,-0.0110656569588929,0.0407920964062213,0.0441220961511135,0.0253518652170896
1772807760307508200,0.91950830078125,0.2427338206082582,-0.0213961315110325,0.0321464389104396,-0.030174758285284,0.0064746192656457,0.0203656610101461
1772807760327557000,0.93955712890625,0.2319938154071569,0.0124817343018949,-0.0075142846202477,-0.0500366352498531,-0.0148431183770298,0.0097919991239905
1772807760347605200,0.959605224609375,0.2400724924445152,0.0982611983962357,-0.0327627441778779,-0.0472906753420829,-0.0287635587155818,-0.0069991764612495
1772807760367654100,0.979654052734375,0.0767874716043472,0.0463571158967912,0.0880216900631785,-0.0616074427962303,-0.086490087211132,-0.0346246175467968
1772807760387703300,0.999703369140625,0.0578097994118928,0.1699704899534583,-0.0393509269291535,-0.0188245065510272,-0.0326454676687717,-0.0139696141704916
1772807760407751200,1.019751220703125,-0.0168979433089494,0.1386234577924013,0.0074670844776555,0.0158041305840015,0.0046843416057527,0.0217178184539079
1772807760427800000,1.039800048828125,-0.048510640668869,0.0686323683299124,0.0373840473029762,0.0092422701418399,0.007906443439424,0.0419164486229419
1772807760447849000,1.059848876953125,-0.0183662622958421,0.0454779949747026,0.0568979087313637,0.0108460653573274,0.0231599062681198,0.0487945154309272
1772807760467897000,1.07989697265625,0.0228150583982467,0.0105354225397109,0.0155373590128496,0.0143294995650649,0.0262189414352178,0.0640607923269271
1772807760487946000,1.099946044921875,0.0975929437458515,-0.0099264968611299,-0.0201521958645433,0.0012224949896335,0.0153234507888555,0.0584259182214736
1772807760507995100,1.1199951171875,0.0935264249593019,-0.0055760465666651,-0.0159751659082248,-0.0144704487174749,-0.008688892237842,0.033840712159872
1772807760528044300,1.140044189453125,0.0880015240579843,0.0080905136056244,-0.072436546385847,-0.004739019088447,-0.0277562718838453,0.025954445824027
1772807760548092200,1.160092041015625,0.0857423469543457,0.0553881252229213,-0.0977130629941821,0.011450208723545,-0.0139338877052068,0.0300243571400642
1772807760568141300,1.180141357421875,0.1298386783123016,0.0509353835977613,-0.0833828512813895,0.0022021734621375,0.007641508243978,0.0341151356697082
1772807760588190000,1.20018994140625,0.1299707802593707,0.0202703423514962,-0.0784293935924768,-0.0243278909474611,-0.0052833659574389,0.0289503745734691
1772807760608238300,1.22023828125,0.043318332722783,0.051298810082674,-0.0481559820123016,-0.0300776250660419,-0.0233282428234815,0.0152120068669319
1772807760628287000,1.240286865234375,0.0413841497898101,0.0274848037749528,-0.0950500177973881,-0.0094255115836858,-0.0111130662262439,0.0088548911735415
1772807760648336100,1.260336181640625,0.0361433265268802,0.0244943897873163,-0.0492559426108375,-0.0029518140945583,0.0028927205130457,-0.0024893982335925
1772807760668385000,1.280385009765625,0.068701195782423,-0.0056827218115329,-0.0180775084823369,0.0027634303551167,0.0018182477215304,0.0137419179081916
1772807760688433200,1.30043310546875,0.1197270341426134,0.0501633763119578,-0.0340944677056744,-0.0043471208773553,-0.0069710174575448,0.0182607471942901
1772807760708482300,1.320482421875,0.2422247020423412,0.0143095342509448,-0.0455926708629354,-0.0169070027768611,-0.0011891096364706,0.0079163238406181
1772807760728531200,1.34053125,0.3059557081967592,0.016494038683176,-0.051855055725947,-0.0433335974812507,-0.0112074157223105,-0.0057034064084291
1772807760748579300,1.360579345703125,0.3447778985440731,0.0021099778912961,-0.0765679105695337,-0.0830936133861541,-0.0304825995117425,-0.0259639471769332
1772807760768628200,1.380628173828125,0.2177817501813173,0.0123030167341232,-0.0652158378846943,-0.1167341247200965,-0.0920300260186195,-0.0405286364257335
1772807760788677400,1.400677490234375,0.095885555306077,0.0573401360735297,-0.0240388645721599,-0.084398329257965,-0.0971744135022163,-0.0406065173447132
1772807760808726500,1.4207265625,-0.0083072250962257,0.0995950773485004,-0.0543974336851388,-0.0355645343661308,-0.1005263552069664,-0.0494889579713344
1772807760828774400,1.4407744140625,-0.0717272656053304,0.0041400224141776,-0.042393326832354,-0.0090626273304224,-0.0824771225452423,-0.0440353713929653
1772807760848823600,1.460823486328125,-0.1018242977052927,0.0039279870986938,0.0304022255916148,-0.0087148528546094,-0.0542640462517738,-0.0526330396533012
1772807760868872400,1.48087255859375,-0.1306131698161363,-0.0531803860455751,0.0099564536079764,-0.0254829917103052,-0.0141192162409424,-0.0359796322882175
1772807760888920600,1.500920654296875,-0.1990384712666273,-0.0269108032792806,0.0136418275898322,-0.006724567618221,0.0187308844178915,-0.0166790783405303
1772807760908969700,1.5209697265625,-0.131005384004116,-0.0220138250179588,0.0006549202447757,0.0345825143158435,0.0698534324765205,0.004174661822617
1772807760929018600,1.5410185546875,-0.0622357991605997,-0.0586414279304444,-0.0456352313630282,0.0606304183602333,0.0484936200082302,0.0322296284139156
1772807760949066800,1.561066650390625,0.0280763399273157,-0.0495985820360481,-0.0848868261035531,0.0583482719957828,-0.0281859692186117,0.0123646724969148
1772807760969115400,1.581115478515625,0.0635229163616895,-0.0075340487666428,-0.1053621164426207,0.0539803877472877,-0.061731606721878,-0.0378046780824661
1772807760989164500,1.60116455078125,0.1813824030667543,0.0881925165854394,-0.2112904884658753,0.0525493808090686,-0.0060505205765366,-0.0658040940761566
1772807761009213400,1.62121337890625,0.2216711588352918,0.0837250157825648,-0.2084193169437348,0.026170328259468,0.0390951409935951,-0.0618152022361755
1772807761029261600,1.641261474609375,0.1752519374877214,0.0834070358745753,-0.0388320541542023,-0.0022663727868348,0.0208210628479719,-0.0597914606332778
1772807761049310500,1.661310546875,0.2003086373329162,0.0872280554674565,-0.0237139799993485,-0.0056886253878474,0.0072218752466142,-0.0485119223594665
1772807761069359600,1.681359619140625,0.2147451589643955,0.1013999348133802,-0.0054077773276716,-0.0094091100618243,-0.0040747486054897,-0.049128770828247
1772807761089407500,1.701407470703125,0.1638116750627756,0.0692743194952607,0.0132065049124881,-0.0208976436406373,-0.0264994446188211,-0.0586318559944629
1772807761109456600,1.72145654296875,0.1852069297909736,0.0699051647447049,0.0298187631478533,-0.0218847580254077,-0.0174993705004453,-0.0715832486748695
1772807761129505500,1.741505615234375,0.1205436112225055,0.0656771717861294,0.1544475247921422,-0.0344565324485302,-0.0287273153662681,-0.0629017725586891
1772807761149554400,1.761554443359375,-0.0133761989235877,0.0443470912486314,0.1400892194960266,-0.0260839331895113,-0.0546509437263011,-0.0241482369601726
1772807761169602600,1.7816025390625,-0.0042032969087362,0.0884555514357984,0.0892568213487044,-0.0149532873183488,-0.0340201631188392,-0.0115133235231041
1772807761189651500,1.8016513671875,-0.0277700504571199,0.0404651352487504,0.0662007572688162,-0.0193410050123929,0.010697859339416,-0.0239258296787738
1772807761209700600,1.82170068359375,-0.0650268911838531,-0.0003629880934953,0.0826015647105872,-0.0175819173455238,0.0259030703455209,-0.0195070803165435
1772807761229748500,1.84174853515625,-0.0393920991897583,0.0235711374625563,0.0921085575180128,0.0133703146129846,0.0164967589080333,0.0067050727084279
1772807761249797600,1.861797607421875,-0.0339811800569295,0.0209244223460555,0.0377383771659806,0.0321231335401535,-0.0098245879635214,0.024207018315792
1772807761269846500,1.881846435546875,0.0575385812550783,0.0325232363335788,0.0157210084840655,0.0389046557247638,-0.0042458297684788,0.0218283087015151
1772807761289895400,1.9018955078125,0.1951069770365953,0.0893390562720596,-0.0528406692298129,0.0358453094959259,0.0240324400365352,0.0132806366309523
1772807761309943600,1.921943603515625,0.1783288607150316,0.073732029556483,-0.1205887655384838,0.0007526066619902,0.0070774164050817,0.0149554517120122
1772807761329992400,1.941992431640625,0.2584662272691727,0.0686952044330537,-0.0336286402922123,-0.0127845145761966,0.0160873495042324,0.0007101700175553
1772807761350041600,1.96204150390625,0.1917851391375064,0.0941143078498542,-0.0622321824314072,-0.0195065569132566,-0.0015630142297595,-0.005346171092242
1772807761370089500,1.98208935546875,0.2106231105983257,0.0391233652509748,-0.0434586545089259,-0.0323619060218334,-0.0033937017433345,-0.0011107847094535
1772807761390138600,2.002138671875,0.1614011067897081,0.0720405693382024,-0.014103380686976,-0.0535634458065032,-0.0265095643699169,-0.0104249119758605
1772807761410187500,2.0221875,0.1125537815123796,0.0648363370478153,-0.011422324909456,-0.0451959185302257,-0.0223672296851873,-0.0021269656717777
1772807761430236700,2.042236572265625,0.0663981795370578,0.0928232451260089,-0.06458152203653,-0.0438948199152946,-0.0190810747444629,0.0085926977917552
1772807761450284500,2.062284423828125,0.0637730917304754,0.0303328866824507,-0.0175072343137115,-0.0683205798268318,-0.005559941753745,-0.0025168978609144
1772807761470333700,2.082333740234375,-0.0597182633817195,-0.0016870763041079,0.0204074857998639,-0.0765715315937995,-0.0017124710138887,-0.0100086834281682
1772807761490382300,2.10238232421875,-0.027393033838272,0.0334660701416432,-0.0561246958691626,-0.0406447723507881,0.0245141517370939,0.0080151855945587
1772807761510430500,2.122430419921875,0.0234568634331226,0.0309511647112667,-0.0273287364304065,-0.0045710862614214,0.0215895492583513,0.0220199059695005
1772807761530479400,2.142479248046875,0.0338841494232416,-0.0249129074603319,0.0132138479687273,-0.0007686312310397,-0.0205363593995571,0.0250635258853435
1772807761550528500,2.162528564453125,0.0220423204600811,-0.0338313963226973,-0.0664763593398034,-0.0001620016992092,-0.0569297671318054,0.0224396660923957
1772807761570577700,2.18257763671875,0.1080816045343875,0.0220927354730665,-0.0788379378607496,-0.0049184393137693,-0.0279307849705219,-0.0011470727622509
1772807761590625500,2.20262548828125,0.0708662648618221,0.0073044777944684,-0.0734488287009298,-0.0220361240208148,2.47613934334e-05,-0.017852459102869
1772807761610674700,2.2226748046875,0.0535053802162408,0.0463048011876642,-0.0621994857382029,-0.0379482470452785,0.0092746661975979,-0.009585240855813
1772807761630723600,2.2427236328125,0.0155114573866128,0.037575989678502,-0.0308850041398778,-0.0166416242718696,-0.0011417556088417,-0.0011107958853244
1772807761650771700,2.262771728515625,0.0690618457883596,0.0611425970964133,-0.0300156008942052,0.0100241648033261,0.007017127238214,-0.0035598278045654
1772807761670820400,2.2828203125,0.1448912860155105,0.0546184560246765,0.0005692512553185,0.0211728867143392,0.0163755845278501,-0.0104284211993217
1772807761690869500,2.302869384765625,0.1871148092389106,0.0265578981883823,0.0063513417880982,-0.0023687013890594,0.0052835196256637,-0.0013728276826441
1772807761710918400,2.32291845703125,0.1544283451676368,0.0068213704526424,-0.0161815021352842,-0.0428319908678531,-0.0289712585508823,-0.0048687350936234
1772807761730966500,2.342966552734375,0.1253442895025014,0.0263650059647858,0.002851590038836,-0.0414733923971653,-0.0228713005781173,-0.0132775399833917
1772807761751015400,2.363015380859375,0.0832920311927795,0.0580282644681632,-0.0661721522288397,-0.0301070995628833,-0.004885094705969,-0.0185813978314399
1772807761771064600,2.383064697265625,0.0392921459466218,0.0278986452728509,-0.0279678015189245,-0.0297847315669059,-0.0251507386565208,-0.0173817127943038
1772807761791113200,2.40311328125,-0.0356353770047426,0.0401341497287154,0.0113086719345301,-0.0139087168499827,-0.0354354418814182,-0.0177079625427722
1772807761811162000,2.423162109375,0.0111982703626155,0.0739674457475543,-0.0239978384420275,0.008214559406042,0.0036040733102709,-0.0135009316727519
1772807761831211000,2.4432109375,0.0014548749834299,0.0334688466206192,-0.0179999862667173,0.0046576289460062,0.0152718620374798,-0.0069971699267625
1772807761851260000,2.463260009765625,0.0297732069730758,0.0335077173262834,-0.0385587901707738,-0.0004258546978235,0.0124217504635453,-0.0112632410600781
1772807761871308000,2.48330810546875,0.0279477451115846,0.0154363463237881,0.0392936803165823,0.0112959994003176,-0.0179391112178564,-0.0195012539625167
1772807761891357000,2.50335693359375,0.1501239259719848,0.0539304737605154,-0.0165963665464892,0.0062941117212176,0.0062933815643191,-0.0289398338645696
1772807761911406000,2.523406005859375,0.0701385351091623,0.0232616331219673,-0.0423974184855818,-0.0235871989279985,0.0101148663088679,-0.0232539717108011
1772807761931455200,2.543455322265625,0.0222205996364355,0.0520310698799788,0.0204854829395189,-0.0066717388108372,0.0120727680623531,-0.0151865277439355
1772807761951503000,2.563503173828125,0.040009938827157,0.0877137931577861,-0.0110947734555229,0.0343927554786205,0.0228085834532976,-0.0100970529019832
1772807761971552300,2.58355224609375,0.1431476572185754,0.0439642294108867,-0.0061594359451904,0.0286228116601705,0.0236691832542419,-0.0092861913144588
1772807761991601000,2.603600830078125,0.1194417874604463,0.0438809350416064,0.0321558277932927,-0.0126695642247796,-0.0170477535575628,-0.0213300008326768
1772807762011649000,2.62364892578125,0.1163689558863639,0.0365219505809247,0.0186629436874762,-0.0156024107709527,-0.020702114328742,-0.00840700045228
1772807762031698000,2.643697998046875,0.1128004497498273,0.1098626427322626,-0.0325172815168276,0.011191694997251,0.0048788753338158,-0.0016756411641836
1772807762051747000,2.6637470703125,0.1260340253323316,0.0317842545345425,-0.0009383768286556,-0.0043817847035825,0.0043825726024806,-0.0125397285446524
1772807762071796000,2.6837958984375,0.0600397504210472,-0.0269718858167529,0.0232488101730123,-0.0344320945441722,-0.0171003490686416,-0.0168535150587558
1772807762091844000,2.703843994140625,0.06581599573493,0.0456751249819993,-0.0068062094161286,-0.0237040612846612,-0.0089035388082265,-0.0192634351551532
1772807762111893000,2.72389306640625,0.0661556029528379,0.0346513344034552,-0.0335875410968437,-0.011614866554737,0.0050114737823605,-0.008455840870738
1772807762131942100,2.743942138671875,0.0290793794900178,0.0053948447808623,-0.001144055468589,-0.0045008063316345,-0.015339333564043,0.0057292669080197
1772807762151990000,2.763989990234375,0.0538344660401344,0.0253606512278318,-0.0269780963618308,0.0045366724953055,-0.0211610067635774,0.0107625946402549
1772807762172039000,2.784038818359375,0.1176093113362789,0.0347996568329632,-0.0842642737584188,0.0041099917143583,-0.0021012923680245,0.0010836489964276
1772807762192088000,2.804088134765625,0.0889642316102981,0.0243257552221417,-0.0269847087657079,-0.0213497579097747,-0.011331383138895,-0.02458306401968
1772807762212137000,2.824136962890625,-0.0157037650883197,-0.0091771397985517,-0.0305859481280669,-0.0253126807510852,-0.0247702803462743,-0.0264936834573745
1772807762232185000,2.84418505859375,0.0294470437586307,0.0524602550774812,-0.0204065724844112,-0.0106548881158232,0.0200484581291675,-0.0246630515903234
1772807762252234000,2.86423388671875,-0.0267857155948877,0.0121086632058024,0.0402784901028498,0.0086133796721696,0.0242369901388883,-0.0127675887197256
1772807762272283100,2.884283203125,0.0188806415587663,0.0457750782251358,0.0345907998552545,0.0310623440891504,0.0025755381211638,0.0064942426979541
1772807762292331000,2.9043310546875,0.111605687007308,0.0367481605522334,0.0093735026208683,0.0300141256302595,-0.0075431424193084,0.0091978833079338
1772807762312380200,2.924380126953125,0.1472305426180362,0.0170268303856253,0.0275533389665186,0.0081012016162276,-0.008380121551454,-0.0041721342131495
1772807762332429000,2.944428955078125,0.1671136392176151,0.0335768370397388,0.0341457960341125,-0.003385916352272,-0.0055205025710165,-0.0050842212513089
1772807762352478000,2.96447802734375,0.1209820026397705,0.0524842204749584,0.0065271732790395,-0.0121253598481416,-0.0190212335437536,0.0113350935280323
1772807762372525800,2.98452587890625,0.1343348206877708,0.0669677961185574,-0.019778138387762,-0.0149624599143862,-0.0197782944887876,0.0110065406188368
1772807762392575000,3.004574951171875,0.1171761806160211,0.0965337900817394,-0.0256378242013975,-0.02303665317595,-0.0248067397624254,-0.0058722849935293
1772807762412624100,3.0246240234375,0.0350426718086004,0.079247724238038,-0.0238707779962569,-0.0265766400843858,-0.026983767747879,-0.0107527812942862
1772807762432673000,3.044673095703125,-0.0105360070616006,0.0792640908509492,-0.0271782951090484,-0.0236289594322443,-0.0051657920703291,-0.0099844485521316
1772807762452721200,3.06472119140625,-0.0185182379871606,-0.0020987258449196,-0.0119374713573604,-0.0324521213769912,0.0263228043913841,-0.0010412419214844
1772807762472770000,3.08477001953125,-0.1280658234208822,0.0028469138637185,0.0221787332560867,-0.0055580199696123,0.0274929422885179,0.0111529901623725
1772807762492819000,3.10481884765625,0.0082259765535593,0.0745657039016485,-0.0267061840852722,0.0514102280139923,0.0410156026482582,0.0159697700291872
1772807762512867000,3.1248671875,0.0370750544190406,-0.0116708563104271,0.0038984322106465,0.050860159099102,0.0066403718665242,0.0169877000153064
1772807762532916000,3.144916015625,0.2108604264855384,0.0004236322395503,-0.0110988651087507,0.0198115482926368,0.0078038251958787,0.0096947252750396
1772807762552964900,3.16496484375,0.2136889279097318,0.0441148899279534,-0.0432969611411914,-0.0033598805312067,0.0020725729409605,0.0008206102065742
1772807762573014000,3.185013916015625,0.2183200948417186,0.0535670472756028,-0.0517559062004089,-0.0205903425812721,0.0096789067611098,-0.0145430397242307
1772807762593062000,3.205061767578125,0.1132762505680322,0.0690216599084436,-0.0103697471166029,-0.0272482186555862,-0.00882004853338,-0.0127748856320977
1772807762613111000,3.225111083984375,0.1354331373184919,0.0964182008780539,0.0187632257241755,-0.0096700238063931,-0.0026055620983242,0.0041292631067335
1772807762633160200,3.24516015625,0.103535777798295,0.064607496728003,-0.0095336981512606,-0.0234129782766103,-0.0022094168234616,0.0151235675439238
1772807762653209000,3.265208984375,0.0474929880589246,0.0100733579859137,0.0275147239891812,-0.0481159500777721,-0.015942407771945,-0.0016657751984894
1772807762673257200,3.28525732421875,0.0096598087489604,0.0029920214228332,0.0134946742041036,-0.0382270589470863,-0.0056474260054528,-0.0064414022490382
1772807762693305900,3.305305908203125,0.0001923077017068,0.0266185423344373,-0.0032135552190244,-0.0063369758427143,0.0116032715886831,-0.0003395667299628
1772807762713355000,3.32535498046875,0.0225894329488277,0.0035803427048027,-0.0075729925375431,0.0095018977299332,0.0350678041577339,0.0133818946778774
1772807762733403000,3.34540283203125,0.0491144517809152,-0.0031109716273844,-0.0064792790167033,0.0110417865216732,0.0302829314023256,0.0269430354237556
1772807762753452000,3.3654521484375,0.132040572270751,-0.023013065188378,-0.0228168484965339,-0.0031248773448169,0.0124875539913773,0.0250870548188686
1772807762773501000,3.3855009765625,0.1455792682796716,-0.0106494043081998,-0.0222710877146571,-0.0208869576454162,-0.0090107675641775,-0.0014882939867675
1772807762793549300,3.40554931640625,0.0736082570463418,0.0222448572948575,-0.0146800115311518,-0.0144224343821406,-0.0163804981857538,-0.0191813856363296
1772807762813597400,3.425597412109375,0.0846346779733896,0.0694620971523225,-0.0381542644904926,0.0093523589894175,0.0095533607527613,-0.0102632110938429
1772807762833646300,3.445646240234375,0.0466331563591957,0.0278347862564027,-0.0235371255951002,0.010832492262125,0.0090763987973332,0.0147093860432505
1772807762853695500,3.465695556640625,0.0806739576488733,-0.0125309802711009,-0.0195538646452128,-0.0139917377382516,0.0064668911509215,0.0226078033447265
1772807762873743400,3.485743408203125,0.0964940425932407,-0.0013970073163509,-0.0279282001608982,-0.0202262476086616,0.0081537095829844,0.0029048798605799
1772807762893792500,3.50579248046875,0.0640624300658702,-0.019371639946103,-0.0022389380332082,-0.0050792731344699,0.0009324188577011,-0.00588352791965
1772807762913841400,3.52584130859375,0.0900724851131439,-0.0017171791814267,-0.0041636224854737,0.0097268084064126,0.0013003037311136,0.0053384187631309
1772807762933890300,3.545890380859375,0.1052022497057914,0.0026290333293378,0.00202467422802,0.003509737085551,-0.0057406369596719,0.0048655807040631
1772807762953938400,3.5659384765625,0.0790887342840433,0.0123183604337275,-0.0227770644754171,-0.004422980826348,-0.009406485594809,0.0070402706041932
1772807762973987300,3.5859873046875,0.108918055358529,0.0677339581854641,-0.0229507405418902,-0.0056234435178339,-0.0030596628785133,-0.0012284955009818
1772807762994036500,3.606036376953125,0.0645341392308473,0.0326572379767894,-0.0086082904020324,-0.0088672488927841,-0.004295018967241,-0.0048223040066659
1772807763014085400,3.62608544921875,0.0753396108835935,0.0737887281797826,-0.0169710085451602,-0.0010772712994366,0.0027224868535995,-0.0008921967819333
1772807763034133500,3.646133544921875,0.0147960025936365,0.0482651414752006,0.0264855636045336,0.0055821798741817,0.0029229952488094,0.0120523050427436
1772807763054182400,3.666182373046875,0.1098667343854904,0.0514718285620212,-0.0152232515623793,0.0074140010401606,0.005055442918092,0.0212509799748659
1772807763074231300,3.686231201171875,0.0773141258269548,0.0166303784139454,0.0129237789809703,-0.0122824870049953,-0.0127526866272091,0.0128480363637208
1772807763094279200,3.706279052734375,0.0857932003587484,0.0129750707767903,-0.0242125771712511,-0.0043362602591514,-0.0184136182069778,0.0061349463649094
1772807763114328300,3.726328369140625,0.0725607938200235,0.0147374042741954,-0.0367949588360264,0.0076338383369147,0.0088599845767021,0.0005754600279033
1772807763134377500,3.74637744140625,0.0762426972031593,-0.0161699212953448,-0.0341350189117714,-0.0001044056843966,0.0273205619305372,-0.0020512617193162
1772807763154426400,3.76642626953125,0.015986673682928,-0.0244810919143259,-0.0016443696735426,-0.0146138137206435,-0.0076934602111577,-0.0069402111694216
1772807763174474500,3.786474609375,0.0618172814875841,0.0225048234052956,-0.0228715012932196,0.0026804618537425,-0.0058200811035931,-0.0102966744452714
1772807763194523400,3.8065234375,0.1237426995247602,0.0526753591328859,-0.0467237572520971,0.0127816582098603,0.0161630120128393,-0.0085445698350667
1772807763214572500,3.826572509765625,0.1043681369692087,0.0254530056864023,-0.0083694766774773,-0.0003411874640733,-0.0049312748014926,-0.0079664904624223
1772807763234621200,3.84662109375,0.0628033699154853,0.0330466756857931,-0.0105238782323896,-0.0234055779874324,-0.0295604076236486,-0.01748513802886
1772807763254669300,3.86666943359375,0.0601747749775648,0.0171177235394716,-0.0057721901932731,-0.0275078061968088,-0.0025332306977361,-0.0229718275368213
1772807763274718200,3.88671826171875,-0.0063058221459388,0.0498784218907356,3.3975334838e-05,0.0021061862353235,0.0237683858722448,-0.0119436886161565
1772807763294767400,3.906767333984375,0.0462754289627075,0.0389488854669034,0.0317233181275427,0.0442307777702808,0.0280062761157751,0.0118697173893451
1772807763314815200,3.926815185546875,0.1236053368806839,0.0049912324160337,0.0218848283434286,0.0334623605012893,-0.0044250078499317,0.0213514044880867
1772807763334864400,3.946864501953125,0.2144704336762428,-0.0245334066234529,-0.0409253731716424,-0.0110879186540842,-0.0170549675822258,0.0009672110900282
1772807763354913500,3.96691357421875,0.1271937167614698,0.0265749954536557,-0.0299961655413731,-0.038942452520132,-0.0342944078147411,-0.0379996299743652
1772807763374962400,3.98696240234375,0.0971025298804044,0.0297372588768601,-0.0247890984175726,-0.0279309898614883,-0.011745136231184,-0.0388084203004837
1772807763395010600,4.007010498046875,0.0515928245931863,0.0627208061985671,-0.0167533837391063,-0.0213199313730001,0.0017950709443539,-0.0230211205780506
1772807763415059500,4.0270595703125,-0.0097621000796556,0.0129212947629392,0.0695692473212257,-0.0191224459558725,-0.0212400592863559,-0.0131943337619304
1772807763435108400,4.0471083984375,-0.0267804548978805,0.0639319355539977,0.0253076423989608,0.0168553050607442,-0.0223943162709474,0.0018405662849545
1772807763455156200,4.06715625,0.0674210928440093,0.0695873309671878,0.0008310439966619,0.0367412753403186,0.007170844823122,0.0074275191873312
1772807763475205400,4.087205322265625,0.0873012668341398,-0.0026297639816999,0.0582270384432747,0.0074165035039186,0.0004258874978404,0.0105916317552328
1772807763495254300,4.107254150390625,0.1286059216469526,0.0031714696429669,0.0339381081001833,-0.0114663746207952,-0.0158827789127826,0.0096259694546461
1772807763515303400,4.127303466796875,0.1314233171552419,0.0128533440932631,0.017625234670192,-0.0157004632055759,-0.0363069325685501,0.0141914617270231
1772807763535351600,4.1473515625,0.1350742408782243,0.0394827000826597,-0.0372310852309688,-0.0045354273170232,-0.0540646240115165,0.005947379861027
1772807763555400400,4.167400390625,0.1550333253234624,0.0506420997396111,0.093371526658535,-0.012385094538331,-0.075818121433258,-0.0029268055222928
1772807763575449300,4.187449462890625,0.1150023437082767,0.0623063801787793,-0.0475058475404977,-0.0191869139671325,-0.0457639060914516,0.0042347465641796
1772807763595498200,4.207498291015625,0.1022743795603513,0.1373462774634361,-0.0910285802615806,-0.0205383412539958,0.0103549761697649,-0.0016509080305695
1772807763615546400,4.22754638671875,0.024515432575345,0.0229743406131863,0.0262601573508232,-0.0301376990973949,0.0128703592345118,-0.0062106675468385
1772807763635595300,4.24759521484375,-0.0586889203339815,0.0344134339943528,0.0368641516147181,-0.0061878161504864,-0.0019331714138388,0.0016742926090955
1772807763655644400,4.26764453125,-0.0281318695068359,0.0301923091679811,0.0156863755621016,0.0330003201961517,0.0034183980897068,0.0239133425056934
1772807763675692300,4.2876923828125,0.0350958633005619,-0.0317708105310797,0.0221107460537925,0.0313909538090229,0.0080553637817502,0.0323611795902252
1772807763695741400,4.307741455078125,0.1381803902000188,-0.0262973475560545,-0.0048728302007541,0.0086500570178031,0.0246333535760641,0.0165392942726612
1772807763715790600,4.32779052734375,0.0781944157928228,-0.0163597447790205,-0.0026282296117395,-0.0045530041679739,-0.0108915884047746,0.0004330386873334
1772807763735839500,4.347839599609375,0.1602981139838695,0.0277982536382973,-0.0447852634701877,0.0021420905832201,-0.0134948566555976,-0.0011968268081545
1772807763755887600,4.3678876953125,0.2253092230767011,0.0725895815230906,-0.100548688278906,-0.0105408560484647,0.009570543654263,-0.0032927235588431
1772807763775936300,4.387936279296875,0.1909562870979309,0.0271639012575149,-0.0709058296872302,-0.0499692894518375,-0.0073121720924973,-0.0176526829600334
1772807763795985400,4.4079853515625,0.0567418779194354,0.007877601507306,-0.0100751480842009,-0.0553409084677696,-0.0300685074180364,-0.0233119819313287
1772807763816034600,4.42803466796875,0.0076461308389902,0.0395718396708369,-0.0428845078827813,-0.0190323181450366,-0.010300206951797,-0.0094224400818347
1772807763836082400,4.44808251953125,-0.032107787400484,0.0139409931994974,-0.0214181972123682,0.0081231156364083,0.0044687492772936,-0.0034920894540846
1772807763856131600,4.468131591796875,-0.0076075523942708,0.0099381872989237,0.0370209496116265,0.0152316410094499,-0.0001706353068584,-0.0002381014637649
1772807763876180500,4.488180419921875,0.0413724593520164,-0.0127305944964289,0.0372270301103591,0.0155075527727603,0.0019985563121736,0.0100488346070051
1772807763896228600,4.508228515625,0.091767598593235,0.0112625677704811,0.023662870866619,0.0137221608310937,0.0097744073718786,0.0078315427526831
1772807763916277500,4.528277587890625,0.1017518169909715,0.0291954070851206,0.0219224204074591,-0.0075558377429842,-0.0031544927041977,-0.0040952265262603
1772807763936326400,4.548326416015625,0.0607943681806325,0.0495396914556622,0.0252106848305091,-0.0047762836329638,-0.014382280409336,-0.0115870935842394
1772807763956375300,4.568375244140625,0.0952875894129276,0.112513011110574,0.0088343542428687,0.0139823304489254,0.0225009899586439,-0.0048088608309626
1772807763976423400,4.58842333984375,0.0732119512051343,0.0501375112183392,0.0166849581453949,0.0038991894107311,0.009979791007936,0.0145090036094188
1772807763996472300,4.608472412109375,0.1039209777235984,0.0310424962565302,0.0466909144284203,0.0003069064114242,-0.0011220765300095,0.0254667419940233
1772807764016521500,4.628521484375,0.0980091233313083,0.0550656152702868,-0.0067137453597038,0.0106733739376068,-0.0061073540709912,0.0243135802447795
1772807764036569300,4.6485693359375,0.1029904188752174,-0.0138598907873034,-0.0511747087789699,0.0072077810764312,-0.0108505757525563,0.0226794891059398
1772807764056618500,4.668618408203125,0.1159866785705089,-0.0117532738968729,-0.0361583414329215,0.0048978803679347,-0.0051650474779307,0.0005163268651813
1772807764076667600,4.688667724609375,0.076360770624876,-0.0076645432785153,-0.0731241267912089,0.0022153274621814,-0.0070500071160495,-0.0088086742907762
1772807764096716300,4.70871630859375,0.1018564464092254,-0.0250697054572403,-0.0608364172240719,-0.0085573829710483,-0.0005130099598318,-0.0059183919802308
1772807764116764700,4.7287646484375,0.0577279663473367,-0.0005238777436316,-0.0409455391768366,-0.0158542897552251,-0.0058722388930618,-0.015682490542531
1772807764136813300,4.748813232421875,0.0008744447469711,0.0297156315669417,-0.0432545102389529,0.0020986048039048,-0.0008128017652779,-0.0187187027186155
1772807764156862500,4.768862548828125,0.0485375286757946,0.0653789194919168,-0.0628910481989383,0.0246369373053312,0.0099855177104473,-0.0158904250711202
1772807764176911400,4.788911376953125,0.0376800345748662,0.039324440781027,0.0177965361164882,0.0205960255116224,-0.0097427004948258,-0.0121621154248714
1772807764196959500,4.80895947265625,0.0394271705031394,0.059722939556837,0.0233092351233586,0.0161103717982769,-0.0173641461879014,-0.0110690593719482
1772807764217008400,4.82900830078125,0.093647420990467,0.0543264873407781,0.0009159823337569,0.0094294873997569,0.0164900217205286,-0.0032491981983184
1772807764237057500,4.8490576171875,0.1361433314144611,0.0143443133033812,0.0101853304604068,-0.0046173622831702,0.0361057706177234,0.0016322711016982
1772807764257105400,4.86910546875,0.1134510226130485,0.0130902215890586,0.0622986717963591,-0.0050711305812001,-6.98877702234e-05,-0.0052677923813462
1772807764277154600,4.889154541015625,0.0966851812511682,0.0564095772251486,0.0306028261976316,0.0056011504493653,-0.0364003591239452,-0.0118711367249488
1772807764297203500,4.909203369140625,0.1574286960273981,0.0686423052020371,-0.0167428623450919,0.0119779221713542,-0.0097918538376688,-0.0065728221088647
1772807764317252400,4.92925244140625,0.1093891800016164,0.0647328766733408,0.0002606602301821,1.67626421898e-05,-0.0007142914691939,0.0043641882948577
1772807764337300500,4.949300537109375,0.0720727180421352,0.050427872467041,0.0096165541291236,-0.0156375598162412,-0.0116276359185576,0.0072418386116623
1772807764357349400,4.969349365234375,0.0409837522953748,0.0120037415266036,0.0027399098252877,-0.020600127056241,-0.0177248604595661,0.0074203507974743
1772807764377398500,4.9893984375,-0.0133469728291034,-0.0098177757896482,0.0081538611654192,-0.010097075253725,-0.0014144098386168,0.0086580608040094
1772807764397447400,5.009447509765625,-0.0326361951887607,0.0094400285184383,-0.0093015333632007,0.0247513558715581,0.0164319109171628,0.0125786513090133
1772807764417495600,5.02949560546875,0.0386637849152088,0.001389408531785,-0.0317689839001745,0.0371658280491828,0.0205979738384485,0.0175323039293289
1772807764437544400,5.04954443359375,0.0627472558140754,-0.0522559646770358,-0.0005590951874852,0.0366045758128166,0.0060566342435777,0.0155810751020908
1772807764457593300,5.06959326171875,0.1353039579808712,-0.0251131062075495,-0.0100143943402916,0.0164037961512804,0.0056769214570522,-0.0024492079392075
1772807764477642500,5.089642578125,0.0901625014841556,-0.0044482115805149,-0.0526381689276546,-0.0065496824681758,-0.002290996722877,-0.015272376127541
1772807764497690400,5.1096904296875,0.0857365017354488,0.0538327124744653,-0.0281119957625865,0.0010450407862663,0.014044371433556,-0.0311324372887611
1772807764517739500,5.129739501953125,0.1016372507005929,0.0572968814536929,0.0161286029042676,0.018431743606925,0.0285907313227653,-0.0162023641169071
1772807764537788400,5.149788330078125,0.087533906546235,0.0462422573454678,0.0384626728525385,0.0092095043510198,0.0058551901020109,6.15390017628e-05
1772807764557836500,5.16983642578125,0.1207242284864187,0.0549805673353374,0.0318981997704133,-0.0029141930863261,-0.0027271891012787,0.0063387490808963
1772807764577885400,5.189885498046875,0.1414151343375444,0.0436070865362882,0.0332136297505348,-0.0080673284828662,0.0072609372437,0.0084586031734943
1772807764597934600,5.2099345703125,0.123062316045165,0.0354991834044456,0.054381578528881,-0.0011939592659473,-0.0057183979079127,0.0162852387875318
1772807764617983200,5.229983154296875,0.11846505138278,0.0324583544038236,0.0053492520734667,-0.0133198229596018,-0.0126663232222199,0.0085913194343447
1772807764638031400,5.25003125,0.0786345607757568,0.0118199093922972,0.0051000996179878,-0.016950087621808,-0.0100285578519105,-7.7160075306e-06
1772807764658080300,5.270080322265625,0.0226192435652017,0.0248686299271881,-0.0169467508867383,-0.0099039748311042,-0.0035171094350516,0.0007327368948608
1772807764678129400,5.29012939453125,0.0001233341187238,0.0315844941787421,-0.0351909577054902,0.0072172489017248,0.0057604387402534,0.0096245799213647
1772807764698177300,5.31017724609375,0.0357236398100852,0.0376226052992045,-0.004130816194415,-0.0050858715549111,0.0216228570789098,0.0139540936797857
1772807764718226400,5.330226318359375,0.078395491322875,0.0252582137666642,-0.0503624060153961,-0.0113434037193655,0.023244772106409,0.0153534337878227
1772807764738275600,5.350275634765625,0.0365144979268312,0.0302427241809666,-0.0517484900789335,0.0046122642233967,0.005932399071753,0.0087444987148046
1772807764758324500,5.370324462890625,0.1387052908569574,0.0382037661880254,-0.0466501074939966,0.0232151169329881,-0.0060475142672657,-0.0015325713902711
1772807764778372600,5.39037255859375,0.0974561656236648,-0.0019626783750951,-0.0297577536756172,0.0178721919655799,-0.0196634829044342,0.0026536402292549
1772807764798421200,5.410421142578125,0.2199748763114213,0.0326456936694681,-0.0660340223997831,-0.0043310867622494,0.0143481735140085,0.003360524540767
1772807764818470100,5.43047021484375,0.1228466274678707,-0.0128965987130999,-0.0195576275048777,-0.0305822063237428,-0.0025417795404791,-0.0099255926907062
1772807764838519000,5.45051904296875,0.1108832179516553,0.0362849269546568,-0.0358622080305591,-0.0206198543310165,-0.0214986931532621,-0.0185419842600822
1772807764858567200,5.470567138671875,0.1213975977033376,0.0419287780605256,-0.0180813078746199,-0.0014306830707937,-0.0206140782684087,-0.0135204065591096
1772807764878616000,5.490615966796875,0.0964285761415958,0.053173079521954,-0.0313448767365887,-0.0050811865366995,-0.0204256270080804,-0.0116112474352121
1772807764898665200,5.510665283203125,0.0587087940782308,-0.0045500645197927,1.37362644076e-05,-0.0333952642977237,-0.0239717084914445,-0.0136830937117338
1772807764918713000,5.530713134765625,0.0063239423245191,0.0015600889235734,0.0031712504472583,-0.0304225645959377,-0.0226993262767791,-0.0108983535319566
1772807764938762200,5.55076220703125,-0.0677151073545217,0.0090945760816335,0.0021005159432068,0.0087183807045221,-0.0125706614926457,-0.0108258444815874
1772807764958811400,5.570811279296875,-0.0072702832639217,0.042164924903959,0.0214523917429149,0.0522666499018669,0.0092235608026385,-0.0048072058707475
1772807764978860000,5.590860107421875,0.0610679244250059,-0.0278702959612011,0.0565396333456039,0.0470660030841827,0.0038643202278763,0.0086890812963247
1772807764998908200,5.610908203125,0.0944119756221771,0.0113129827834665,0.0147433590909466,0.0239237211644649,-0.0148959979414939,0.0163338482379913
1772807765018957000,5.63095703125,0.187203656566143,0.0236709445752203,-0.0031976269975304,-0.0039497180841863,-0.0028097552713006,-0.0057851979508996
1772807765039006200,5.651006103515625,0.1158703587144613,0.0414841030329465,-0.0226909205619245,-0.0248035043478012,0.0098080858588218,-0.0212375428527593
1772807765059055000,5.67105517578125,0.1079366431057453,0.0545316545240581,0.0162662943419069,-0.0147614544257521,0.02460821531713,-0.0121234757825732
1772807765079103200,5.691103271484375,-0.0266091899842023,0.0507316777192056,0.0357754065299406,0.0050686383619904,-0.0094162253662943,0.0117940725758671
1772807765099152100,5.711152099609375,0.0822381382256746,0.0137877023339271,0.0140852970410138,0.0115660931915044,-0.0103903543204069,0.0222350638359785
1772807765119201300,5.731201171875,0.119177583566308,0.0276473008602857,-0.0147191014325246,-0.0011158308479934,0.006732998881489,0.0047357575967907
1772807765139249200,5.751249267578125,0.1040665236741304,-0.0177758951872587,-0.004039667312242,-0.0138802416622638,0.011220077984035,-0.0006440016441047
1772807765159298300,5.77129833984375,0.0694458766698837,-0.0018019348554313,0.0032573212955147,-0.0011297988239675,9.59483149927e-05,0.0052267517894506
1772807765179347200,5.79134716796875,0.0230833539456129,0.0150941087573766,-0.0326699513278901,0.0105333318933844,-0.0183840002864599,0.0099271368235349
1772807765199396000,5.81139599609375,0.0717716892689466,0.0141762632600963,-0.0445446596473455,0.007154980674386,-0.009907710365951,4.12533991038e-05
1772807765219444200,5.8314443359375,0.0251449626505374,0.0254196879386901,-0.0195174781575799,0.0109827425330877,0.0044882735237479,-0.0074315769597887
1772807765239493000,5.8514931640625,0.0985603274732828,0.0443206416331231,-0.024699118579179,0.0123218279331922,0.0290189422667026,0.0019910112023353
1772807765259542300,5.871542236328125,0.0630851094663143,0.0144384213276207,-0.0221096135426312,-0.0118921156972646,0.0022504720836877,0.0055386661551892
1772807765279591200,5.891591064453125,0.100464115267992,0.0335147315889596,-0.0058779886553063,-0.0080068800598382,-0.0021003605797886,-0.0023355605080723
1772807765299639300,5.911639404296875,0.067880527049303,0.0512751369461417,-0.0070304100934416,0.0098143359646201,-0.0018856570823118,0.0026765782386064
1772807765319688200,5.931688232421875,0.0832809252768754,0.0333101489275693,-0.0041196372132748,0.019643286243081,-0.0039662541821599,0.0183095764368772
1772807765339737000,5.951737060546875,0.1443967804968357,0.0085386957645416,0.0186416451711207,0.0038305402267724,-0.0024442672729492,0.0215290244668722
1772807765359785000,5.971784912109375,0.1710837118923664,0.0168187405928969,0.0150266330117359,-0.0191475395113229,0.0001407422241754,0.0119718089699745
1772807765379834000,5.991834228515625,0.1222574294030666,0.0324038477376103,0.0186607517303898,-0.0426251143217086,-0.0269272904843091,-0.0017202994786202
1772807765399883300,6.01188330078125,0.0446025273144245,0.0534057192340493,0.0261377182812429,-0.0215976275503635,-0.0219886638224124,0.0090596191585063
1772807765419932200,6.03193212890625,0.0345306306332349,0.0799612793348729,-0.0148573408594354,0.0027057772967964,-0.0170795507729053,0.0206829495728015
1772807765439980300,6.051980224609375,0.0350268897175788,-0.0209618317469954,0.0538961148331873,-0.0248538050800561,-0.0401856191456317,0.0198316071182489
1772807765460029200,6.072029296875,0.0874228473871946,-0.0042339843079447,0.0317773864023387,-0.0539271645247936,-0.0035558843519538,0.0095802554860711
1772807765480078300,6.092078369140625,-0.0479781412273645,-0.0114988607443869,-0.0005908602989278,-0.0290555637329816,0.0242466107010841,0.0100314300507307
1772807765500127000,6.112126953125,-0.0676093088924884,0.0413853188335895,0.0102791644900105,0.034616146236658,0.0163115095347166,0.026809774339199
1772807765520175000,6.132175048828125,0.0322574250042438,-0.0095708152912557,0.0264501269649714,0.0728700011968612,0.0066870581358671,0.0469859838485717
1772807765540224000,6.15222412109375,0.1482487797498703,-0.0051380935408174,-0.0358305525169707,0.0434192866086959,0.0003268160508014,0.039859727025032
1772807765560273200,6.172273193359375,0.2384942833423614,-0.0524862663015723,-0.0096929073009639,-0.0171696487814188,0.0050189192406833,0.0120155643671751
1772807765580321000,6.192321044921875,0.1013227779239416,-0.0221707691453397,-0.0164942396125756,-0.0427781976759433,-0.01870290748775,-0.0133021678775548
1772807765600370200,6.2123701171875,0.0598807604670524,0.0485461503736674,-0.0121022151987068,-0.0102882366627454,-0.0064637153409421,-0.0066906390711665
1772807765620419300,6.23241943359375,0.0738397277146577,0.0404740492075681,0.0299754332805983,0.020614231005311,0.0166354309767484,0.0095049459487199
1772807765640468200,6.25246826171875,0.0158697693049907,0.0274009248837828,0.0798851636250503,0.0112169738858938,-0.014176438562572,0.0279075726866722
1772807765660516400,6.272516357421875,0.101422731167078,0.0264105986721813,0.0458701908963732,0.0134249916300177,-0.0114046558737754,0.0430446118116378
1772807765680565000,6.29256494140625,0.1270160221070051,0.0493804092407226,-0.0097291111255064,0.0106146968901157,0.0195466056466102,0.0289132185280323
1772807765700614100,6.3126142578125,0.1787602378696203,0.0029388299308717,0.0421113315531983,-0.0069174021482467,0.0249178055673837,0.0121882781386375
1772807765720662000,6.332662109375,0.0856675281524658,-0.0199438868761062,0.0551557047065347,-0.0184858869761228,-0.0190870687365531,0.0228361040353775
1772807765740711200,6.352711181640625,0.0639969636142253,0.0322549407862126,-0.0126591732280328,-0.0034079109318554,-0.0231526549905538,0.0384545251727104
1772807765760760300,6.37276025390625,0.0608820464640855,0.0215147894546389,-0.0477923180653713,-0.0040256571955978,0.0041009387932717,0.0308052785694599
1772807765780809200,6.392809326171875,0.0528618216156959,0.0128333242185413,-0.0371235880021937,-0.0100715085864067,0.0164431501179933,0.0153087731450796
1772807765800861400,6.412861328125,0.0319745164096355,0.0367943377815186,-0.0684089531038887,0.0017187183257192,0.0058097606524825,0.0196829214692115
1772807765820910300,6.432910400390625,0.0762403591156005,0.0492120669364929,-0.0594358845100738,0.0078572602942585,0.0006546739023178,0.0204797871410846
1772807765840959200,6.452959228515625,0.1065676928400993,0.0238441091850399,-0.0706733909045346,-0.0102523379027843,-0.0017108196625486,0.0163567271083593
1772807765861008400,6.47300830078125,0.1134773260980844,0.0373309288762509,-0.0898376351776532,-0.0223374739289283,0.0013964226236566,0.0184480845928192
1772807765881056300,6.49305615234375,0.0905406871467828,0.0196735455021262,-0.0850213574697263,-0.0028758374974131,0.0012108525261282,0.0174658074975013
1772807765901105400,6.51310546875,0.1451028829395771,0.0276529999487102,-0.0792376960343681,0.0029035804327577,0.0048687322996556,0.0037489405367523
1772807765921154600,6.533154541015625,0.1278700085878372,-0.0033403964690864,-0.0616499986292794,-0.014926815405488,-0.0334464311599731,-0.0030881930142641
1772807765941202400,6.553202392578125,0.0719376934856176,-0.0041977439507842,-0.0492485812882892,-0.0170252323150634,-0.0431889593601226,-0.0127036860212683
1772807765961251600,6.57325146484375,0.0932516996711492,0.0447337524786591,-0.053793786969874,-0.0055551519617438,-0.0015180602204054,-0.0064562931656837
1772807765981300500,6.593300537109375,0.0161053316265344,-0.0198642457686364,-0.0082463069555349,-0.0217553209513425,-0.0134151093661785,-0.0099779982119798
1772807766001349400,6.613349365234375,-0.0622989275246858,-0.0039272564463317,0.0373138681435957,-0.0200744569301605,-0.0407273583114147,-0.0164595302194356
1772807766021397200,6.633397216796875,0.0304372238397598,0.0037355332665145,0.0114123332384042,0.0034956776071339,-0.0074426089413464,-0.0111371912062168
1772807766041446400,6.6534462890625,0.0365261883646249,0.0147331664904952,-0.0144354621855542,0.0132964188233017,0.0259108208119869,-0.0068551418371498
1772807766061495300,6.673495361328125,0.1293558632314205,0.0197707222662866,0.012026391749829,0.0257384330034255,0.0353128127753734,0.0048637273721396
1772807766081544400,6.69354443359375,0.201741300484538,-0.0252868553392589,0.0008060922184959,0.0206354614347219,0.0139161553233861,0.0141709316521883
1772807766101592300,6.71359228515625,0.2760714420646429,-0.0514563387319445,0.0108139289538376,-0.0144964978098869,-0.0273896306753158,-0.0081400005146861
1772807766121641500,6.733641357421875,0.2549047353953123,-0.0255438988402485,-0.0239533417131751,-0.0545294433832168,-0.0444682165980339,-0.0430955402553081
1772807766141690400,6.7536904296875,0.2298942127794027,0.0356285088725388,-0.0466763013811782,-0.058045033365488,-0.0109994327649474,-0.053089689463377
1772807766161738500,6.773738525390625,0.0979524247080087,0.0670041826061904,-0.0079333502825349,-0.0415300950407981,0.0040658651851117,-0.0365436673164367
1772807766181787400,6.793787353515625,0.0650631315410137,0.0561836595147848,0.0442730396317318,-0.0227800495922565,0.00071970699355,-0.0136822024360299
1772807766201836300,6.813836181640625,0.0229570972174406,0.0387710446819663,0.0188448030604049,-0.0279935449361801,-0.0384080074727535,-0.0114709911867976
1772807766221885400,6.833885498046875,-0.0796668264329433,-0.000721592272818,0.0735455305410549,-0.0358483456075191,-0.0524081401526927,-0.0247010774910449
1772807766241933300,6.853933349609375,-0.034455811831355,0.0298638078659772,0.0351435201008804,-0.0076458225958049,0.0145019078627228,-0.016743192449212
1772807766261982500,6.873982421875,-0.0553963085293769,-0.0132296300597488,0.0365714340121485,-0.0040967995300889,0.0399489812552928,-0.00481115328148
1772807766282031400,6.89403125,-0.0705868633985519,-0.0522755461603403,0.0605732545095495,-0.0067799342796206,0.0164231471717357,-0.0065816226415336
1772807766302080500,6.91408056640625,-0.0335638314276933,-0.0155954824082553,0.0560015078809112,0.0213871039450168,0.0071981190703809,-0.0071757859550416
1772807766322128400,6.93412841796875,0.0840653536528348,0.0285123932570219,-0.0259066494717262,0.0457824580371379,0.0255345162004232,0.0015005262102931
1772807766342177300,6.95417724609375,0.1394552324414253,0.0281757086485624,-0.0488643860099837,0.0195663198828697,0.0170495491474866,-0.0056780478917062
1772807766362226400,6.974226318359375,0.2027647983133792,0.0309938348092138,-0.016150230214186,-0.0143185714259743,0.0160022098571062,-0.0215585231781005
1772807766382274300,6.9942744140625,0.1328214935153722,0.0719344786152243,-0.0047687853043898,-0.0113867036998271,-0.0021099764853715,-0.0126751204952597
1772807766402323500,7.014323486328125,0.1949304514259099,0.1125236786350607,-0.0178972565446048,0.0087400982156395,-0.0054538184776902,0.0030738990753889
1772807766422372400,7.034372314453125,0.1272901628732681,0.0639845425240695,-0.0223149816553108,-0.0057019409723579,-0.0223155096173286,-0.005041679367423
1772807766442421500,7.05442138671875,0.1955693338513374,0.0172924955844879,0.0014629669583402,-0.0330797359347343,0.012899381108582,-0.0125196482986211
1772807766462469400,7.074469482421875,0.026678748089075,0.0054443830110132,0.031512707584165,-0.0293712131679058,-0.0052349842153489,0.004578411579132
1772807766482518500,7.0945185546875,0.041330373775959,0.0605858399964868,-0.0093323851591907,-0.0024858373217284,-0.0025230054743587,0.0073945187032222
1772807766502567200,7.114567138671875,0.0696919603854417,-0.0021947335653007,0.0023558606774546,0.0034687831066548,0.0065453969873487,0.0025150757282972
1772807766522616300,7.1346162109375,0.1414917067050933,0.0168555654719471,-0.014408373249229,-0.0211130678653717,0.00549087068066,-0.0076913624070584
1772807766542664200,7.154664306640625,0.0738870739877223,-0.0243824538454413,-0.005487290570978,-0.0529791675508022,-0.029892710968852,-0.0131050944328308
1772807766562713300,7.17471337890625,-0.0063379708498716,0.0018536650426685,0.0157357859280891,-0.042766485363245,-0.0261786915361881,-0.0218209251761436
1772807766582762500,7.194762451171875,-0.0632698183834552,0.0160413264796137,-0.0397588318766094,-0.0084738787263631,0.0068339328281581,-0.0057357917539775
1772807766602810400,7.214810302734375,0.0040583354800939,0.022372575327754,-0.0451472834493033,0.0240367371588945,0.0392549075186252,0.0077644437551498
1772807766622859500,7.234859619140625,0.1313660340100526,0.0018606793053448,-0.019707447771728,0.0222641844302415,0.032434843480587,0.0109235439449548
1772807766642908400,7.254908447265625,0.1227343992650508,-0.0396264924675226,0.0011990370588377,0.0019192101899534,-0.0319341607391834,0.0002650632523
1772807766662957300,7.274957275390625,0.1504226166576147,0.0140427000083029,0.0091510920418426,-0.0065257977694272,-0.0428525321185588,-0.0201810207217931
1772807766683005400,7.29500537109375,0.1227180326521396,0.0379021528929472,-0.0713364944557659,-0.0204277858138084,-0.0112875504419207,-0.0261467453092336
1772807766703054300,7.315054443359375,0.0622603490799665,0.0315846403092145,-0.0254484573754481,-0.0310563966631889,0.017148220911622,-0.034979723393917
1772807766723103200,7.335103271484375,0.003179799079895,0.0467104593791067,0.0429869636102579,-0.0091272499412298,0.0158470813184976,-0.0263027008622884
1772807766743151400,7.3551513671875,0.0199485630512237,0.0357836994342505,0.0670798599245958,0.0167887471616268,-0.0129910912364721,0.0063615245744585
1772807766763200300,7.3752001953125,0.0920797332823276,0.035093817473948,0.0768664551246911,0.0214826948940753,-0.0428049713373184,0.0172324795275926
1772807766783249400,7.39524951171875,0.1526695188015699,0.023782442125678,0.0427185767313465,-0.0021947971545159,-0.0262461770325899,-0.0025795060209929
1772807766803294200,7.415294189453125,0.1003635775029659,0.0255250480093061,0.0327820516665466,-0.0136110251769423,-0.0072171473875641,-0.0033104396425187
1772807766823342300,7.43534228515625,0.0249228443324565,0.0349297129534184,0.012163644796051,0.0002346795517951,-0.005522203631699,0.0066345678642392
1772807766843391200,7.45539111328125,0.0086602763175964,0.0259409353338181,-0.0069566872701048,0.0072237811982631,0.0027284820098429,0.0019177275244146
1772807766863440400,7.4754404296875,0.0459720621019601,-0.0025832944914698,0.0445597841512411,0.0061414297670125,0.0042105321772396,-0.0014987951144576
1772807766883489300,7.4954892578125,0.0702116003453731,0.0269680864244699,0.0023642814459279,0.0111878076568245,-0.0006230720318853,0.0092334523797035
1772807766903537200,7.515537109375,0.0809492674589157,0.0340105522818863,-0.022220782299526,0.0114311128854751,-0.0039585581980645,0.004110608715564
1772807766923586300,7.53558642578125,0.1500485226482152,0.0375973247274756,-0.044028782547079,-0.0031833976972848,0.0127660110592842,-0.0087590236216783
1772807766943635200,7.55563525390625,0.0644686727792024,0.0040825931385159,-0.0125800618435256,-0.0234398059546947,-0.0016923384973779,-0.0146422823891043
1772807766963683300,7.575683349609375,0.0232458510309457,0.058399728129059,-0.0347868886829353,-0.0050995829515159,-0.004204710945487,-0.0075562940910458
1772807766983732200,7.595732177734375,0.104563367280364,0.0365761649861931,-0.0255637543181888,0.0240298341959714,0.0199202261865139,0.0067883720621466
1772807767003781400,7.615781494140625,0.1316156248569488,0.0258690391413867,-0.0192778607154265,0.0059067830443382,0.021964892745018,-0.0002289758995175
1772807767023830300,7.635830322265625,0.1694745231300592,-0.0124416945524513,0.0028770898062735,-0.026974756270647,-0.0054519544355571,-0.0076884673908352
1772807767043878400,7.65587841796875,0.0349777898788452,0.0308243234612047,-0.0189043146952986,-0.0181808769702911,-0.0390113219618797,-0.0180254355072975
1772807767063927300,7.67592724609375,0.149250650268793,0.0694829938098788,-0.0274385534804314,0.0169909726828336,0.0067064724862575,-0.0152228521183133
1772807767083976200,7.69597607421875,0.1029752213060855,0.0236734287932515,0.0159056078033521,-0.0027437419630587,0.0066178855486214,-0.0093409344553947
1772807767104024000,7.716024169921875,0.1224140812695026,0.017693185339868,0.0142950856004841,-0.0548907220363616,-0.0184833295643329,-0.0148724382743239
1772807767124073200,7.7360732421875,-0.0418143579006195,-0.0218938519001007,0.0474576792835257,-0.0581149272620677,-0.037624854594469,-0.0202134288847446
1772807767144122400,7.756122314453125,-0.0029769699841737,0.0621146569989621,0.0038623197176493,0.0074708312749862,0.0217322409152984,-0.0173321440815925
1772807767164171300,7.776171142578125,-0.0782429311096668,0.0375567004561424,0.016096527265571,0.0415244735777378,0.0307639800012111,0.0025063096545636
1772807767184219400,7.796219482421875,0.0695072514683008,0.0027741408884525,0.0299262238440103,0.0384176298975944,0.0163240544497966,0.0218208860605955
1772807767204268300,7.816268310546875,0.0898369227916002,0.0026461305946111,0.0212603032369166,0.0137948719784617,-0.010876515880227,0.0154754519462585
1772807767224317400,7.8363173828125,0.157777655595541,0.0073437868915498,-0.0207805934285745,0.0086355227977037,-9.5140712801e-06,-0.0060818754136562
1772807767244366000,7.856365966796875,0.1552045902371406,0.0298801744788885,-0.0156930244985967,-0.0134505638852715,0.0047594001516699,-0.0214608795940876
1772807767264414200,7.876414306640625,0.1893833386927843,0.0242978443019092,0.0011487499100156,-0.0367064140737056,0.0116904191672801,-0.0184455774724483
1772807767284463000,7.896463134765625,0.0311591083735227,0.0299272284910082,0.0542469375648535,-0.030228666961193,-0.0231330245733261,-0.0004963353276252
1772807767304512300,7.91651220703125,0.0388327117413282,0.0821631732933223,-0.013151011865586,0.0135116726160049,-0.0149059602990746,0.0142770763486623
1772807767324560100,7.93656005859375,0.0379243647247552,0.0332034736827015,0.0056282151453197,0.0266865584999322,-0.0034498157911002,0.0037007494829595
1772807767344609300,7.956609375,0.086211718031764,0.0137641753278672,0.0258145872741006,-0.0035524982959032,0.0031757589895278,-0.0041986838914453
1772807767364658400,7.976658447265625,0.038385552495718,-0.0123730132304131,0.0369983359210193,-0.0043009929358959,0.0037357434630393,0.00881920568645
1772807767384707300,7.996707275390625,0.0374409651219844,0.0458596877686679,-0.0140643821171484,0.0028936774469912,0.0058239819481968,0.0144212348386645
1772807767404755500,8.01675537109375,0.0291834243863821,-0.0104003979831933,-0.0125671292967163,0.0100304652005434,0.0024455222301185,0.0054842559620738
1772807767424804000,8.03680419921875,0.0803729288756847,0.0219521579585969,-0.0324167985507287,0.0190257579088211,0.011409050785005,-0.008059712126851
1772807767444853200,8.056853271484375,0.1499082373946905,0.0067357379958033,-0.0194458924924023,0.0198456719517707,0.0236724596470594,0.0061627607792615
1772807767464902100,8.076902099609375,0.0998661493748426,0.0502037083223462,-0.0173704379252158,-0.0051950379274785,-0.0174040328711271,0.0060615260154008
1772807767484950300,8.0969501953125,0.1900666447818279,0.0396998499646782,-0.0152251512585207,-0.0157352965325117,-0.0071958699263632,-0.004350368399173
1772807767504999200,8.116999267578125,0.1327098498344421,0.0963430898152291,-0.0238299893281422,-0.0243568234145641,0.0007095405599102,-0.0158670805394649
1772807767525048300,8.13704833984375,0.0369108037680387,0.0788270146079361,0.0062111478661186,-0.0152878100052475,-0.015283927321434,0.0001871930435299
1772807767545096200,8.15709619140625,0.0560293457359075,0.0857949539244175,0.0300965571759268,0.0001687030307948,-0.0013235720107331,0.0143103655427694
1772807767565145300,8.177145263671875,0.0249333657264709,0.0209425425246357,0.0265341154539957,0.0080627966672182,0.0120449364185333,0.0197708532214164
1772807767585194200,8.1971943359375,0.0809416686743497,0.0299810045048594,0.0084550178027711,0.0117825809866189,0.0234462767839431,0.0145970378071069
1772807767605243100,8.2172431640625,0.0370195248395204,0.0070956573493778,0.0265140042477287,0.0049669900909066,0.0001650256162974,0.0071800523437559
1772807767625291300,8.237291259765625,0.1314747550815344,0.0212640295639634,-0.0226428436364978,0.011428203433752,0.0002802577801048,0.0125019401311874
1772807767645340200,8.257340087890626,0.128911042073369,0.0213715815916657,-0.019610764197912,0.0063031548634171,-0.0027398918755352,0.010631937533617
1772807767665389300,8.277389404296875,0.1029144310295581,0.018512831159681,-0.0201113341311924,-0.0173452273011207,-0.0209244899451732,-0.0053272736258804
1772807767685437200,8.297437255859375,0.0921884543538093,-0.0082395666874945,0.0014948964665643,-0.0226839110255241,-0.0061850706115365,-0.0070333546027541
1772807767705486300,8.317486328125,0.0196305831432342,0.016859657125175,-0.029386143884249,-0.014395585283637,0.009278766810894,-0.0003683408722281
1772807767725535200,8.33753515625,0.0088104984432458,0.0084299746930599,-0.000988097721897,0.0151482131332159,0.0120461909100413,0.0188436806201934
1772807767745584000,8.357584228515625,0.0761620331823825,0.0315745573066175,-0.0533833612717688,0.0280721969902515,0.0101171042770147,0.025407537817955
1772807767765632500,8.377632568359376,0.1488543444275856,-0.0436117627114057,-0.040699966917932,0.0046914517879486,0.0112377051264047,0.01258878223598
1772807767785681200,8.39768115234375,0.1744037962257862,-0.0230042973600327,-0.0316811046873219,-0.0210216362029314,0.0052943285554647,-0.0100590055808424
1772807767805730000,8.41772998046875,0.1140092410176992,-0.0114247725948691,-0.0408979919743724,-0.0264470968395471,-0.0144294658675789,-0.0147280944511294
1772807767825779200,8.437779296875,0.1218856734812259,0.0134809744723141,-0.0159560045500285,-0.0251495633274316,-0.0014122088905423,-0.019947936758399
1772807767845827000,8.4578271484375,0.0606458996206521,0.0169135792694985,0.0313149930549785,-0.0196352154016494,0.0002903849817812,-0.0162660107016563
1772807767865876200,8.477876220703125,-0.0010725976675748,0.0242594119876623,0.0310795403312891,-0.0045503629371523,-0.012875510379672,0.0034674676135182
1772807767885925400,8.49792529296875,0.063175125837326,0.0446618562862277,0.0256280151934362,0.0088912630453705,0.0010721836006268,0.0112029779702425
1772807767905973200,8.51797314453125,0.095437811538577,0.0188464470282197,0.0223439885540865,0.0049431202933192,0.0111420983448624,0.0083069521933794
1772807767926022400,8.5380224609375,0.0522439819782972,0.0152376088812947,0.0520328234456479,0.0018123853951692,-0.0055080619640648,0.0156052177771925
1772807767946071000,8.558071044921874,0.0994844565808773,0.0342056364625692,-0.0116710572398267,-0.0022391735110431,-0.0061834664084017,0.0190087258815765
1772807767966120200,8.5781201171875,0.1079974333822727,-0.0138790338791906,-0.0385860617701895,-0.0201544128358364,0.0067548607476055,0.0139276683330535
1772807767986168000,8.59816796875,0.0990367128133773,0.0040362697787582,-0.0312951558433473,-0.0251112338155508,0.008522318676114,0.0010071694850921
1772807768006217200,8.61821728515625,0.0189402627915143,0.0029847148992121,-0.0647089660747908,-0.0021632690913975,-0.0180491153150796,0.0065270564518868
1772807768026266000,8.63826611328125,0.0208662624180316,0.0088052377462387,-0.0618328078502789,0.0210352428257465,-0.021359285339713,0.0045108003541827
1772807768046314200,8.658314208984375,0.1017734443008899,-0.0095611706800758,-0.088821407339815,0.0086683081462979,0.0097849546000361,-0.0123844314366579
1772807768066363100,8.678363037109374,0.041518589824438,-0.0136649527370929,-0.0532352032390423,-0.0215699505060911,0.0038944678381085,-0.0271628107875585
1772807768086412300,8.698412353515625,0.0581254412323236,-0.0021273674175143,-0.0424672140524722,-0.0014373720623552,0.0029155705124139,-0.01293789409101
1772807768106461200,8.718461181640626,0.0366968687564134,0.0285528713978827,-0.03509589983318,0.0254068560898304,-0.0015699384966865,-0.0085848420858383
1772807768126509300,8.73850927734375,0.0725613783419132,0.0093362758830189,-0.0457908055172301,0.015073649585247,-0.0145941833034157,-0.0175831988453865
1772807768146558200,8.75855810546875,0.1254231999576091,-0.0046000411413609,0.0011587415810674,-0.0037121900822967,-0.0022186881396919,-0.0240148846060037
1772807768166607000,8.778607177734376,0.1191436812967061,0.0429217346206307,-0.0099505901227705,0.0020252696704119,0.0152396140620112,-0.0112981861457228
1772807768186655200,8.7986552734375,0.1329407359808683,0.0372781757757067,0.0121618729640729,0.00268544559367,0.0120910918340086,-0.0062251072376966
1772807768206704000,8.8187041015625,0.160714878091216,0.0368970675036311,0.0455267660198733,-0.0049328482709825,-0.0112092262133955,-0.0175913758575916
1772807768226753300,8.838753173828126,0.1321323422074317,0.0404610435955226,0.032269626898691,-0.0102278431877493,-0.0340112634003162,-0.0173315666615962
1772807768246802200,8.85880224609375,0.0888286225318908,0.0731410779260098,0.0122571317657828,-0.0114848650991916,-0.0323284864425659,-0.0204580463469028
1772807768266850300,8.878850341796875,0.0314285729646682,0.044431846922636,0.0482445736112073,-0.0162376947700977,-0.0108201093971729,-0.0261386856436729
1772807768286899200,8.898899169921876,-0.0155786774039268,0.0028629882156848,0.065032407609187,-0.0227930918335914,0.0055248816497623,-0.0164496544748544
1772807768306948000,8.918947998046875,-0.0610369447648525,-0.0046370121508836,0.0687612736728973,-0.0055274339392781,0.0032752288971096,0.0020189278293401
1772807768326997200,8.938997314453125,-0.0270019886940717,0.0382296312816441,0.0207534496933221,0.0386180058121681,0.0111069967970252,0.0118212029337883
1772807768347045000,8.959045166015626,0.0645487522780895,0.0100207510158419,0.0018001812897622,0.0531163737177848,0.0171730667352676,0.0226515717804431
1772807768367094300,8.97909423828125,0.2204986079245805,-0.0037526305317878,-0.0046127727587707,0.0268983729183673,0.028227450326085,0.0156002966687083
1772807768387143200,8.99914306640625,0.2226864733576774,-0.0182752230115234,0.0055569034747779,-0.0225534569472074,0.0119974017143249,0.0072731943801045
1772807768407191300,9.01919140625,0.1176104803800582,0.0281385915085673,0.0250350542689673,-0.0329183600842952,-0.0099465940147638,0.0068695517256855
1772807768427240200,9.039240234375,0.054333063212037,0.0775688312403857,-0.0055796267632395,-0.0065982420928776,0.0123808700591325,0.009949879720807
1772807768447289300,9.059289306640624,-0.0024111527949571,0.080100980066508,0.0463432152356021,0.0229130163788795,0.0400608032941818,0.0175363458693027
1772807768467338000,9.079337890625,0.0047469022661447,0.0242957984752953,0.0770826551586389,0.0187797397375106,0.034682523459196,0.0298954844474792
1772807768487386000,9.09938623046875,0.030158991420269,-0.0186157070122659,0.0396778390622697,0.009837414138019,0.0101842945441603,0.0363418497145175
1772807768507435000,9.11943505859375,0.0805079534322023,0.0013411854758858,0.0189467473312281,0.0247401129454374,0.0010592874605208,0.0228702742606401
1772807768527484200,9.139484130859374,0.1071200660258531,-0.0140894617594778,-0.0210050498342141,0.0211394075304269,-0.0039065959863364,0.0161002650856971
1772807768547532000,9.159531982421877,0.1692407143741846,0.0202780872665345,-0.0639891456339508,-0.003246366744861,0.0048620975576341,0.0102041875943541
1772807768567581200,9.179581298828126,0.0933797099649906,0.035544045459479,-0.0757177965462207,-0.0047619817778468,-0.0136248068884015,0.0143519565463066
1772807768587630300,9.19963037109375,0.0493669652372598,0.0552737050630152,-0.0961954249728471,0.0090996474027633,-0.0140005648136138,0.0017367030959576
1772807768607679200,9.21967919921875,0.1056166757255792,0.0408373295620083,-0.0674741930044256,0.0080583868548274,0.0179714523255825,-0.007843904197216
1772807768627727400,9.239727294921876,0.1077788221955299,0.0309372823163866,-0.0542508648212999,-0.0013695808593183,0.0193292442709207,0.008127617649734
1772807768647776000,9.25977587890625,0.0673363371700048,0.0269910289086401,-0.0526218205810524,-0.0175049100071191,-0.012005703523755,0.0010151935275644
1772807768667825200,9.2798251953125,0.0873334155380725,0.0295442205227911,-0.004506481106393,-0.0148579319939017,-0.0082963658496737,-0.0141363274306058
1772807768687873000,9.299873046875,0.0544739329874515,0.0332739085704088,-0.0077921151809394,0.0034884226042777,0.0031548184342682,-0.0050526685081422
1772807768707922200,9.319922119140625,0.0567190815657377,0.0496903519727289,-0.0250930132675915,0.0061934143304824,-0.0012858763802796,-0.0018057669512927
1772807768727971000,9.33997119140625,0.0879074160337448,0.0394052509322762,0.0113758554192259,0.003785562235862,-0.0148893194273114,-0.0057776155881583
1772807768748020200,9.360020263671874,0.1003992333382368,0.0253464765720069,0.0228537647071294,-0.0055833267979323,-0.0266172382980585,-0.0079123470932245
1772807768768068000,9.380068115234376,0.1275818392962217,0.0323227453254163,0.0048119668589904,-0.0104227745905518,-0.014887586236,0.0044274684041738
1772807768788117200,9.4001171875,0.1181932487040758,0.0219474817834794,0.0298157674731686,-0.0136190522462129,0.0090856831520795,0.0199116766452789
1772807768808166400,9.42016650390625,0.0837374368727207,0.0449114471331238,0.0585677781723439,-0.0014629603829234,0.0028840117156505,0.0190695971250534
1772807768828215300,9.44021533203125,0.0522357986718416,0.0575752600036561,0.0570933582382276,0.0032846997492015,-0.0296417083591222,0.023986279964447
1772807768848263400,9.460263427734375,0.0916980404883623,0.0601480331011116,0.0455980411577969,-0.0003839449491351,-0.0335728526115417,0.0326033979654312
1772807768868312300,9.480312255859374,0.058704702425003,0.0392775328993797,-0.0173439883097074,-0.0227901227772235,-0.0014872271567583,0.0277494527399539
1772807768888361500,9.500361572265623,-0.065864511051774,0.0591511310182511,0.0070012387978844,-0.0164108965545892,0.0444548092782497,0.002264610491693
1772807768908409300,9.520409423828124,-0.0323743293821811,-0.0127301561050117,0.0412889092544093,0.0104164388030767,0.0658045038580894,-0.0004906393587589
1772807768928458500,9.54045849609375,-0.012708090403676,-0.0446146561436355,-0.0070008186727762,0.0249946527183055,0.0367751009762287,0.0237154699862003
1772807768948507600,9.560507568359377,0.0794347712427377,-0.0297998027190566,0.0359147054027765,0.0337743908166885,0.0147910052910447,0.025081418454647
1772807768968556300,9.580556396484376,0.1286135204315185,-0.0089097210340201,-0.0211667614682577,0.0423786230385303,0.0212433375418186,0.0306484997272491
1772807768988604700,9.600604736328124,0.2264846965968608,0.0147420804493129,-0.0809424906582571,0.0324854627251625,0.0374715477228164,0.0209998078644275
1772807769008653300,9.6206533203125,0.2288625316441059,-0.0126205582506954,-0.0511511087076738,-0.0228278040885925,0.0240743048489093,-0.0096692573279142
1772807769028702500,9.640702392578126,0.1707967116445302,-0.0080671327300369,-0.0186448052425868,-0.0564203225076198,-0.0001744452747516,-0.0369257144629955
1772807769048750300,9.660750244140624,0.0665162529587745,0.0506062977738678,-0.0152990384786389,-0.0339000038802623,0.0013699762057512,-0.0317990146577358
1772807769068799500,9.680799560546877,0.1029559320837259,0.0688284754239022,0.039958299971465,-0.0059844814240932,0.0360115766525268,-0.0132695389911532
1772807769088848400,9.700848388671876,-0.0281920752614736,-0.004875935473293,0.0593170256370678,-0.0328911691904068,0.0181062407791614,0.0072360835038125
1772807769108897500,9.7208974609375,-0.0244137257665395,0.032839024284482,0.0561747638222761,-0.004683032631874,0.086128294467926,0.0057575665414333
1772807769128945400,9.7409453125,0.0196761758506298,0.2195800317749381,0.147951331173256,0.1805193275213241,0.1349374949932098,-0.059244729578495
1772807769148994600,9.76099462890625,-0.1926987468510866,-0.1089976964659988,0.0963899976968765,0.2470370382070541,-0.0125674651935696,-0.0418203361332416
1772807769169043500,9.78104345703125,0.0896592281371355,0.0937950127676129,0.0802195649448782,0.2282999753952026,-0.041731659322977,-0.0207809284329414
1772807769189091300,9.80109130859375,0.1117471413046121,0.0742778268709778,0.0474757446631789,0.0963212251663208,-0.0367990992963314,0.006327053066343
1772807769209140500,9.821140380859376,0.148016140037775,0.022541356023401,-0.0323107260940596,-0.0307771507650613,0.0390069968998432,0.0569860637187957
1772807769229189400,9.841189453125,0.0679746350735426,0.0436971029072999,-0.0329971009230241,-0.0899330228567123,0.038011185824871,0.0819621831178665
1772807769249238500,9.861238525390624,-0.0550029252976179,-0.0094689623519778,-0.0462519019566476,-0.0840629860758781,-0.0531691089272499,0.1002499908208847
1772807769269286400,9.881286376953126,0.0554325488865375,0.019444412921369,-0.0371863327737897,-0.0912166014313697,-0.0992035269737243,0.0933865383267402
1772807769289335600,9.90133544921875,0.2348614797979593,-0.000468932686001,-0.045184619785007,-0.1104073375463485,-0.0940332636237144,0.0580405332148075
1772807769309384400,9.921384521484375,0.2920183682590723,0.0100163671016693,-0.1408162185963243,-0.0686980783939361,-0.0666693449020385,0.0188967455178499
