time,seconds_elapsed,accel_z,accel_y,accel_x,gyro_x,gyro_y,gyro_z
1.7726372627650043e+18,0.26700439453125,-0.0311617851257324,0.0829381942749023,0.0742673873901367,-0.0229031667113304,-0.0050600017420947,0.0095873717218637
1.7726372627849992e+18,0.286999267578125,-0.0151500701904296,0.102055549621582,0.0508074760437011,-0.0221042186021804,-0.0050600017420947,0.0034621064551174
1.7726372628049943e+18,0.306994384765625,-0.0179247856140136,0.1016693115234375,0.0568146705627441,-0.0175768472254276,-0.0050600017420947,-0.0034621064551174
1.7726372628249894e+18,0.326989501953125,-0.0254397392272949,0.0824184417724609,0.0383219718933105,-0.0098536871373653,-0.006657897029072,-0.0018642111681401
1.7726372628449846e+18,0.346984619140625,0.0002399682998657,0.0919218063354492,0.0341057777404785,-0.0061252652667462,-0.0047936858609318,-0.0005326317623257
1.7726372628649797e+18,0.366979736328125,-0.0031769275665283,0.0823898315429687,0.0439367294311523,-0.0106526352465152,-0.0018642111681401,0.0031957905739545
1.7726372628849746e+18,0.386974609375,-0.0211473703384399,0.0679817199707031,0.0628643035888671,-0.0119842141866683,-0.0002663158811628,0.0071905287913978
1.7726372629049697e+18,0.4069697265625,-0.0435472726821899,0.0870027542114257,0.0874629020690918,-0.013315794058144,-0.002130527049303,0.0042610540986061
1.7726372629249646e+18,0.426964599609375,-0.0137269496917724,0.0822372436523437,0.0589346885681152,-0.0114515833556652,-0.0023968429304659,0.0037284223362803
1.7726372629449587e+18,0.446958740234375,-0.0375909805297851,0.0681638717651367,0.0584053993225097,-0.0117178987711668,-0.006657897029072,0.0023968429304659
1.772637262964953e+18,0.466953125,-0.0514100790023803,0.0590763092041015,0.0624279975891113,-0.0122505305334925,-0.0095873717218637,0.0034621064551174
1.7726372629849475e+18,0.486947509765625,-0.0171759128570556,0.0831012725830078,0.0672597885131836,-0.0130494777113199,-0.0071905287913978,0.0047936858609318
1.7726372630049418e+18,0.50694189453125,-0.0315704345703125,0.097050666809082,0.0776152610778808,-0.0085221081972122,-0.0039947382174432,0.0018642111681401
1.7726372630249362e+18,0.526936279296875,-0.0362356901168823,0.0775270462036132,0.049565315246582,-0.0031957905739545,-0.0047936858609318,-0.0023968429304659
1.7726372630449306e+18,0.5469306640625,-0.036271333694458,0.0677118301391601,0.0404000282287597,-0.0039947382174432,-0.0013315794058144,-0.0042610540986061
1.7726372630649247e+18,0.566924560546875,-0.0265630483627319,0.0915641784667968,0.0352306365966796,-0.0039947382174432,0.0002663158811628,0.0002663158811628
1.772637263084919e+18,0.5869189453125,-0.0214126110076904,0.1007719039916992,0.0611615180969238,-0.0007989476434886,-0.0015978952869772,0.0047936858609318
1.7726372631049134e+18,0.606913330078125,-0.0400489568710327,0.0809154510498046,0.0386085510253906,0.0007989476434886,0.0029294746927917,0.0037284223362803
1.7726372631249078e+18,0.62690771484375,-0.0208178758621215,0.0756387710571289,0.0347275733947753,0.0015978952869772,0.0026631588116288,0.002130527049303
1.7726372631449021e+18,0.646902099609375,-0.0350638628005981,0.0802288055419921,0.0447092056274414,-0.0007989476434886,0.0,0.0013315794058144
1.7726372631648963e+18,0.666896240234375,-0.0384836196899414,0.0803632736206054,0.0879173278808593,-0.0018642111681401,0.0005326317623257,0.0045273699797689
1.7726372631848906e+18,0.686890625,-0.0555553436279296,0.0802335739135742,0.0695042610168457,-0.002130527049303,0.0018642111681401,0.0079894764348864
1.7726372632248794e+18,0.72687939453125,-0.0331913232803344,0.0926828384399414,0.0642414093017578,0.0018642111681401,0.0042610540986061,0.0047936858609318
1.7726372632448737e+18,0.746873779296875,-0.0215740203857421,0.0773906707763671,0.0568408966064453,0.0023968429304659,0.0058589493855834,0.0015978952869772
1.772637263264868e+18,0.7668681640625,-0.0152230262756347,0.0578880310058593,0.0482616424560546,-0.0055926335044205,0.0045273699797689,0.0
1.7726372633048566e+18,0.806856689453125,-0.011066198348999,0.044219970703125,0.0958905220031738,-0.0103863198310136,0.0034621064551174,0.0039947382174432
1.7726372633448453e+18,0.84684521484375,-0.0336725711822509,0.1021394729614257,0.114593505859375,-0.0055926335044205,0.0077231605537235,0.013315794058144
1.7726372633648397e+18,0.866839599609375,-0.0475479364395141,0.0641279220581054,0.0805974006652832,-0.0074568446725606,0.0082557927817106,0.0117178987711668
1.772637263384834e+18,0.886833984375,-0.0508338212966918,0.0553617477416992,0.0363502502441406,-0.0045273699797689,0.0085221081972122,0.0047936858609318
1.7726372634048284e+18,0.906828369140625,-0.0202040672302246,0.0951690673828125,0.0532512664794921,-0.0101200034841895,0.0050600017420947,-0.0023968429304659
1.7726372634248223e+18,0.926822265625,0.0007349252700805,0.1297931671142578,0.0564746856689453,0.0026631588116288,0.0090547399595379,-0.0018642111681401
1.772637263444816e+18,0.94681591796875,-0.0213545560836792,0.1303377151489257,0.0559220314025878,0.0050600017420947,0.0146473739296197,-0.0045273699797689
1.7726372634648092e+18,0.966809326171875,0.0042297840118408,0.1019363403320312,0.0179519653320312,0.0026631588116288,0.0210389550775289,-0.0093210563063621
1.7726372634848028e+18,0.986802734375,-0.0126073360443115,0.1118669509887695,0.0172743797302246,0.0005326317623257,0.0213052704930305,-0.0159789528697729
1.7726372635047964e+18,1.00679638671875,0.0089958906173706,0.1171808242797851,0.0264801979064941,0.0002663158811628,0.0197073742747306,-0.0117178987711668
1.7726372635247898e+18,1.026789794921875,-0.0140566825866699,0.1127548217773437,0.0445904731750488,-0.002130527049303,0.0162452682852745,-0.0053263176232576
1.7726372635447834e+18,1.046783447265625,0.0091496706008911,0.1031093597412109,0.0445246696472168,-0.0010652635246515,0.0157126374542713,-0.0034621064551174
1.772637263564777e+18,1.06677685546875,-0.0059728622436523,0.1024684906005859,0.0694789886474609,-0.0045273699797689,0.0167779009789228,-0.0026631588116288
1.772637263604764e+18,1.106763916015625,0.0173403024673461,0.0812206268310546,0.0624213218688964,-0.0079894764348864,0.0117178987711668,-0.0037284223362803
1.7726372636247575e+18,1.126757568359375,-0.0149652957916259,0.0901870727539062,0.0435318946838378,-0.0018642111681401,0.0063915811479091,-0.0034621064551174
1.7726372636447508e+18,1.146750732421875,0.0012159347534179,0.0611953735351562,0.0097231864929199,0.0061252652667462,0.0034621064551174,-0.0007989476434886
1.7726372636647444e+18,1.166744384765625,0.0081870555877685,0.0995712280273437,0.0233740806579589,0.0055926335044205,0.0023968429304659,0.0055926335044205
1.772637263684738e+18,1.186738037109375,-0.0125367641448974,0.1091594696044921,0.0523309707641601,0.025300009176135,0.0042610540986061,0.0045273699797689
1.7726372637047316e+18,1.206731689453125,-0.0379908084869384,0.1091537475585937,0.0807180404663086,0.0242347456514835,0.0063915811479091,0.0007989476434886
1.772637263724725e+18,1.22672509765625,-0.0071555376052856,0.1040658950805664,0.0566506385803222,0.0218379013240337,0.0082557927817106,-0.0026631588116288
1.7726372637447186e+18,1.246718505859375,-0.0004439353942871,0.0797815322875976,0.0373916625976562,0.0186421126127243,0.0063915811479091,-0.0050600017420947
1.7726372637647122e+18,1.266712158203125,-0.0069605112075805,0.0699424743652343,0.0518116950988769,0.0141147412359714,0.0093210563063621,-0.0034621064551174
1.7726372637847055e+18,1.28670556640625,0.0099661350250244,0.093602180480957,0.0470166206359863,0.0125168468803167,0.0069242129102349,-0.0029294746927917
1.7726372638046991e+18,1.30669921875,-0.0300577878952026,0.1029949188232421,0.0565295219421386,0.0175768472254276,0.0034621064551174,-0.0010652635246515
1.7726372638246927e+18,1.326692626953125,-0.0118429660797119,0.0787324905395507,0.0376930236816406,0.0178431645035743,0.002130527049303,-0.0007989476434886
1.7726372638446863e+18,1.346686279296875,0.0203484296798706,0.0735712051391601,0.0524168014526367,0.0114515833556652,0.0026631588116288,0.0
1.7726372638646797e+18,1.3666796875,-0.0102018117904663,0.1259841918945312,0.0572900772094726,0.0141147412359714,0.002130527049303,-0.0002663158811628
1.772637263904667e+18,1.4066669921875,-0.0034815073013305,0.0958576202392578,0.0303730964660644,0.0127831622958183,0.0053263176232576,-0.0010652635246515
1.77263726392466e+18,1.426659912109375,-0.014062762260437,0.0761175155639648,0.0311818122863769,0.0069242129102349,0.0026631588116288,0.0015978952869772
1.7726372639446528e+18,1.44665283203125,0.0042994022369384,0.0852727890014648,0.0365605354309082,0.0077231605537235,0.0,0.002130527049303
1.7726372639646456e+18,1.466645751953125,-0.0120065212249755,0.0800542831420898,0.0608191490173339,0.0093210563063621,-0.002130527049303,0.0007989476434886
1.7726372639846382e+18,1.48663818359375,-0.0516830682754516,0.0793485641479492,0.0617766380310058,0.0029294746927917,-0.0093210563063621,0.0077231605537235
1.772637264004631e+18,1.506631103515625,-0.0338109731674194,0.0830144882202148,0.0401644706726074,0.0002663158811628,-0.0101200034841895,0.0061252652667462
1.7726372640246239e+18,1.526623779296875,0.0028618574142456,0.0961494445800781,0.0324387550354003,-0.0007989476434886,-0.0098536871373653,0.0047936858609318
1.7726372640446167e+18,1.54661669921875,-0.0089372396469116,0.1048192977905273,0.0431389808654785,0.0058589493855834,-0.0098536871373653,0.0031957905739545
1.7726372640646095e+18,1.566609619140625,-0.0062314271926879,0.1045188903808593,0.0287985801696777,0.0039947382174432,-0.0071905287913978,0.006657897029072
1.7726372640846024e+18,1.586602294921875,-0.0263512134552001,0.1000680923461914,0.0033831596374511,0.0047936858609318,-0.0050600017420947,0.0109189506620168
1.7726372641245878e+18,1.626587890625,-0.0041769742965698,0.1009654998779296,0.0444111824035644,0.0082557927817106,-0.0023968429304659,0.011185267008841
1.7726372641445806e+18,1.64658056640625,-0.0387719869613647,0.1247501373291015,0.0678133964538574,0.0114515833556652,-0.0026631588116288,0.0069242129102349
1.7726372641645734e+18,1.666573486328125,-0.0299659967422485,0.0813856124877929,0.0632777214050293,0.0106526352465152,-0.0026631588116288,0.0005326317623257
1.7726372641845663e+18,1.686566162109375,-0.035956859588623,0.0569028854370117,0.0639443397521972,0.0042610540986061,-0.0023968429304659,-0.0047936858609318
1.772637264204559e+18,1.70655908203125,-0.0369391441345214,0.065887451171875,0.0647926330566406,0.0010652635246515,-0.0087884236127138,-0.0039947382174432
1.772637264224552e+18,1.726552001953125,-0.0567351579666137,0.0798606872558593,0.0653653144836425,0.002130527049303,-0.0074568446725606,0.0013315794058144
1.7726372642445448e+18,1.746544677734375,-0.0480279922485351,0.074960708618164,0.0797209739685058,0.0013315794058144,-0.0058589493855834,0.0023968429304659
1.7726372642645373e+18,1.766537353515625,-0.062221884727478,0.084604263305664,0.0509042739868164,0.0039947382174432,-0.0055926335044205,0.0047936858609318
1.772637264304523e+18,1.80652294921875,-0.0336298942565918,0.0756454467773437,0.0167884826660156,0.0037284223362803,-0.0037284223362803,0.0055926335044205
1.7726372643245158e+18,1.826515869140625,-0.0190739631652832,0.075840950012207,0.0643844604492187,0.0047936858609318,0.0018642111681401,0.0031957905739545
1.7726372643445087e+18,1.8465087890625,-0.0190916061401367,0.0806922912597656,0.0738511085510253,0.0085221081972122,0.0061252652667462,-0.0007989476434886
1.7726372643645015e+18,1.86650146484375,-0.0577216148376464,0.08984375,0.0697722434997558,0.0039947382174432,0.0090547399595379,-0.0015978952869772
1.7726372644044872e+18,1.906487060546875,-0.055924654006958,0.070134162902832,0.0520601272583007,0.0023968429304659,0.0023968429304659,-0.0045273699797689
1.77263726442448e+18,1.92647998046875,-0.0402092933654785,0.0894374847412109,0.0617241859436035,-0.0005326317623257,0.0010652635246515,-0.0018642111681401
1.772637264444473e+18,1.94647314453125,-0.0253739356994628,0.0705137252807617,0.0422344207763671,0.0010652635246515,0.0018642111681401,-0.0007989476434886
1.7726372644644662e+18,1.966466064453125,-0.0441255569458007,0.0709266662597656,0.0511627197265625,0.0050600017420947,0.0058589493855834,0.0034621064551174
1.7726372645044524e+18,2.006452392578125,-0.0045008659362792,0.0854215621948242,0.0416841506958007,-0.0039947382174432,0.0071905287913978,0.0013315794058144
1.7726372645444383e+18,2.046438232421875,-0.0323970317840576,0.0900955200195312,0.0612750053405761,-0.0034621064551174,0.0079894764348864,-0.0005326317623257
1.7726372645644314e+18,2.066431396484375,-0.0314188003540039,0.0618505477905273,0.0079026222229003,-0.0005326317623257,0.0039947382174432,-0.0023968429304659
1.7726372645844244e+18,2.086424560546875,-0.02043879032135,0.0578880310058593,0.0067319869995117,-0.0013315794058144,0.0018642111681401,-0.0039947382174432
1.7726372646244106e+18,2.12641064453125,-0.0243176221847534,0.0865001678466796,0.0928430557250976,0.0037284223362803,0.0050600017420947,0.0018642111681401
1.7726372646444037e+18,2.14640380859375,-0.0063061714172363,0.0855054855346679,0.0560483932495117,-0.0005326317623257,0.0082557927817106,0.0
1.7726372646643968e+18,2.166396728515625,-0.0119585990905761,0.0698165893554687,0.006143569946289,-0.0013315794058144,0.0079894764348864,-0.0050600017420947
1.772637264704383e+18,2.206383056640625,-0.0074884891510009,0.0822687149047851,0.0287418365478515,-0.0026631588116288,0.0101200034841895,-0.0082557927817106
1.772637264724376e+18,2.2263759765625,-0.0123409032821655,0.0766973495483398,0.0259585380554199,0.0069242129102349,0.0109189506620168,0.0023968429304659
1.772637264744369e+18,2.246368896484375,-0.0270102024078369,0.056863784790039,0.0983753204345703,0.0130494777113199,0.0117178987711668,0.0074568446725606
1.772637264764362e+18,2.266362060546875,-0.0281218290328979,0.0892810821533203,0.1145153045654296,0.0103863198310136,0.0098536871373653,0.0114515833556652
1.772637264784355e+18,2.28635498046875,-0.02084481716156,0.1063642501831054,0.1039624214172363,0.0031957905739545,0.0047936858609318,0.0069242129102349
1.7726372648043482e+18,2.30634814453125,-0.0325925350189209,0.0560293197631835,0.0695157051086425,0.0013315794058144,0.0018642111681401,0.0079894764348864
1.7726372648243412e+18,2.32634130859375,-0.0250823497772216,0.0391159057617187,0.0448770523071289,0.0,-0.0031957905739545,0.0074568446725606
1.7726372648443343e+18,2.346334228515625,0.0293902158737182,0.0605010986328125,0.0681071281433105,0.0053263176232576,-0.002130527049303,0.0109189506620168
1.7726372648643274e+18,2.366327392578125,0.0024265050888061,0.0774784088134765,0.0615959167480468,0.0119842141866683,-0.0026631588116288,0.019441058859229
1.7726372648843205e+18,2.386320556640625,-0.0151909589767456,0.0803346633911132,0.07806396484375,0.0149136893451213,0.0039947382174432,0.022370534017682
1.7726372649243067e+18,2.426306640625,-0.0119212865829467,0.090397834777832,0.0507497787475585,0.0162452682852745,0.0074568446725606,0.023169482126832
1.7726372649443e+18,2.446300048828125,-0.0344389677047729,0.0743360519409179,0.0673327445983886,0.0205063223838806,0.0119842141866683,0.022370534017682
1.772637264964293e+18,2.466293212890625,-0.0232142210006713,0.0919933319091796,0.0548863410949707,0.0284957997500896,0.0135821104049682,0.0162452682852745
1.7726372649842865e+18,2.486286376953125,-0.0257233381271362,0.0956687927246093,0.0610570907592773,0.0242347456514835,0.0095873717218637,0.0146473739296197
1.7726372650042798e+18,2.50627978515625,-0.0226935148239135,0.1184215545654296,0.077155590057373,0.0178431645035743,0.0026631588116288,0.0181094799190759
1.7726372650242732e+18,2.526273193359375,-0.0199438333511352,0.0648813247680664,0.0781540870666503,0.0197073742747306,-0.0013315794058144,0.0183757953345775
1.7726372650442665e+18,2.5462666015625,-0.0174286365509033,0.0261240005493164,0.0641274452209472,0.0210389550775289,0.0023968429304659,0.0127831622958183
1.7726372650642596e+18,2.566259521484375,-0.0143580436706542,0.045058250427246,0.0688929557800293,0.020240006968379,0.0031957905739545,0.0109189506620168
1.772637265084253e+18,2.5862529296875,-0.0539672374725341,0.0779323577880859,0.1127285957336425,0.0154463211074471,0.0013315794058144,0.0079894764348864
1.7726372651042463e+18,2.606246337890625,-0.0415555238723754,0.0770330429077148,0.1425957679748535,0.0127831622958183,0.0045273699797689,0.0095873717218637
1.7726372651242396e+18,2.626239501953125,-0.0530705451965332,0.0714330673217773,0.0669045448303222,0.0149136893451213,0.0053263176232576,0.0053263176232576
1.772637265144233e+18,2.64623291015625,-0.0301992893218994,0.0567865371704101,0.0719099044799804,0.0114515833556652,0.0029294746927917,0.0018642111681401
1.772637265164226e+18,2.66622607421875,-0.0313019752502441,0.0804891586303711,0.1247839927673339,0.0093210563063621,-0.0013315794058144,0.0002663158811628
1.7726372651842194e+18,2.686219482421875,-0.0324872732162475,0.0945940017700195,0.0722608566284179,0.011185267008841,0.0,0.0045273699797689
1.7726372652042127e+18,2.706212646484375,-0.0056753158569335,0.0945634841918945,0.0192704200744628,0.0130494777113199,0.0026631588116288,0.006657897029072
1.772637265224206e+18,2.7262060546875,-0.0118906497955322,0.1233205795288086,0.0188841819763183,0.0165115855634212,0.0090547399595379,0.0045273699797689
1.7726372652441994e+18,2.746199462890625,-0.0124472379684448,0.1424160003662109,0.0284428596496582,0.017310531809926,0.0197073742747306,-0.0013315794058144
1.7726372652641928e+18,2.76619287109375,0.0118530988693237,0.1235742568969726,0.0087900161743164,0.0191747434437274,0.0229031667113304,-0.0018642111681401
1.7726372652841859e+18,2.786185791015625,0.0072468519210815,0.1098241806030273,-0.0354061126708984,0.0229031667113304,0.0287621151655912,-0.0029294746927917
1.7726372653041792e+18,2.80617919921875,-0.0167676210403442,0.1297512054443359,-0.0128464698791503,0.0266315881162881,0.0340884327888488,-0.006657897029072
1.772637265344166e+18,2.846165771484375,-0.034888744354248,0.0869245529174804,0.0723814964294433,0.0215715859085321,0.0239684283733367,-0.0058589493855834
1.7726372653641592e+18,2.8661591796875,-0.0204790830612182,0.0959405899047851,0.0735683441162109,0.0143810575827956,0.020240006968379,-0.0031957905739545
1.7726372653841523e+18,2.88615234375,-0.0207105875015258,0.085606575012207,0.046116828918457,0.0085221081972122,0.019441058859229,-0.0058589493855834
1.7726372654241385e+18,2.926138427734375,-0.0281007289886474,0.0888166427612304,0.0483012199401855,0.0047936858609318,0.0109189506620168,-0.0082557927817106
1.7726372654441308e+18,2.946130859375,-0.0044465065002441,0.0979719161987304,0.0394096374511718,0.0013315794058144,0.0018642111681401,-0.0087884236127138
1.772637265464123e+18,2.966122802734375,0.0086815357208251,0.1123523712158203,0.0390758514404296,-0.002130527049303,-0.0018642111681401,0.0026631588116288
1.7726372654841152e+18,2.986115234375,-0.0024282932281494,0.131439208984375,0.0250449180603027,-0.0061252652667462,-0.0042610540986061,0.0077231605537235
1.7726372655041075e+18,3.006107421875,-0.0331498384475708,0.0881843566894531,0.0008225440979003,0.0,-0.0023968429304659,0.0079894764348864
1.772637265544092e+18,3.046091796875,-0.0207281112670898,0.1127853393554687,0.0422682762145996,0.011185267008841,0.0055926335044205,0.0050600017420947
1.7726372655640842e+18,3.066084228515625,-0.0341421365737915,0.1033363342285156,0.0901885032653808,0.0079894764348864,0.0114515833556652,0.0023968429304659
1.7726372655840763e+18,3.086076171875,-0.0324540138244628,0.079472541809082,0.061718463897705,0.0106526352465152,0.0063915811479091,-0.0029294746927917
1.772637265624061e+18,3.12606103515625,-0.0444557666778564,0.0714979171752929,0.0640645027160644,0.0085221081972122,-0.0005326317623257,-0.0015978952869772
1.7726372656640453e+18,3.16604541015625,-0.0431464910507202,0.0629596710205078,0.0816812515258789,0.0079894764348864,-0.006657897029072,-0.0007989476434886
1.7726372656840376e+18,3.18603759765625,-0.034175157546997,0.0821504592895507,0.0522851943969726,0.0005326317623257,-0.0042610540986061,-0.0034621064551174
1.7726372657040297e+18,3.20602978515625,-0.0569539070129394,0.0778770446777343,0.0610818862915039,-0.0055926335044205,0.0,0.0002663158811628
1.772637265724022e+18,3.22602197265625,-0.0469609498977661,0.0883932113647461,0.0834527015686035,-0.0071905287913978,0.0047936858609318,0.0010652635246515
1.7726372657440143e+18,3.246014404296875,-0.0272119045257568,0.1132144927978515,0.0582375526428222,-0.0039947382174432,0.0047936858609318,-0.0103863198310136
1.7726372657640064e+18,3.26600634765625,-0.0213485956192016,0.1038856506347656,0.0101470947265625,-0.0013315794058144,0.0002663158811628,-0.002130527049303
1.7726372657839987e+18,3.285998779296875,-0.0383799076080322,0.1138582229614257,0.029003620147705,0.0013315794058144,0.002130527049303,-0.0005326317623257
1.7726372658039908e+18,3.30599072265625,-0.0130586624145507,0.100163459777832,0.0378656387329101,0.002130527049303,0.0095873717218637,-0.0058589493855834
1.772637265823983e+18,3.325983154296875,0.0121444463729858,0.1056108474731445,0.0369982719421386,0.0047936858609318,0.0127831622958183,-0.0109189506620168
1.7726372658439754e+18,3.345975341796875,-0.0243096351623535,0.1014490127563476,0.0267601013183593,0.0015978952869772,0.0154463211074471,-0.0095873717218637
1.7726372658639675e+18,3.365967529296875,0.006582498550415,0.101785659790039,0.0219120979309082,-0.0029294746927917,0.0061252652667462,-0.002130527049303
1.7726372658839598e+18,3.385959716796875,-0.023900032043457,0.1022577285766601,0.022287368774414,-0.0061252652667462,0.0050600017420947,-0.0026631588116288
1.7726372659039521e+18,3.4059521484375,-0.0157598257064819,0.098515510559082,0.0453519821166992,-0.0085221081972122,0.0055926335044205,-0.0050600017420947
1.7726372659239447e+18,3.42594482421875,0.0066901445388793,0.1141319274902343,0.0301628112792968,-0.0047936858609318,0.0050600017420947,-0.0058589493855834
1.7726372659639314e+18,3.465931396484375,-0.0297889709472656,0.0921363830566406,0.0521059036254882,-0.0087884236127138,0.0039947382174432,-0.0045273699797689
1.7726372659839247e+18,3.4859248046875,-0.0219275951385498,0.0924701690673828,0.0379037857055664,-0.0114515833556652,0.0023968429304659,-0.0007989476434886
1.772637266003918e+18,3.50591796875,-0.0375473499298095,0.1120557785034179,0.033240795135498,-0.0127831622958183,0.0029294746927917,-0.0018642111681401
1.7726372660439048e+18,3.54590478515625,-0.0298600196838378,0.0894956588745117,0.0566005706787109,-0.0197073742747306,0.0063915811479091,-0.0061252652667462
1.7726372660638984e+18,3.5658984375,-0.0501434803009033,0.0805501937866211,0.0707383155822753,-0.0159789528697729,0.0063915811479091,-0.0093210563063621
1.7726372660838917e+18,3.5858916015625,-0.0327188968658447,0.0716791152954101,0.0696139335632324,-0.0162452682852745,0.0061252652667462,-0.0034621064551174
1.772637266103885e+18,3.605885009765625,-0.0291152000427246,0.082066535949707,0.0594668388366699,-0.0162452682852745,0.0031957905739545,0.0005326317623257
1.7726372661438717e+18,3.645871826171875,-0.0121833086013793,0.1024980545043945,0.0206594467163085,-0.020240006968379,0.0007989476434886,0.0005326317623257
1.772637266163865e+18,3.665864990234375,-0.0187731981277465,0.1034374237060546,0.0388565063476562,-0.0247673764824867,-0.0053263176232576,-0.0010652635246515
1.7726372661838584e+18,3.6858583984375,-0.0149725675582885,0.0998239517211914,0.0232801437377929,-0.0239684283733367,-0.0047936858609318,-0.0005326317623257
1.7726372662038518e+18,3.705851806640625,-0.0119436979293823,0.0816659927368164,0.0317773818969726,-0.0197073742747306,-0.0034621064551174,-0.0023968429304659
1.7726372662438385e+18,3.74583837890625,-0.0307869911193847,0.1125526428222656,0.0435099601745605,-0.0221042186021804,-0.0018642111681401,-0.0029294746927917
1.7726372662638318e+18,3.765831787109375,-0.0285602807998657,0.1036548614501953,0.0332283973693847,-0.0207726396620273,-0.0029294746927917,0.0002663158811628
1.7726372662838252e+18,3.7858251953125,-0.0079627037048339,0.0799188613891601,0.0427603721618652,-0.0191747434437274,-0.0029294746927917,-0.0053263176232576
1.7726372663038185e+18,3.805818603515625,-0.0112258195877075,0.0661230087280273,0.0372896194458007,-0.0255663245916366,-0.0058589493855834,-0.0063915811479091
1.7726372663438052e+18,3.84580517578125,-0.0334151983261108,0.0867729187011718,0.0877151489257812,-0.0210389550775289,-0.0058589493855834,-0.0055926335044205
1.7726372663637985e+18,3.865798583984375,0.0003576278686523,0.0723085403442382,0.0639834403991699,-0.0154463211074471,-0.0007989476434886,-0.0077231605537235
1.7726372663837919e+18,3.8857919921875,0.0102202892303466,0.06719970703125,0.0263028144836425,-0.0149136893451213,-0.0034621064551174,-0.0037284223362803
1.772637266423779e+18,3.925779052734375,-0.0162121057510375,0.1064491271972656,0.0617575645446777,-0.0117178987711668,-0.0058589493855834,0.0005326317623257
1.7726372664637678e+18,3.965767822265625,-0.0069506168365478,0.0841836929321289,0.0346393585205078,-0.0109189506620168,-0.0034621064551174,-0.0034621064551174
1.7726372664837622e+18,3.98576220703125,-0.007100224494934,0.070596694946289,0.0331716537475585,-0.0042610540986061,-0.0023968429304659,-0.0045273699797689
1.7726372665037568e+18,4.0057568359375,-0.0122612714767456,0.0803613662719726,0.0758647918701171,-0.0007989476434886,0.0013315794058144,0.0013315794058144
1.7726372665437455e+18,4.04574560546875,-0.0135903358459472,0.0802688598632812,0.0613346099853515,-0.0005326317623257,0.0023968429304659,0.0034621064551174
1.77263726656374e+18,4.065739990234375,0.0058038234710693,0.0612707138061523,0.0467171669006347,0.0109189506620168,-0.0005326317623257,-0.0106526352465152
1.7726372665837343e+18,4.085734375,-0.0088229179382324,0.0951528549194336,0.0556106567382812,-0.0013315794058144,-0.0002663158811628,-0.0093210563063621
1.772637266623723e+18,4.125722900390625,-0.0042809247970581,0.0905752182006836,0.0407838821411132,-0.0005326317623257,-0.0023968429304659,-0.0082557927817106
1.772637266663712e+18,4.1657119140625,-0.0280311107635498,0.0870389938354492,0.0577073097229003,-0.0005326317623257,-0.0047936858609318,-0.0015978952869772
1.7726372666837064e+18,4.185706298828125,-0.0318900346755981,0.1168708801269531,0.0613422393798828,0.0039947382174432,0.0013315794058144,-0.0002663158811628
1.7726372667037007e+18,4.20570068359375,-0.0166523456573486,0.0937118530273437,0.0648932456970214,0.0007989476434886,0.0042610540986061,-0.0018642111681401
1.772637266723695e+18,4.225695068359375,-0.014980673789978,0.0706396102905273,0.0499114990234375,0.0037284223362803,0.0042610540986061,-0.0045273699797689
1.7726372667636838e+18,4.265683837890625,-0.0218652486801147,0.1004161834716796,0.0678496360778808,0.0007989476434886,0.0042610540986061,-0.0010652635246515
1.7726372667836782e+18,4.28567822265625,-0.0247797966003417,0.0768098831176757,0.0532917976379394,0.0018642111681401,0.0042610540986061,-0.0090547399595379
1.7726372668036726e+18,4.305672607421875,0.0013314485549926,0.0773839950561523,0.0383939743041992,-0.0047936858609318,0.0010652635246515,-0.0103863198310136
1.7726372668236672e+18,4.325667236328125,-0.010419487953186,0.0877141952514648,0.0328712463378906,-0.0047936858609318,0.0005326317623257,-0.0071905287913978
1.7726372668436616e+18,4.34566162109375,0.021165132522583,0.0886077880859375,0.0415015220642089,-0.0087884236127138,0.0018642111681401,-0.0071905287913978
1.772637266863656e+18,4.365656005859375,0.018648624420166,0.0897932052612304,0.0398807525634765,-0.0042610540986061,0.0074568446725606,-0.002130527049303
1.7726372668836503e+18,4.385650390625,0.0156106948852539,0.0909395217895507,0.0465846061706543,-0.0061252652667462,0.0087884236127138,-0.002130527049303
1.7726372669036447e+18,4.405644775390625,-0.0117949247360229,0.0916576385498046,0.0503821372985839,-0.006657897029072,0.011185267008841,-0.0045273699797689
1.7726372669236388e+18,4.425638671875,-0.0204429626464843,0.101480484008789,0.0549578666687011,-0.0079894764348864,0.0135821104049682,-0.0061252652667462
1.772637266963626e+18,4.4656259765625,0.0183963775634765,0.0878849029541015,0.048865795135498,-0.0101200034841895,0.0125168468803167,-0.0071905287913978
1.7726372669836196e+18,4.48561962890625,-0.0149257183074951,0.0644254684448242,0.0623798370361328,-0.0098536871373653,0.0069242129102349,-0.0103863198310136
1.7726372670236068e+18,4.525606689453125,-0.0092378854751586,0.0842475891113281,0.0464162826538085,-0.0069242129102349,0.006657897029072,-0.0106526352465152
1.7726372670436004e+18,4.545600341796875,-0.0329283475875854,0.0941591262817382,0.041086196899414,-0.0074568446725606,0.0007989476434886,-0.0058589493855834
1.772637267063594e+18,4.565593994140625,-0.018132209777832,0.0850000381469726,0.0499935150146484,-0.0071905287913978,-0.0031957905739545,-0.0007989476434886
1.7726372670835876e+18,4.585587646484375,-0.0225517749786376,0.0614843368530273,0.0456829071044921,0.0007989476434886,-0.0023968429304659,-0.0050600017420947
1.7726372671035812e+18,4.605581298828125,-0.0233943462371826,0.0522899627685546,0.0495600700378418,-0.0034621064551174,-0.0039947382174432,-0.0042610540986061
1.7726372671235748e+18,4.62557470703125,-0.0386958122253418,0.0958976745605468,0.0436477661132812,-0.0050600017420947,-0.0079894764348864,-0.0015978952869772
1.7726372671635617e+18,4.665561767578125,-0.0116820335388183,0.0590372085571289,0.064488410949707,-0.0069242129102349,-0.0101200034841895,-0.0018642111681401
1.7726372671835553e+18,4.685555419921875,-0.0557454824447631,0.0597267150878906,0.0486211776733398,-0.0063915811479091,-0.0071905287913978,-0.0029294746927917
1.772637267203549e+18,4.705548828125,-0.0414094924926757,0.0453224182128906,0.0630440711975097,-0.0023968429304659,-0.0005326317623257,-0.0039947382174432
1.7726372672235425e+18,4.72554248046875,-0.0220282077789306,0.0360164642333984,0.0625886917114257,0.0023968429304659,-0.0047936858609318,-0.0045273699797689
1.7726372672435361e+18,4.7455361328125,-0.0306230783462524,0.0804014205932617,0.031752586364746,0.0037284223362803,-0.0034621064551174,-0.0061252652667462
1.7726372672635297e+18,4.76552978515625,-0.0473550558090209,0.0727996826171875,0.052647590637207,0.0058589493855834,0.0,-0.0101200034841895
1.7726372672835233e+18,4.7855234375,-0.0311689376831054,0.079904556274414,0.0727763175964355,0.0055926335044205,-0.0005326317623257,-0.0085221081972122
1.772637267303517e+18,4.805516845703125,-0.0246431827545166,0.1059417724609375,0.0549759864807128,0.0029294746927917,0.0045273699797689,0.0
1.7726372673435041e+18,4.845504150390625,0.0175080299377441,0.101231575012207,0.0037760734558105,0.0002663158811628,0.0026631588116288,-0.0026631588116288
1.7726372673634977e+18,4.865497802734375,-0.0098466873168945,0.0753393173217773,0.037154197692871,-0.0034621064551174,0.0039947382174432,-0.0127831622958183
1.7726372673834913e+18,4.8854912109375,-0.0273189544677734,0.0877027511596679,0.0228195190429687,-0.0079894764348864,0.0109189506620168,-0.0191747434437274
1.772637267403485e+18,4.90548486328125,-0.0059664249420166,0.1094369888305664,0.0137853622436523,-0.0026631588116288,0.0143810575827956,-0.0239684283733367
1.7726372674234788e+18,4.925478759765625,-0.0177928209304809,0.1022281646728515,0.029146671295166,-0.0034621064551174,0.0122505305334925,-0.0215715859085321
1.772637267443473e+18,4.945472900390625,-0.015817642211914,0.0895748138427734,0.0599613189697265,-0.0018642111681401,0.0149136893451213,-0.0279631670564413
1.7726372674634673e+18,4.96546728515625,-0.0010805130004882,0.0763435363769531,0.0914597511291503,-0.0018642111681401,0.0117178987711668,-0.0303600095212459
1.7726372674834614e+18,4.98546142578125,-0.0351077318191528,0.076751708984375,0.1091470718383789,-0.0037284223362803,0.011185267008841,-0.0292947478592395
1.7726372675034557e+18,5.005455810546875,-0.02150559425354,0.0764913558959961,0.0711197853088378,-0.0061252652667462,0.0125168468803167,-0.0266315881162881
1.7726372675234499e+18,5.025449951171875,-0.0322335958480834,0.1190776824951171,0.0622515678405761,-0.0101200034841895,0.0087884236127138,-0.0234357975423336
1.772637267543444e+18,5.04544384765625,-0.0329703092575073,0.0848712921142578,0.0489511489868164,-0.0082557927817106,0.0061252652667462,-0.0165115855634212
1.7726372675634383e+18,5.065438232421875,-0.0332241058349609,0.0841245651245117,0.0311160087585449,0.0,0.0042610540986061,-0.0119842141866683
1.7726372675834324e+18,5.085432373046875,-0.01997971534729,0.0787725448608398,0.0654253959655761,0.0039947382174432,0.0018642111681401,-0.0047936858609318
1.7726372676034268e+18,5.1054267578125,-0.0256215333938598,0.0927267074584961,0.1282815933227539,0.0029294746927917,-0.0029294746927917,0.0023968429304659
1.7726372676434153e+18,5.145415283203125,-0.0037358999252319,0.0629358291625976,0.033912181854248,0.0053263176232576,-0.0026631588116288,0.0045273699797689
1.7726372676834035e+18,5.185403564453125,-0.0143779516220092,0.0912351608276367,0.0536465644836425,0.0018642111681401,-0.0047936858609318,0.0069242129102349
1.772637267703398e+18,5.20539794921875,-0.0053018331527709,0.1008195877075195,0.0678944587707519,-0.0007989476434886,-0.0045273699797689,0.0082557927817106
1.772637267723392e+18,5.22539208984375,-0.0155152082443237,0.086705207824707,0.0480990409851074,0.0018642111681401,-0.0087884236127138,0.0058589493855834
1.7726372677633805e+18,5.26538037109375,-0.0564284324645996,0.0771732330322265,0.0616102218627929,0.0005326317623257,-0.0082557927817106,0.0050600017420947
1.7726372677833746e+18,5.28537451171875,-0.0344157218933105,0.043532371520996,0.1141805648803711,0.0037284223362803,-0.0058589493855834,0.0061252652667462
1.772637267803369e+18,5.305368896484375,-0.0688041448593139,0.0671300888061523,0.1240749359130859,-0.0002663158811628,-0.0050600017420947,0.0010652635246515
1.772637267823363e+18,5.325363037109375,-0.0518085956573486,0.061598777770996,0.1011157035827636,0.0026631588116288,-0.0002663158811628,-0.0005326317623257
1.7726372678433574e+18,5.345357421875,-0.0539147853851318,0.0654430389404296,0.0927824974060058,0.0007989476434886,-0.0053263176232576,-0.0029294746927917
1.7726372678633516e+18,5.3653515625,-0.0504482984542846,0.04571533203125,0.069554328918457,0.0015978952869772,-0.0157126374542713,0.0002663158811628
1.772637267883346e+18,5.385345947265625,-0.0327765941619873,0.0744438171386718,0.0644326210021972,0.0002663158811628,-0.0143810575827956,0.0018642111681401
1.77263726790334e+18,5.405340087890625,-0.0336052179336547,0.0793752670288086,0.0687589645385742,0.0029294746927917,-0.011185267008841,0.0039947382174432
1.7726372679233341e+18,5.425334228515625,-0.0396414995193481,0.0985670089721679,0.0540332794189453,0.0071905287913978,-0.0042610540986061,0.0069242129102349
1.7726372679433277e+18,5.44532763671875,-0.0364696979522705,0.0985565185546875,0.0392842292785644,0.0127831622958183,0.0002663158811628,0.0077231605537235
1.7726372679633216e+18,5.465321533203125,-0.023091435432434,0.0798187255859375,0.0574150085449218,0.0106526352465152,0.0047936858609318,0.0039947382174432
1.7726372679833152e+18,5.485315185546875,-0.0376859903335571,0.0659341812133789,0.0468649864196777,0.0117178987711668,0.0053263176232576,-0.0023968429304659
1.772637268003309e+18,5.50530908203125,-0.0373088121414184,0.0854606628417968,0.0414938926696777,0.0079894764348864,0.0055926335044205,-0.0031957905739545
1.7726372680233027e+18,5.525302734375,-0.013545274734497,0.1093549728393554,0.0511412620544433,0.0090547399595379,0.0029294746927917,-0.0023968429304659
1.77263726806329e+18,5.5652900390625,-0.0106704235076904,0.0746326446533203,0.0385026931762695,0.0090547399595379,-0.0010652635246515,-0.002130527049303
1.7726372680832837e+18,5.58528369140625,0.0077999830245971,0.0978279113769531,0.0259718894958496,0.0058589493855834,0.0,-0.0058589493855834
1.7726372681032776e+18,5.605277587890625,0.0068784952163696,0.1110658645629882,0.0326471328735351,0.0029294746927917,0.0026631588116288,-0.0058589493855834
1.7726372681232712e+18,5.625271240234375,0.0013155937194824,0.1291236877441406,0.0201358795166015,0.0015978952869772,0.006657897029072,-0.0042610540986061
1.772637268163259e+18,5.6652587890625,-0.0006531476974487,0.0939769744873046,-0.0013136863708496,0.0069242129102349,0.0109189506620168,-0.0010652635246515
1.7726372682032463e+18,5.705246337890625,0.0035368204116821,0.1030006408691406,0.0283164978027343,0.0098536871373653,0.0077231605537235,0.0047936858609318
1.77263726822324e+18,5.725239990234375,0.0077693462371826,0.1127033233642578,0.0327467918395996,0.0090547399595379,0.0071905287913978,0.0085221081972122
1.7726372682432338e+18,5.74523388671875,-0.0016647577285766,0.0985755920410156,0.0419120788574218,0.0101200034841895,0.0093210563063621,0.0095873717218637
1.7726372682632274e+18,5.765227294921875,-0.0259726047515869,0.0746488571166992,0.0609345436096191,0.0079894764348864,0.0069242129102349,0.0095873717218637
1.772637268283221e+18,5.785220947265625,-0.0457732677459716,0.0793867111206054,0.0602803230285644,0.0117178987711668,0.0093210563063621,0.0047936858609318
1.7726372683032148e+18,5.80521484375,-0.0317248106002807,0.0889625549316406,0.0404472351074218,-0.0002663158811628,0.0007989476434886,0.002130527049303
1.7726372683232084e+18,5.82520849609375,0.0342316627502441,0.1129369735717773,0.035344123840332,0.0023968429304659,-0.0010652635246515,-0.002130527049303
1.772637268363196e+18,5.86519580078125,-0.0371779203414917,0.0930233001708984,0.0500407218933105,-0.0013315794058144,-0.0005326317623257,-0.0023968429304659
1.7726372684031836e+18,5.90518359375,-0.0238575935363769,0.1064090728759765,0.0036988258361816,0.0018642111681401,-0.0005326317623257,-0.0005326317623257
1.772637268423177e+18,5.925177001953125,-0.0053000450134277,0.1009140014648437,0.0336008071899414,0.0042610540986061,-0.0015978952869772,0.0
1.7726372684431698e+18,5.945169677734375,0.0082465410232543,0.0907440185546875,0.0632295608520507,0.0026631588116288,0.0031957905739545,-0.0007989476434886
1.772637268463163e+18,5.965162841796875,-0.0157502889633178,0.0807123184204101,0.0682463645935058,0.0087884236127138,0.0053263176232576,-0.0026631588116288
1.772637268483156e+18,5.985156005859375,-0.0108758211135864,0.0654735565185546,0.0620837211608886,0.0103863198310136,-0.0007989476434886,0.002130527049303
1.7726372685031488e+18,6.005148681640625,-0.0062818527221679,0.0886125564575195,0.0587549209594726,-0.0031957905739545,-0.0055926335044205,0.0058589493855834
1.772637268523142e+18,6.025141845703125,-0.0254304409027099,0.0831975936889648,0.0694937705993652,-0.0010652635246515,-0.0082557927817106,0.0077231605537235
1.772637268543135e+18,6.045135009765625,-0.0295578241348266,0.0827922821044921,0.032081127166748,-0.0007989476434886,-0.0098536871373653,0.006657897029072
1.772637268583121e+18,6.085120849609375,-0.0207051038742065,0.0586299896240234,0.0897731781005859,-0.0042610540986061,-0.0077231605537235,0.0082557927817106
1.772637268603114e+18,6.105114013671875,-0.0215991735458374,0.0682430267333984,0.1086573600769043,-0.0039947382174432,-0.0069242129102349,0.0085221081972122
1.7726372686231068e+18,6.12510693359375,-0.0268192291259765,0.0633277893066406,0.0944085121154785,-0.0037284223362803,-0.0087884236127138,0.0098536871373653
1.772637268663093e+18,6.165093017578125,-0.0235649347305297,0.0624494552612304,0.0812807083129882,-0.0050600017420947,-0.0093210563063621,0.0082557927817106
1.772637268703079e+18,6.205078857421875,-0.0146647691726684,0.086801528930664,0.0660047531127929,-0.0071905287913978,-0.0063915811479091,0.0061252652667462
1.772637268723072e+18,6.225072021484375,-0.0040397644042968,0.0873632431030273,0.0700154304504394,-0.0031957905739545,-0.0138484258204698,0.0015978952869772
1.772637268763058e+18,6.265057861328125,-0.0181869268417358,0.0686521530151367,0.0644431114196777,-0.0007989476434886,-0.011185267008841,0.0005326317623257
1.7726372687830508e+18,6.28505078125,-0.0178477764129638,0.0880203247070312,0.0976839065551757,-0.0018642111681401,-0.0082557927817106,0.0023968429304659
1.7726372688030438e+18,6.3050439453125,-0.0324972867965698,0.0879087448120117,0.0738687515258789,0.0037284223362803,-0.0047936858609318,0.0045273699797689
1.772637268823037e+18,6.325036865234375,-0.0421340465545654,0.0589046478271484,0.0647516250610351,-0.0010652635246515,-0.0013315794058144,-0.0045273699797689
1.7726372688430298e+18,6.34502978515625,-0.0136613845825195,0.0777835845947265,0.0747895240783691,-0.0063915811479091,-0.0002663158811628,-0.0042610540986061
1.7726372688630228e+18,6.36502294921875,-0.0334298610687255,0.0916528701782226,0.061202049255371,-0.0029294746927917,-0.0031957905739545,-0.0002663158811628
1.772637268883016e+18,6.385015869140625,-0.0099164247512817,0.0813846588134765,0.0527782440185546,-0.0037284223362803,-0.0031957905739545,-0.0007989476434886
1.7726372689030088e+18,6.4050087890625,-0.0147325992584228,0.0903816223144531,0.0538516044616699,0.0029294746927917,0.002130527049303,0.0007989476434886
1.7726372689230016e+18,6.425001708984375,-0.0155044794082641,0.1090507507324218,0.0354132652282714,0.0010652635246515,0.0007989476434886,0.0029294746927917
1.7726372689429937e+18,6.44499365234375,-0.0068609714508056,0.0991792678833007,0.035715103149414,0.0039947382174432,0.0045273699797689,0.0023968429304659
1.7726372689629857e+18,6.46498583984375,0.0018537044525146,0.0941896438598632,0.0119123458862304,0.0055926335044205,0.0034621064551174,0.0042610540986061
1.772637268982978e+18,6.48497802734375,-0.0179077386856079,0.1036901473999023,0.021493911743164,0.006657897029072,0.0077231605537235,0.0058589493855834
1.77263726900297e+18,6.50497021484375,-0.0184608697891235,0.0751323699951171,0.025796890258789,0.0042610540986061,0.0077231605537235,0.0053263176232576
1.7726372690229622e+18,6.524962158203125,-0.037463903427124,0.0801725387573242,0.0637059211730957,0.0069242129102349,0.0045273699797689,0.0034621064551174
1.7726372690429545e+18,6.54495458984375,-0.0370621681213378,0.0806522369384765,0.0533404350280761,0.006657897029072,0.0023968429304659,0.0013315794058144
1.7726372690829386e+18,6.584938720703125,-0.0245428085327148,0.0749759674072265,0.0491223335266113,0.0039947382174432,-0.0015978952869772,0.0007989476434886
1.772637269102931e+18,6.604930908203125,-0.0683385133743286,0.074376106262207,0.0548553466796875,0.0013315794058144,-0.0039947382174432,0.0002663158811628
1.772637269122923e+18,6.624923095703125,-0.0251128673553466,0.0979785919189453,0.0603237152099609,-0.0010652635246515,-0.0079894764348864,-0.0018642111681401
1.7726372691429153e+18,6.644915283203125,-0.0016481876373291,0.0972824096679687,0.0614867210388183,-0.0026631588116288,-0.0034621064551174,-0.0029294746927917
1.7726372691629074e+18,6.664907470703125,-0.0264846086502075,0.0822772979736328,0.0432677268981933,-0.0034621064551174,-0.0026631588116288,-0.0029294746927917
1.7726372691828995e+18,6.6848994140625,-0.0463776588439941,0.0669937133789062,0.0256052017211914,0.0074568446725606,-0.0039947382174432,0.0055926335044205
1.7726372692028918e+18,6.704891845703125,-0.0415165424346923,0.090087890625,0.0601434707641601,0.0058589493855834,0.0023968429304659,0.0053263176232576
1.7726372692228838e+18,6.7248837890625,-0.0178120136260986,0.098912239074707,0.0950160026550293,-0.0002663158811628,0.0005326317623257,0.0039947382174432
1.772637269242876e+18,6.7448759765625,-0.027920126914978,0.0839347839355468,0.0816264152526855,0.0029294746927917,-0.0042610540986061,0.0061252652667462
1.7726372692628682e+18,6.7648681640625,-0.0229778289794921,0.0544338226318359,0.0590982437133789,0.0031957905739545,-0.0026631588116288,0.0090547399595379
1.7726372692828603e+18,6.7848603515625,0.0010185241699218,0.0493459701538085,0.0315093994140625,-0.0015978952869772,-0.0026631588116288,0.0098536871373653
1.7726372693028524e+18,6.804852294921875,-0.0128929615020751,0.0542068481445312,0.0410780906677246,0.0002663158811628,-0.002130527049303,0.0085221081972122
1.7726372693228447e+18,6.8248447265625,-0.0265787839889526,0.0881814956665039,0.054814338684082,0.0031957905739545,0.0,0.0061252652667462
1.7726372693428367e+18,6.844836669921875,-0.0218575000762939,0.0885515213012695,0.0541181564331054,0.0007989476434886,0.0029294746927917,0.0082557927817106
1.772637269382821e+18,6.884821044921875,-0.0613685846328735,0.0701742172241211,0.052372932434082,0.0013315794058144,0.0031957905739545,0.0029294746927917
1.7726372694028132e+18,6.904813232421875,-0.0215890407562255,0.0944042205810546,0.0713896751403808,-0.0023968429304659,0.0005326317623257,0.0
1.7726372694228058e+18,6.9248056640625,0.0441106557846069,0.0708198547363281,0.1040506362915039,-0.006657897029072,-0.0050600017420947,-0.0029294746927917
1.7726372694427986e+18,6.944798583984375,-0.014931321144104,0.0758705139160156,0.0982470512390136,-0.0037284223362803,-0.0077231605537235,-0.0029294746927917
1.7726372694827843e+18,6.9847841796875,-0.0111174583435058,0.0756616592407226,0.0169410705566406,0.0005326317623257,-0.0023968429304659,-0.0045273699797689
1.7726372695027773e+18,7.00477734375,0.012492299079895,0.0707416534423828,0.0410466194152832,-0.0077231605537235,0.0013315794058144,-0.0007989476434886
1.7726372695227702e+18,7.024770263671875,0.0017708539962768,0.0660381317138671,0.0837211608886718,0.0031957905739545,-0.0010652635246515,-0.0042610540986061
1.772637269542763e+18,7.044762939453125,0.0103195905685424,0.075531005859375,0.0884203910827636,0.0125168468803167,0.0,-0.0053263176232576
1.772637269582749e+18,7.0847490234375,-0.0167553424835205,0.1025381088256836,0.0381402969360351,0.0045273699797689,0.0082557927817106,0.0002663158811628
1.7726372696027418e+18,7.10474169921875,-0.017972707748413,0.0967178344726562,0.0253582000732421,0.0055926335044205,0.0071905287913978,0.0
1.7726372696227346e+18,7.124734619140625,0.0048792362213134,0.0910167694091796,0.0075950622558593,0.0109189506620168,0.0082557927817106,-0.0031957905739545
1.7726372696427274e+18,7.1447275390625,-0.0191550254821777,0.1046991348266601,0.0136365890502929,0.0130494777113199,0.0135821104049682,-0.0018642111681401
1.7726372696627205e+18,7.164720458984375,-0.0197478532791137,0.08544921875,0.0232243537902832,0.0143810575827956,0.0119842141866683,0.0077231605537235
1.7726372696827133e+18,7.18471337890625,-0.0112143754959106,0.0859317779541015,0.0705819129943847,0.0114515833556652,0.0079894764348864,0.0079894764348864
1.7726372697027062e+18,7.2047060546875,-0.021217942237854,0.0908088684082031,0.099062442779541,0.0087884236127138,0.0047936858609318,0.0071905287913978
1.772637269722699e+18,7.224698974609375,-0.0364532470703125,0.0853633880615234,0.0665149688720703,0.0026631588116288,0.0039947382174432,0.0063915811479091
1.772637269742692e+18,7.244692138671875,-0.0370485782623291,0.0700540542602539,0.0345501899719238,0.0029294746927917,-0.0010652635246515,0.0
1.772637269762685e+18,7.264684814453125,-0.0230720043182373,0.0884418487548828,0.0125212669372558,0.0037284223362803,-0.0042610540986061,-0.0058589493855834
1.7726372697826778e+18,7.284677734375,-0.0090787410736083,0.0975627899169921,0.0276470184326171,0.0015978952869772,-0.0015978952869772,-0.0007989476434886
1.7726372698026706e+18,7.304670654296875,-0.0290284156799316,0.0781593322753906,0.0374722480773925,0.0058589493855834,0.0010652635246515,0.0058589493855834
1.7726372698226637e+18,7.32466357421875,-0.048390507698059,0.039769172668457,0.0423264503479003,0.0085221081972122,0.0087884236127138,0.0079894764348864
1.7726372698426565e+18,7.344656494140625,-0.0392172336578369,0.0826978683471679,0.0713176727294921,0.0055926335044205,0.0058589493855834,0.006657897029072
1.7726372698826422e+18,7.38464208984375,-0.0273276567459106,0.1003408432006836,0.0489344596862793,0.0039947382174432,0.0034621064551174,0.0037284223362803
1.772637269902635e+18,7.404635009765625,-0.0368868112564086,0.076080322265625,0.0590791702270507,0.0050600017420947,0.0005326317623257,0.0013315794058144
1.7726372699226286e+18,7.424628662109375,-0.0175744295120239,0.1046266555786132,0.035531997680664,-0.0002663158811628,-0.0034621064551174,0.0010652635246515
1.7726372699426232e+18,7.444623291015625,-0.0086005926132202,0.0661935806274414,0.0547337532043457,0.006657897029072,-0.0018642111681401,0.0047936858609318
1.7726372699626179e+18,7.464617919921875,-0.0371475219726562,0.0615310668945312,0.05454683303833,0.0074568446725606,0.0013315794058144,0.0082557927817106
1.7726372699826125e+18,7.484612548828125,-0.0415281057357788,0.0713033676147461,0.0830507278442382,0.0002663158811628,0.0002663158811628,0.0034621064551174
1.7726372700026068e+18,7.50460693359375,-0.0361710786819458,0.0857257843017578,0.0926809310913086,-0.0015978952869772,-0.0013315794058144,0.0023968429304659
1.7726372700226015e+18,7.5246015625,-0.0268276929855346,0.0420131683349609,0.0841302871704101,0.0,-0.0063915811479091,0.0013315794058144
1.7726372700625907e+18,7.5645908203125,-0.055801510810852,0.0648345947265625,0.1005263328552246,-0.0031957905739545,-0.0042610540986061,-0.0002663158811628
1.7726372701025797e+18,7.604579833984375,0.0154130458831787,0.0783634185791015,0.0637350082397461,-0.0037284223362803,-0.0018642111681401,-0.0018642111681401
1.7726372701225743e+18,7.62457421875,0.0065803527832031,0.0638866424560546,0.0256357192993164,-0.0031957905739545,-0.0013315794058144,0.002130527049303
1.772637270142569e+18,7.64456884765625,-0.007454514503479,0.0830821990966796,0.0160846710205078,0.0037284223362803,0.0039947382174432,0.0061252652667462
1.7726372701825582e+18,7.68455810546875,0.0026804208755493,0.130497932434082,0.012336254119873,0.0058589493855834,0.011185267008841,0.0050600017420947
1.7726372702025526e+18,7.704552490234375,0.0313314199447631,0.1255388259887695,-0.0016036033630371,0.0101200034841895,0.0191747434437274,0.0015978952869772
1.7726372702225472e+18,7.724547119140625,-0.0104831457138061,0.1160812377929687,-0.0016512870788574,0.0093210563063621,0.0191747434437274,-0.0013315794058144
1.7726372702425418e+18,7.744541748046875,0.0137639045715332,0.1068267822265625,0.0261182785034179,0.0082557927817106,0.0189084280282259,-0.0026631588116288
1.7726372702825308e+18,7.78453076171875,-0.0234580039978027,0.1009302139282226,0.019291877746582,0.0031957905739545,0.0119842141866683,0.0031957905739545
1.77263727032252e+18,7.82452001953125,-0.0324697494506835,0.0718793869018554,0.0439443588256835,-0.0002663158811628,0.0061252652667462,0.0010652635246515
1.7726372703425147e+18,7.8445146484375,-0.0220470428466796,0.0816545486450195,0.0438036918640136,-0.0034621064551174,0.0013315794058144,-0.0010652635246515
1.7726372703625093e+18,7.86450927734375,0.0070254802703857,0.0861482620239257,0.062993049621582,-0.0101200034841895,-0.0082557927817106,-0.0013315794058144
1.7726372703825037e+18,7.884503662109375,-0.0118137598037719,0.0856523513793945,0.0831480026245117,-0.0077231605537235,-0.0127831622958183,0.0101200034841895
1.7726372704024983e+18,7.904498291015625,-0.0017914772033691,0.0756568908691406,0.0600647926330566,-0.0058589493855834,-0.0039947382174432,0.0005326317623257
1.7726372704224927e+18,7.92449267578125,-0.0201648473739624,0.089726448059082,0.0656061172485351,-0.0058589493855834,-0.0018642111681401,-0.0005326317623257
1.7726372704624806e+18,7.964480712890625,-0.0080486536026,0.0559549331665039,0.0666704177856445,-0.0026631588116288,-0.0007989476434886,0.0039947382174432
1.7726372704824745e+18,7.984474609375,-0.0169675350189209,0.0658893585205078,0.0805649757385253,-0.0037284223362803,-0.0031957905739545,0.006657897029072
1.7726372705024684e+18,8.00446826171875,0.0120885372161865,0.0523586273193359,0.0791010856628418,-0.0047936858609318,-0.0037284223362803,0.0058589493855834
1.7726372705224622e+18,8.024462158203125,0.0196806192398071,0.0772857666015625,0.062598705291748,-0.0053263176232576,-0.0013315794058144,0.0047936858609318
1.7726372705424563e+18,8.044456298828125,-0.0277224779129028,0.1112852096557617,0.0713090896606445,-0.0042610540986061,0.0031957905739545,0.0018642111681401
1.7726372705624502e+18,8.0644501953125,0.0064375400543212,0.1016817092895507,0.0283846855163574,0.0007989476434886,0.0085221081972122,-0.0034621064551174
1.772637270582444e+18,8.084444091796875,0.0071836709976196,0.0779495239257812,0.0089983940124511,0.0031957905739545,0.0098536871373653,-0.0093210563063621
1.7726372706024381e+18,8.104438232421876,0.0213319063186645,0.074106216430664,0.0552663803100585,0.0101200034841895,0.0045273699797689,-0.0127831622958183
1.772637270622432e+18,8.124431884765626,-0.0215001106262207,0.0604476928710937,0.0868139266967773,0.0042610540986061,0.006657897029072,-0.0058589493855834
1.7726372706424259e+18,8.14442578125,-0.0206084251403808,0.0465593338012695,0.0957317352294921,-0.0013315794058144,0.0047936858609318,0.0002663158811628
1.77263727066242e+18,8.164419921875,-0.0017205476760864,0.0659389495849609,0.1048483848571777,-0.0047936858609318,0.002130527049303,-0.0034621064551174
1.7726372706824138e+18,8.184413818359374,-0.0309119224548339,0.0850429534912109,0.0725088119506836,-0.0026631588116288,-0.0023968429304659,-0.0074568446725606
1.7726372707224015e+18,8.224401611328124,-0.0208932161331176,0.0803194046020507,0.0245828628540039,-0.0015978952869772,-0.0063915811479091,-0.006657897029072
1.7726372707423956e+18,8.244395751953125,-0.0108060836791992,0.1049098968505859,0.0235457420349121,-0.0058589493855834,-0.0013315794058144,-0.0029294746927917
1.7726372707623895e+18,8.264389404296875,0.0078368186950683,0.086221694946289,0.0752391815185546,-0.0010652635246515,-0.0045273699797689,-0.0013315794058144
1.7726372708023775e+18,8.30437744140625,-0.0109393596649169,0.09930419921875,0.0489602088928222,-0.0002663158811628,-0.0055926335044205,0.0010652635246515
1.7726372708223713e+18,8.324371337890625,0.0030546188354492,0.0888442993164062,0.0408926010131835,-0.0013315794058144,0.0005326317623257,-0.0023968429304659
1.7726372708423652e+18,8.344365234375,-0.0318491458892822,0.0601978302001953,0.0499496459960937,-0.0018642111681401,0.002130527049303,-0.006657897029072
1.7726372708823532e+18,8.384353271484375,-0.0729354619979858,0.0840787887573242,0.0583782196044921,-0.0010652635246515,-0.0063915811479091,-0.0042610540986061
1.772637270902347e+18,8.404346923828125,-0.0543506145477294,0.1026849746704101,0.0880022048950195,-0.0119842141866683,-0.0186421126127243,0.013315794058144
1.772637270922341e+18,8.424341064453126,-0.0165468454360961,0.097325325012207,0.0841207504272461,-0.0085221081972122,-0.0191747434437274,0.0114515833556652
1.772637270942335e+18,8.4443349609375,-0.0172251462936401,0.067997932434082,0.0466895103454589,-0.0010652635246515,-0.0170442163944244,-0.0005326317623257
1.772637270962329e+18,8.4643291015625,-0.0415844917297363,0.0584745407104492,0.0416913032531738,0.0013315794058144,-0.0117178987711668,0.0026631588116288
1.7726372709823232e+18,8.4843232421875,-0.0505168437957763,0.0734195709228515,0.0264334678649902,0.0002663158811628,-0.0050600017420947,0.0063915811479091
1.7726372710023173e+18,8.5043173828125,-0.0405110120773315,0.0932168960571289,0.0349588394165039,0.002130527049303,-0.0034621064551174,0.0058589493855834
1.7726372710223114e+18,8.5243115234375,-0.0446219444274902,0.1031026840209961,0.0872755050659179,0.0015978952869772,-0.002130527049303,-0.0007989476434886
1.7726372710423053e+18,8.54430517578125,-0.0069947242736816,0.0880632400512695,0.0835270881652832,-0.002130527049303,0.002130527049303,-0.0055926335044205
1.7726372710622994e+18,8.56429931640625,-0.0459679365158081,0.0774974822998046,0.0468406677246093,-0.0018642111681401,0.0005326317623257,-0.0063915811479091
1.7726372710822935e+18,8.58429345703125,-0.0406197309494018,0.0528163909912109,0.0345411300659179,-0.0047936858609318,-0.002130527049303,-0.0015978952869772
1.7726372711022876e+18,8.60428759765625,-0.0114997625350952,0.0479049682617187,0.0588083267211914,0.0013315794058144,-0.0047936858609318,0.0071905287913978
1.7726372711222815e+18,8.624281494140625,-0.0543856620788574,0.0954217910766601,0.0500040054321289,0.0034621064551174,-0.0013315794058144,0.0098536871373653
1.7726372711422756e+18,8.644275634765625,-0.0256539583206176,0.0756740570068359,0.0654435157775878,0.0010652635246515,0.0071905287913978,0.0077231605537235
1.7726372711622697e+18,8.664269775390625,-0.0256797075271606,0.0708675384521484,0.0798373222351074,0.0034621064551174,0.0103863198310136,0.0007989476434886
1.772637271202258e+18,8.7042578125,-0.0208255052566528,0.080047607421875,0.0901718139648437,0.0045273699797689,0.0098536871373653,0.0031957905739545
1.7726372712222518e+18,8.724251708984376,-0.0199853181838989,0.0991830825805664,0.0712709426879882,0.0071905287913978,0.0127831622958183,0.0047936858609318
1.772637271242246e+18,8.744245849609374,-0.0183182954788208,0.099761962890625,0.056258201599121,0.0079894764348864,0.0141147412359714,-0.0013315794058144
1.77263727126224e+18,8.764239990234374,-0.0210393667221069,0.0813531875610351,0.0553908348083496,0.0101200034841895,0.0207726396620273,0.002130527049303
1.772637271302228e+18,8.80422802734375,0.0270791053771972,0.1011762619018554,0.0214400291442871,0.0074568446725606,0.0226368494331836,-0.0013315794058144
1.772637271322222e+18,8.82422216796875,0.015964388847351,0.1300201416015625,0.012338638305664,0.0031957905739545,0.0237021129578351,-0.0069242129102349
1.7726372713422162e+18,8.84421630859375,0.0277466773986816,0.0870914459228515,0.0029525756835937,0.0013315794058144,0.0245010610669851,-0.0082557927817106
1.7726372713622103e+18,8.864210205078125,0.0418663024902343,0.0823869705200195,-0.011488914489746,0.0002663158811628,0.0263652727007865,-0.0026631588116288
1.7726372714021985e+18,8.904198486328125,0.0230088233947753,0.1016750335693359,0.0067739486694335,-0.0026631588116288,0.0245010610669851,-0.0010652635246515
1.772637271422192e+18,8.924192138671875,0.0310189723968505,0.1118669509887695,0.0149965286254882,-0.0039947382174432,0.017310531809926,-0.0015978952869772
1.7726372714421855e+18,8.944185546875,-0.0121790170669555,0.117034912109375,0.0285134315490722,0.0031957905739545,0.0109189506620168,-0.0023968429304659
1.7726372714621788e+18,8.9641787109375,-0.0635002851486206,0.0691204071044921,0.0576090812683105,-0.0010652635246515,-0.0015978952869772,-0.0013315794058144
1.7726372714821724e+18,8.98417236328125,-0.0284397602081298,0.0353355407714843,0.1021571159362793,-0.0058589493855834,-0.0178431645035743,-0.0029294746927917
1.7726372715021658e+18,9.004165771484375,0.0058542490005493,0.0498933792114257,0.0828452110290527,-0.0175768472254276,-0.0186421126127243,0.0047936858609318
1.772637271522159e+18,9.0241591796875,0.0023572444915771,0.0697546005249023,0.0627188682556152,-0.0175768472254276,-0.0162452682852745,0.0079894764348864
1.7726372715421524e+18,9.04415234375,-0.0054366588592529,0.0849618911743164,0.0807952880859375,-0.0119842141866683,-0.013315794058144,0.0015978952869772
1.7726372715621458e+18,9.064145751953124,0.0091502666473388,0.0997371673583984,0.1136460304260253,-0.0098536871373653,-0.0037284223362803,-0.0047936858609318
1.7726372716021325e+18,9.104132568359375,0.0074622631072998,0.0604658126831054,0.0191407203674316,-0.0109189506620168,-0.0005326317623257,-0.0058589493855834
1.7726372716221258e+18,9.124125732421875,-0.0409169197082519,0.0417289733886718,0.0230336189270019,-0.0053263176232576,-0.006657897029072,-0.0023968429304659
1.7726372716421192e+18,9.144119140625,-0.0409491062164306,0.0619192123413085,0.0642619132995605,-0.0031957905739545,-0.0135821104049682,0.0061252652667462
1.7726372716621128e+18,9.16411279296875,-0.0266604423522949,0.1009855270385742,0.1251678466796875,-0.0061252652667462,-0.0170442163944244,-0.0029294746927917
1.772637271682106e+18,9.184106201171875,-0.016987919807434,0.0963525772094726,0.1207084655761718,-0.0093210563063621,-0.0181094799190759,-0.0082557927817106
1.7726372717020995e+18,9.204099365234375,-0.0312069654464721,0.0580472946166992,0.0536303520202636,-0.0093210563063621,-0.0181094799190759,-0.0047936858609318
1.7726372717220928e+18,9.2240927734375,-0.0252383947372436,0.0438899993896484,0.0678973197937011,-0.0079894764348864,-0.0135821104049682,0.0010652635246515
1.7726372717420861e+18,9.244086181640624,-0.004887580871582,0.0729455947875976,0.0724120140075683,-0.0071905287913978,-0.0119842141866683,0.0018642111681401
1.7726372717620795e+18,9.26407958984375,-0.0092452764511108,0.0922918319702148,0.0769791603088378,-0.0125168468803167,-0.0106526352465152,0.0013315794058144
1.7726372718020664e+18,9.30406640625,-0.0329936742782592,0.0596990585327148,0.0992493629455566,-0.0130494777113199,-0.0109189506620168,0.0002663158811628
1.7726372718220598e+18,9.324059814453124,-0.0284003019332885,0.0459022521972656,0.0885624885559082,-0.0109189506620168,-0.0151800047606229,0.0010652635246515
1.772637271842053e+18,9.34405322265625,-0.0339018106460571,0.0512208938598632,0.0682501792907714,-0.0058589493855834,-0.0098536871373653,-0.0031957905739545
1.7726372718620465e+18,9.36404638671875,-0.0342251062393188,0.0757665634155273,0.0670881271362304,-0.0023968429304659,-0.0069242129102349,-0.0047936858609318
1.7726372718820398e+18,9.384039794921875,-0.0199521780014038,0.0951423645019531,0.0666699409484863,0.0039947382174432,-0.0007989476434886,-0.0061252652667462
1.7726372719020332e+18,9.404033203125,-0.0488406419754028,0.066411018371582,0.0714011192321777,0.0050600017420947,0.0053263176232576,-0.0071905287913978
1.7726372719220262e+18,9.424026123046875,-0.0435589551925659,0.0665540695190429,0.0425138473510742,0.0045273699797689,0.0071905287913978,-0.0031957905739545
1.7726372719420186e+18,9.4440185546875,-0.0194101333618164,0.0863027572631836,0.0558576583862304,0.0047936858609318,0.0063915811479091,-0.0007989476434886
1.7726372719620111e+18,9.46401123046875,-0.0054255723953247,0.1055545806884765,0.0508069992065429,0.0031957905739545,0.0103863198310136,-0.002130527049303
1.772637272001996e+18,9.50399609375,-0.0021822452545166,0.0905189514160156,-0.0010542869567871,0.0042610540986061,0.0098536871373653,-0.0071905287913978
1.7726372720219884e+18,9.52398828125,-0.0362371206283569,0.0667924880981445,0.0127692222595214,0.0077231605537235,0.0103863198310136,-0.0029294746927917
1.772637272041981e+18,9.54398095703125,-0.0407572984695434,0.0866012573242187,0.0547704696655273,0.0071905287913978,0.0053263176232576,0.0013315794058144
1.7726372720619732e+18,9.56397314453125,-0.0260646343231201,0.0920085906982421,0.0585060119628906,0.0045273699797689,0.002130527049303,-0.0037284223362803
1.7726372720819658e+18,9.5839658203125,-0.0310485363006591,0.0633258819580078,0.0385785102844238,0.0007989476434886,0.0037284223362803,-0.0069242129102349
1.7726372721019581e+18,9.603958251953124,-0.0457599163055419,0.0821523666381836,0.0295324325561523,0.0018642111681401,0.006657897029072,-0.0069242129102349
1.7726372721219507e+18,9.62395068359375,-0.03145432472229,0.0914735794067382,0.0443720817565918,0.0042610540986061,0.0053263176232576,-0.0015978952869772
1.772637272141943e+18,9.643943115234377,-0.022196888923645,0.0962200164794921,0.0347890853881835,0.0037284223362803,0.0023968429304659,0.0026631588116288
1.7726372721619356e+18,9.663935546875,-0.0273767709732055,0.0818805694580078,0.0106744766235351,0.0029294746927917,0.0042610540986061,0.002130527049303
1.772637272181928e+18,9.683927978515625,-0.0037721395492553,0.0916004180908203,0.0438718795776367,0.0023968429304659,0.0007989476434886,-0.0002663158811628
1.7726372722019205e+18,9.70392041015625,-0.000401496887207,0.1109380722045898,0.0479907989501953,0.0015978952869772,-0.0015978952869772,-0.0010652635246515
1.7726372722219128e+18,9.723912841796874,-0.0209400653839111,0.110753059387207,0.0426025390625,0.0002663158811628,-0.0029294746927917,-0.0015978952869772
1.7726372722419054e+18,9.743905517578124,-0.0360010862350463,0.0864086151123046,0.0149998664855957,0.0058589493855834,-0.0039947382174432,-0.0034621064551174
1.7726372722618977e+18,9.763897705078126,-0.031055212020874,0.0911378860473632,0.0241360664367675,0.0053263176232576,-0.0050600017420947,0.0005326317623257
1.7726372722818903e+18,9.783890380859376,-0.0211389064788818,0.1006755828857421,0.0446610450744628,0.0018642111681401,-0.0045273699797689,0.0034621064551174
1.7726372723218752e+18,9.823875244140623,0.0077724456787109,0.0621709823608398,0.1067132949829101,-0.0055926335044205,-0.0090547399595379,0.0018642111681401
1.7726372723418675e+18,9.843867431640623,-0.0025696754455566,0.0853548049926757,0.0558395385742187,-0.0079894764348864,-0.011185267008841,0.0023968429304659
1.77263727236186e+18,9.863860107421877,-0.0184627771377563,0.0745553970336914,0.0624904632568359,-0.0058589493855834,-0.013315794058144,0.0039947382174432
1.772637272401845e+18,9.903844970703124,-0.0101070404052734,0.0539655685424804,0.0648078918457031,-0.0037284223362803,-0.0146473739296197,0.0093210563063621
1.7726372724218376e+18,9.923837646484374,-0.0164165496826171,0.0680704116821289,0.0792927742004394,-0.0007989476434886,-0.0178431645035743,0.0135821104049682
1.772637272441831e+18,9.943830810546874,-0.0419213771820068,0.068063735961914,0.1028723716735839,-0.0034621064551174,-0.0109189506620168,0.0069242129102349
1.7726372724618245e+18,9.963824462890624,-0.0383765697479248,0.0441398620605468,0.1072964668273925,0.0029294746927917,-0.0109189506620168,0.0026631588116288
1.7726372724818179e+18,9.98381787109375,-0.0255239009857177,0.0490045547485351,0.0780348777770996,0.0047936858609318,-0.0085221081972122,-0.0002663158811628
1.7726372725018112e+18,10.003811279296874,-0.0509259700775146,0.0443935394287109,0.0821332931518554,0.0071905287913978,-0.0007989476434886,-0.0010652635246515
1.7726372725218045e+18,10.023804443359374,-0.0329525470733642,0.0877304077148437,0.0526885986328125,0.0122505305334925,0.0058589493855834,-0.0031957905739545
1.7726372725417981e+18,10.043798095703124,-0.0426934957504272,0.0974931716918945,0.0618996620178222,0.0135821104049682,0.0117178987711668,-0.0055926335044205
1.7726372725617915e+18,10.06379150390625,0.0048540830612182,0.0881166458129882,0.0710101127624511,0.0101200034841895,0.0162452682852745,-0.0042610540986061
1.7726372726017782e+18,10.103778076171874,0.0047196149826049,0.0922956466674804,0.0343713760375976,0.011185267008841,0.017310531809926,-0.0047936858609318
1.7726372726217718e+18,10.123771728515624,-0.010014533996582,0.0966310501098632,0.0542817115783691,0.0117178987711668,0.0191747434437274,0.0037284223362803
1.772637272641765e+18,10.14376513671875,-0.0190976858139038,0.0773839950561523,0.0353956222534179,0.0101200034841895,0.0149136893451213,0.0023968429304659
1.7726372726617585e+18,10.163758544921874,0.0051488876342773,0.1057319641113281,0.0409913063049316,0.0045273699797689,0.0135821104049682,-0.0002663158811628
1.772637272681752e+18,10.183751953125,0.0052260160446166,0.1048946380615234,0.0461435317993164,0.0034621064551174,0.0101200034841895,0.0031957905739545
1.7726372727017454e+18,10.203745361328124,-0.0185737609863281,0.0755586624145507,0.0712208747863769,0.0023968429304659,0.0058589493855834,0.0082557927817106
1.7726372727217388e+18,10.22373876953125,-0.0087047815322875,0.0564212799072265,0.0664505958557128,0.0034621064551174,0.0079894764348864,0.0058589493855834
1.772637272741732e+18,10.243732177734374,0.0102373361587524,0.0850553512573242,0.0666007995605468,0.0037284223362803,0.0101200034841895,-0.0007989476434886
1.7726372727617257e+18,10.2637255859375,0.0154101848602294,0.113682746887207,0.0717062950134277,0.0077231605537235,0.0125168468803167,-0.0005326317623257
1.7726372728017124e+18,10.30371240234375,-0.0167430639266967,0.0891828536987304,0.0299315452575683,0.0031957905739545,0.0109189506620168,0.0005326317623257
1.7726372728217057e+18,10.323705810546874,-0.006987452507019,0.0652179718017578,0.0060381889343261,0.0018642111681401,0.0109189506620168,0.002130527049303
1.7726372728416993e+18,10.34369921875,-0.0115954875946044,0.0892543792724609,0.0059337615966796,0.0023968429304659,0.0063915811479091,-0.0007989476434886
1.7726372728616927e+18,10.363692626953124,-0.0113773345947265,0.1226425170898437,0.0535721778869628,0.0010652635246515,0.0039947382174432,-0.0015978952869772
1.7726372729016796e+18,10.4036796875,-0.0048567056655883,0.0984210968017578,0.0413198471069335,-0.0005326317623257,0.0015978952869772,0.0015978952869772
1.7726372729216727e+18,10.423672607421874,0.0154694318771362,0.0748147964477539,0.0697154998779296,-0.0103863198310136,-0.0063915811479091,0.002130527049303
1.7726372729416658e+18,10.443665771484374,-0.0079964399337768,0.0703725814819336,0.0596179962158203,-0.0127831622958183,-0.0101200034841895,-0.0002663158811628
1.772637272961659e+18,10.463658935546874,-0.0312724113464355,0.0798969268798828,0.0694751739501953,-0.0074568446725606,-0.0082557927817106,-0.0015978952869772
1.7726372729816522e+18,10.48365234375,-0.0016541481018066,0.0608987808227539,0.0789675712585449,-0.006657897029072,-0.0053263176232576,0.0026631588116288
1.772637273001645e+18,10.50364501953125,0.0170615911483764,0.0949411392211914,0.0689477920532226,-0.0071905287913978,-0.0034621064551174,0.0005326317623257
1.7726372730216384e+18,10.523638427734374,0.0065997838973999,0.1005010604858398,0.0912723541259765,0.0023968429304659,0.0005326317623257,-0.0058589493855834
1.7726372730416315e+18,10.543631591796874,-0.0266013145446777,0.1012792587280273,0.0468068122863769,0.0037284223362803,-0.0018642111681401,-0.0087884236127138
1.7726372730616246e+18,10.56362451171875,0.0077897310256958,0.1019916534423828,0.0121736526489257,-0.0037284223362803,-0.0034621064551174,-0.0074568446725606
1.7726372730816177e+18,10.58361767578125,-0.0062078237533569,0.0597362518310546,0.0430216789245605,-0.0082557927817106,-0.0053263176232576,-0.0061252652667462
1.7726372731016108e+18,10.60361083984375,-0.038411259651184,0.0987300872802734,0.090036392211914,-0.006657897029072,-0.0079894764348864,-0.0074568446725606
1.7726372731216038e+18,10.623603759765626,-0.0134496688842773,0.1085853576660156,0.1041579246520996,-0.0117178987711668,-0.0077231605537235,-0.0037284223362803
1.772637273141597e+18,10.643596923828126,-0.0078458786010742,0.0988731384277343,0.0758547782897949,-0.0074568446725606,-0.0026631588116288,-0.0005326317623257
1.77263727316159e+18,10.663590087890626,0.0163023471832275,0.0602140426635742,0.0333919525146484,-0.0050600017420947,-0.0002663158811628,0.0029294746927917
1.772637273181583e+18,10.6835830078125,-0.0102590322494506,0.0596084594726562,0.0386519432067871,-0.0018642111681401,-0.0005326317623257,0.0039947382174432
1.7726372732015762e+18,10.703576171875,-0.0073941946029663,0.0637378692626953,0.0729250907897949,0.0149136893451213,-0.0005326317623257,0.0029294746927917
1.7726372732215693e+18,10.7235693359375,0.0224844217300415,0.1152830123901367,0.0503263473510742,0.0101200034841895,-0.0018642111681401,0.0050600017420947
1.7726372732415624e+18,10.743562255859375,-0.0096057653427124,0.1286897659301757,0.0367388725280761,0.0146473739296197,-0.0047936858609318,0.0085221081972122
1.7726372732615555e+18,10.763555419921875,0.0060209035873413,0.0661087036132812,0.0603542327880859,0.0165115855634212,-0.0117178987711668,0.0058589493855834
1.7726372732815485e+18,10.783548583984375,-0.0193514823913574,0.0105218887329101,0.0960311889648437,0.0138484258204698,-0.0119842141866683,0.0
1.7726372733015416e+18,10.803541748046875,-0.0180622339248657,0.0329360961914062,0.0975627899169921,-0.0239684283733367,-0.0079894764348864,-0.013315794058144
1.7726372733215347e+18,10.82353466796875,-0.0081672668457031,0.1058101654052734,0.0831985473632812,-0.0655137076973915,-0.0037284223362803,-0.0175768472254276
,,,,,-0.0295610632747411,0.0007989476434886,-0.0031957905739545
