time,seconds_elapsed,accel_z,accel_y,accel_x,gyro_x,gyro_y,gyro_z
1772807720987793000,0.07879296875,0.0524433039426803,0.0135395727917552,-0.0054374052809551,-0.0246798247098922,0.033109039068222,0.0174662694334983
1772807721007842000,0.098842041015625,-0.0266126971155405,0.0190963301360607,0.0459478409761562,0.0094848489388823,-0.0072140153497457,0.0218455214053392
1772807721027891000,0.118890869140625,-0.0431686951190233,0.0360711380735039,0.0323215762816369,0.0472693741321563,-0.0077031957916915,0.0305565781891345
1772807721047940000,0.138940185546875,0.0074912325382232,0.0436971029072999,-0.0390085432322695,0.0321019627153873,0.0076548103243112,0.0334162078797817
1772807721067989000,0.158989013671875,0.1201280161589384,-0.0037330490484833,-0.0195073951549828,-0.0084889139980077,0.0338361971080303,0.0246534422039985
1772807721088037000,0.179037109375,0.0824672708064317,0.0024441782817244,-0.0287908814048394,-0.014605046249926,0.0239825267344713,0.0214697010815143
1772807721108086000,0.1990859375,0.0531640194326639,0.0430450687393546,-0.0258784280242398,0.0243152808398008,0.0121158389374613,0.0217511244118213
1772807721128135000,0.219135009765625,0.0963619406461715,0.0591050999194383,-0.004110686721839,0.0410091243684291,0.0095636174082756,0.0225036926567554
1772807721148184000,0.23918408203125,0.2469213354259729,0.0466872246339917,-0.0327812662152573,0.0198252350091934,0.0387011840939521,0.0183935463428497
1772807721168233000,0.25923291015625,0.31143735447824,0.045938744354248,-0.0298818915119394,-0.0198677163571119,0.0193074159324169,0.0146536845713853
1772807721188282000,0.2792822265625,0.3002484364658594,0.0567228809580206,0.0086482936188578,-0.0491059869527816,-0.025917574763298,0.0090642999857664
1772807721208331000,0.2993310546875,0.144698393791914,0.0896720876187086,-0.0140417501602321,-0.0395150929689407,-0.0634122863411903,0.0060424376279115
1772807721228380000,0.3193798828125,-0.0135807815849781,0.118763449807465,-0.0140965490873903,-0.0034168856218457,-0.03028498403728,0.0100084636360406
1772807721248429000,0.339428955078125,-0.0862426976919174,0.1020347255855798,-0.0302348696680739,0.0129736782982945,0.0126589220017194,0.0216476060450077
1772807721268478000,0.35947802734375,-0.1222936697602272,0.0467065138563513,0.0366951151907444,0.0092945210635662,0.0298384111374616,0.0280163362622261
1772807721288527000,0.379527099609375,-0.0491664742290973,0.0270464123576879,0.0281765488987788,0.0245201662182807,0.0385219641029834,0.0275887008756399
1772807721308576000,0.399575927734375,-0.0851835440278053,0.007827332624793,0.0273356045626103,0.036117386072874,0.0207266490906476,0.0287145487964153
1772807721328625000,0.419625,0.0518254643052816,0.009034078066051,0.0001690729565918,0.0348829701542854,0.0376144014298915,0.0327192433178424
1772807721348674000,0.439674072265625,0.1406897426724433,-0.0159247143626213,-0.0479771548466756,0.0131589444354176,0.0493095926940441,0.028834031894803
1772807721368723000,0.459722900390625,0.2171867068976163,-0.0040220951229333,-0.0530165737859904,-0.0132723096758127,0.0281933415681123,0.0100358789786696
1772807721388772000,0.479772216796875,0.147947166454792,0.0311401114121079,-0.0447907068302854,0.0030012452043592,0.0059154108166694,0.0064997123554348
1772807721408821000,0.499821044921875,0.2083282776594162,0.0734621265739202,-0.0368313818562775,0.0271223373711109,-0.0016394330887123,0.0187391247600317
1772807721428870000,0.519869873046875,0.2454354807823896,0.0358460971459746,-0.028057050704956,-0.0065502291545271,-0.0105003956705331,0.0162012055516242
1772807721448919000,0.5399189453125,0.1565104121387004,0.0106081955149769,-0.0132506728477776,-0.0645375847816467,-0.0292418468743562,0.0007887515239417
1772807721468968000,0.559968017578125,0.0904617766916751,0.008424129474163,0.0121153852075338,-0.0673651024699211,-0.0062603778205811,0.0027296531479805
1772807721489017000,0.58001708984375,-0.0343429991066455,0.0518044215172529,-0.0248020309643819,-0.028457436710596,0.0173762310296297,0.0114852227270603
1772807721509066000,0.60006591796875,-0.0450596234321594,0.0375128613144159,-0.0140470473898574,0.0097540495917201,0.0290065016597509,0.0279224514961242
1772807721529115000,0.620114990234375,2.80570507049e-05,-0.0113964232832193,0.0130113111339509,0.0216854978352785,0.0077275037765502,0.0376298055052757
1772807721549164000,0.6401640625,0.0663508332639932,0.0060728901728987,0.0181283253541216,0.0155166806653141,0.0075827930122613,0.023063926026225
1772807721569213000,0.660212890625,0.1505915434837341,-0.0023667291313409,-0.0238423190867528,-0.0069883586838841,0.0069040209054946,0.0079327225685119
1772807721589262000,0.680261962890625,0.1301969902306795,-0.0221960497170686,-0.0228024181123822,-0.0468912087380886,-0.0007655296940356,-0.0009631067514419
1772807721609311000,0.70031103515625,0.0931914939165115,0.0118234165236353,-0.0373585840681567,-0.0505324602127075,0.0050958427600562,0.0004088024143129
1772807721629359900,0.72035986328125,0.042337504991889,0.0741428023144602,-0.0115874158106744,-0.0072849886491894,0.0138533497229218,0.0161026380956172
1772807721649408000,0.740407958984375,0.0588438186347484,0.0790416802719235,-0.0009909107334911,0.0260032750666141,-0.0037758902180939,0.0302478987723588
1772807721669458000,0.7604580078125,0.1464642344206571,0.0458519428536295,0.0056728214720264,0.0060972622595727,-0.0001421264314558,0.0275649782270193
1772807721689506000,0.780506103515625,0.1951180829524993,-0.0039469840601086,-0.0097540994362905,-0.0474650375545024,-0.002674858784303,0.0132448151707649
1772807721709555000,0.800554931640625,0.1353980660051107,0.0008212532550096,-0.0028040976352989,-0.0580995194613933,0.0185499377548694,0.0057938494719564
1772807721729604000,0.82060400390625,0.0390969156354665,0.0390767496302723,0.0021810338335111,-0.0188061892986297,0.0227283015847206,0.0197712443768978
1772807721749653000,0.840653076171875,0.0233639244526624,0.0275768659725785,0.0035794293893501,0.0014658940490335,0.0106662008911371,0.0268068388104438
1772807721769702100,0.8607021484375,0.0023363339930772,0.0127069213598966,0.0344165757995098,-0.000580878695473,0.0086403638124465,0.0190486907958984
1772807721789751000,0.8807509765625,0.0240840554207563,0.0058276832401752,-0.0242041016038507,-0.0015921713784337,0.0412298552691936,0.0247643608599901
1772807721809800200,0.90080029296875,0.027381927922368,0.0121361357346177,-0.0234394008416682,-0.0053668455220758,0.0532242842018604,0.0228603929281234
1772807721829849300,0.920849365234375,0.0662204848825931,0.0096241529136896,-0.0083495664006099,-0.0005397805944085,0.0210390146821737,0.0126510458067059
1772807721849898000,0.94089794921875,0.0647311231076717,0.0010071312159299,-0.0309844459263607,0.0152683025225996,0.0481026768684387,0.018977578729391
1772807721869947100,0.960947021484375,0.1248544601589441,0.0395005280002951,-0.0551148612394928,0.0046206582337617,0.0633321404457092,0.0179057382047176
1772807721889996000,0.98099609375,0.1025438441514968,-0.0247901578634977,0.0287343289120122,-0.010633785277605,0.0241175387054681,0.0176496058702468
1772807721910045200,1.001045166015625,0.159648125642538,0.0010980243697762,-0.0626905389244668,-0.0058841640129685,0.0014171005459502,0.0041101262904703
1772807721930094300,1.02109423828125,0.2411012509703636,-0.0196381819278001,-0.0680656926241703,-0.0157866887748241,-0.0151586811989545,-0.018381230533123
1772807721950143000,1.04114306640625,0.0789385121583938,-0.0723082803636789,0.0182137020826339,-0.0235737226903438,-0.0542345084249973,-0.0237605217844247
1772807721970192100,1.061192138671875,0.0981932477265596,-0.0222638542562723,-0.0182600985076278,0.0021941734012216,-0.0192669425159692,-0.0052673704922199
1772807721990241000,1.081240966796875,0.0206084882646799,-0.0320665786072611,-0.0078181629376485,0.013850612565875,0.0102189863100647,0.0009873560629785
1772807722010290200,1.101290283203125,0.0960901379674673,-0.0687768913671374,-0.0129776645926758,-0.0075197471305727,0.0141763594001531,-0.0162051394581794
1772807722030339300,1.12133935546875,0.081672321036458,-0.0896703340530395,0.0562558479681611,-0.0202753990888595,0.0028489541728049,-0.0285329855978488
1772807722050388200,1.14138818359375,0.102772976732254,-0.0286418648555874,0.0577510914945974,-0.0063064089044928,0.0066903973929584,-0.0262351687997579
1772807722070437000,1.16143701171875,0.0526011248528957,0.0077165657266974,0.0792176396270282,0.0091700181365013,-0.0094756437465548,-0.0158697701990604
1772807722090486000,1.181486083984375,0.1083598369538784,0.0615823036879301,0.0715256968849338,0.0027214812580496,0.0088084368035197,-0.0054276147857308
1772807722110535200,1.20153515625,0.1412865395218134,0.076793316823244,0.0615233400423079,-0.0230335462838411,0.0268339365720748,0.0033278563059866
1772807722130584300,1.221584228515625,0.1243769057750701,0.0816007171049714,0.1031518565146252,-0.0348226949572563,0.003517250297591,0.0131948515772819
1772807722150633200,1.24163330078125,0.1093301432907581,0.1120537230357527,0.0501063123624771,-0.0142593625932931,-0.0122093064710497,0.0334390588104724
1772807722170682000,1.26168212890625,0.1038321303963661,0.0942491862758994,0.0221583115225657,-0.0116572771221399,-0.0115585122257471,0.0273146610707044
1772807722190731000,1.28173095703125,0.1195084229558706,0.0354939227074384,-0.0360501500844024,-0.0253828521817922,-0.0092262411490082,0.0168031696230173
1772807722210780200,1.3017802734375,0.0841372498452663,0.0048225978508591,-0.0348992630162276,-0.0267010740935802,-0.0114570772275328,0.0114287324249744
1772807722230829300,1.321829345703125,-0.0185901341795921,-0.0057695233121514,-0.0633777722699567,-0.0088013922795653,-0.0167367830872535,0.0224777124822139
1772807722250878200,1.341878173828125,0.0546077885001897,-0.027385727314651,-0.1242121802000328,0.0095559991896152,0.0171631798148155,0.0198920723050832
1772807722270927000,1.361927001953125,0.0449170000910758,-0.0709513127967715,-0.147301872554887,-0.0119388177990913,0.0164685845375061,-0.0107504893094301
1772807722290976000,1.38197607421875,0.0116290629953145,-0.0941635538190603,-0.0929960078770294,-0.0257847327739,-0.0283545181155204,-0.0283722355961799
1772807722311025200,1.402025146484375,-0.0508189176112413,-0.0505915385961532,-0.0566790783489122,0.011365839280188,-0.0330852940678596,-0.014931134879589
1772807722331073000,1.422072998046875,-0.0434808298081159,0.0070855743467807,-0.114618458957225,0.0379422754049301,-0.0012752376496791,-0.0042562568560242
1772807722351122200,1.4421220703125,0.119442371982336,0.0155371763497591,-0.1078364341342821,0.0211806073784828,0.0446227453649044,-0.0132010150700807
1772807722371171300,1.46217138671875,0.152730893599987,-0.0113198509156703,-0.0836371183034032,-0.0063969139009714,0.0233086142688989,-0.0148716382682323
1772807722391220000,1.482219970703125,0.1673275742292404,0.0160927644059062,0.0073484995992854,-0.0153749622404575,-0.0141807030886411,-0.0313667245209217
1772807722411269000,1.50226904296875,0.1290022274881601,-0.0147501176252961,-0.0675420158099383,-0.0027466530445963,-0.0270861480385065,-0.0391361340880394
1772807722431318000,1.522318115234375,0.2029214501798152,0.0483197942718863,-0.0015565452596172,-0.018946349620819,-0.0240727066993713,-0.0621110908687114
1772807722451367200,1.5423671875,0.0397124171853065,0.0145727152317762,0.0275112168578431,-0.0224302522838115,-0.0449787750840187,-0.0476450100541114
1772807722471416300,1.562416259765625,-0.0277566064536571,0.0890253141477704,0.0367373103646561,0.0085950847715139,-0.0152086839079856,-0.0285704061388969
1772807722491465200,1.58246533203125,-0.0115782095909118,0.0676680533424019,0.0604117620712146,0.0281147211790084,0.0307457577437162,-0.0075828325934708
1772807722511514000,1.60251416015625,0.0082055182874202,0.0268245863005518,0.0802224510217085,0.0139807984232902,0.0100206900388002,-0.0045551159419119
1772807722531563000,1.62256298828125,0.0234071790724992,-0.0133317752599716,0.11352291880548,0.0237634759396314,-0.014577429741621,-0.0054174894466996
1772807722551612200,1.642612060546875,0.0421282461553812,0.0292386617049574,0.0728076447205618,0.0385304354131221,-0.0098644969984889,-0.0039405785501003
1772807722571661300,1.662661376953125,0.0545715481430292,0.0143444594338536,0.0442365435462445,0.0324362777173519,0.0157321989536285,-0.0040434338152408
1772807722591710200,1.682710205078125,0.1247293724745512,0.0076961074605584,0.0031507921811193,0.0017653643153607,0.0189676508307456,-0.0029897359199821
1772807722611759000,1.702759033203125,0.0997930841386318,-0.0191764096349477,-0.0020193039331585,0.0010420519392937,-0.0020482919644564,-0.0036239437758922
1772807722631808000,1.72280810546875,0.1174316166818141,0.0448278605028986,-0.0224326714845374,0.0314600132405757,0.0071502961218357,-0.0065473904833197
1772807722651857200,1.742857177734375,0.1217886428475379,0.0564119153127074,-0.0523413962044753,0.034045185893774,0.0134136397391557,-0.0044051962904632
1772807722671906300,1.76290625,0.1595534330964088,0.0277490076690912,-0.0465042875488288,-0.0019342970335856,-0.0023612133227288,-0.0195248797535896
1772807722691955200,1.782955078125,0.1433902338027954,0.0376873410984873,-0.040141310121864,-0.0130556570366024,-0.0012299026129767,-0.0250493418425321
1772807722712004000,1.803004150390625,-0.0012356792747974,0.049118543434143,-0.0152118899181485,0.0027768348809331,-0.0012287786230444,-0.0146245844662189
1772807722732053000,1.823052978515625,0.0341331557482481,0.0686854136914014,-0.0010940240480937,0.0168652236461639,0.016540365293622,-0.0081043681129813
1772807722752101400,1.843101318359375,0.0476812041074037,0.0365527841106057,0.0020634718684479,0.0161165595054626,0.0072888140566647,-0.0138422530144453
1772807722772150300,1.863150390625,0.0027384850531816,0.0689484485417604,0.0245621029949747,0.0269504357129335,-0.0074369730427861,-0.0123654659837484
1772807722792199400,1.883199462890625,0.0584422520965337,0.079922847020626,0.0070559098608791,0.0397492758929729,0.0195872969925403,0.0036215872969478
1772807722812248300,1.903248291015625,0.0809212104082107,0.083048577825725,0.0074589559701271,0.0233038999140262,0.023101333528757,0.0025345890317112
1772807722832297200,1.923297119140625,0.1619786144167184,0.0525847582399845,0.0251037721236236,-0.0077298684045672,0.0144728934392333,-0.0098618660122156
1772807722852346400,1.943346435546875,0.1024415528208017,0.0266617969542741,-0.0033339484619908,-0.0156656019389629,-0.0050071999430656,-0.0178808588534593
1772807722872395300,1.963395263671875,0.1002443350374698,0.0755000621423125,0.0058499133382923,0.0253225713968276,0.0121716503053903,-0.0098547805100679
1772807722892444400,1.9834443359375,0.0813783065259456,0.0746370155721902,0.0019582579283043,0.0372143015265464,0.0086383474990725,0.0102194491773843
1772807722912493300,2.003493408203125,0.1148328323602676,0.0462491254776716,-0.0006475954548455,-0.0002380856312811,-0.0163609087467193,-0.0053940904326736
1772807722932542200,2.023542236328125,0.1225561200886964,0.0112657826408743,-0.0020859576948918,-0.027157275006175,-0.000785524607636,-0.0286028385162353
1772807722952591400,2.04359130859375,0.0618184505313634,0.0490001777514815,-0.016889138947986,-0.0052297371439635,0.0108645670115947,-0.0136209763586521
1772807722972640300,2.06364013671875,0.0328875396013259,0.0601695142805576,0.0172116123680025,0.0098260873928666,-0.0042825108394026,-0.0024489415809512
1772807722992689400,2.083689453125,0.1261678808450698,0.0492968226104974,0.004920286071673,-0.0103557473048567,-0.0089286938309669,-0.013980334624648
1772807723012738300,2.10373828125,0.1612380251824855,0.0503156442642211,-0.0174101306147873,-0.0262205526232719,0.0154174352064728,-0.0205194987356662
1772807723032787200,2.123787109375,0.1655786847352981,0.0828153535917401,-0.0329685324156656,-0.0224620345979928,0.0040982016362249,-0.0185751244425773
1772807723052836400,2.14383642578125,0.0833335322469472,0.0503673744514584,0.0786780163249932,-0.0052395933307707,-0.0468798130750656,-0.0077789556235075
1772807723072885200,2.16388525390625,0.0692594141870737,0.0717424631744623,0.0599043788046576,-0.0180570315569639,-0.0615127347409725,-0.0147719569504261
1772807723092934400,2.183934326171875,0.0417968222439289,0.0322273221269249,0.0375537047814577,-0.0320371650159359,-0.0057074227370321,-0.0195553246885538
1772807723112982300,2.203982177734375,-0.0497942507386207,0.0712479576557874,0.0318040186809375,-0.0144510678946971,0.0341950319707393,-0.0066528776660561
1772807723133031400,2.224031494140625,-0.0560550646990537,0.0727247522100806,0.060296519927401,0.0170099213719367,0.0236977133899927,0.011983735486865
1772807723153080300,2.244080322265625,0.0169821144610643,0.0253837398424744,0.0665781757464632,0.0242631733417511,-0.0098993629217147,0.0160622727125883
1772807723173129200,2.264129150390625,0.0577875875800847,0.0355658188998699,0.0702257019359618,0.0357236824929714,-0.0060778916813433,0.0159234590828418
1772807723193178400,2.284178466796875,0.0900719005912542,0.0277589445412158,-0.0064787310274317,0.0191774666309356,0.0073484252206981,0.0106057068333029
1772807723213227300,2.304227294921875,0.1478723476529121,-0.004052490261197,0.006993146822974,-0.0067753917537629,0.0126900225877761,0.0003701550886034
1772807723233276400,2.3242763671875,0.2168751567304134,0.000650865124166,-0.0199569472870789,-0.0378046371042728,0.011523125693202,-0.015466509386897
1772807723253325300,2.3443251953125,0.0058685997724533,-0.0509264696389436,-0.0635816973442211,-0.0192137733101844,-0.0413781404495239,-0.0214493963867425
1772807723273374200,2.364374267578125,0.0762047032803297,0.0704667441502213,-8.06457544676e-05,0.0396547801792621,-0.021576227620244,-0.0241302475333213
1772807723293423400,2.38442333984375,-0.0331277780979871,0.0197454416945576,-0.030933921315521,0.053269438445568,-0.0117741264402866,0.0065351221710443
1772807723313472300,2.40447216796875,0.0937315921425819,0.0516164977297186,-0.0176228783163242,0.0185563303530216,0.0359446890652179,0.0096000600606203
1772807723333521400,2.424521484375,0.0619768559634685,0.005768354268372,0.0004137319000437,-0.0208911653608083,0.027211869135499,0.0050553549081087
1772807723353570300,2.4445703125,0.0184697226703166,0.0255991361588239,0.0341209538538008,0.0063120843842625,0.013421194627881,-0.0039117280393838
1772807723373619200,2.464619140625,0.0394032051056623,0.0655392246201634,0.0347283634287305,0.041420679539442,0.0204048287123441,-0.001649419311434
1772807723393668400,2.48466845703125,0.1023521209716796,0.0333794147714972,0.0539652345466427,0.0328151993453502,-0.0002183479518862,0.0041107628494501
1772807723413717200,2.50471728515625,0.1927466776460409,0.0362613999485969,0.0389856920796446,-0.0028518463950604,0.0121723730117082,0.0093071069568395
1772807723433766400,2.524766357421875,0.2213338897049427,0.0198857269480824,0.0170587781601585,-0.0242819041013717,0.0196108799427747,0.0061034969985485
1772807723453815300,2.544815185546875,0.2371364389926195,0.0386561861306428,0.0229813548758625,-0.0300992261618375,-0.0070059243589639,0.0026125838048756
1772807723473864200,2.5648642578125,0.0427951856315135,0.0282166251808404,0.0652789479824714,-0.0004311236552894,-0.0524370670318603,0.0119591560214757
1772807723493913300,2.584913330078125,0.0626665917932987,0.0607610504329204,0.0182670031724497,0.019700288772583,-0.0365701206028461,0.0208927243947982
1772807723513962200,2.604962158203125,0.0465922398269176,0.0158446348637342,-0.0389809245729818,-0.0139839919283986,-0.0027452313806861,0.0135780032724142
1772807723534011400,2.625011474609375,0.123677817595005,0.0100517306759953,-0.063845408048015,-0.0504849255084991,0.0238564498722553,-0.0002390509471297
1772807723554060300,2.645060302734375,-0.0092845456957817,-0.0066997898995876,-0.0561882260920479,-0.0309818405658006,4.78414003737e-05,0.0045701065100729
1772807723574109400,2.665109375,0.0033142391145229,0.0353518838882446,-0.0671995590478181,0.0276150293648242,0.0066027105785906,0.0130031779408454
1772807723594158300,2.685158447265625,0.0408750312238931,-0.0030438977405428,-0.0637711372354067,0.0318462997674942,0.0086483526974916,0.0040303254500031
1772807723614207200,2.705207275390625,0.1867132427006959,-0.0316959917291998,-0.0895996982359327,-0.0241405796259641,0.0042262454517185,-0.0223299358040094
1772807723634256400,2.72525634765625,0.1499269420951604,-0.0553998156607151,-0.0595466148755513,-0.0625019520521164,-0.0037180741783231,-0.0435957461595535
1772807723654305300,2.74530517578125,0.0997328783839941,0.024959376950562,-0.0584505815334618,-0.0308491699397563,-0.0053003085777163,-0.0335846804082393
1772807723674354400,2.7653544921875,-0.0069832830160856,0.0305143807291984,0.0004293313279747,0.0086190989241003,-0.0282546356320381,-0.018407380208373
1772807723694403300,2.7854033203125,-0.0041132805377244,0.0293120192021131,0.0198054465197958,0.0232458412647247,-0.006200629286468,-0.0141280107200145
1772807723714452200,2.8054521484375,0.048111412218213,0.061987085096538,0.0628978249995969,0.0155299557372927,0.0137619813904166,-0.0082531496882438
1772807723734501400,2.82550146484375,0.0602133534222841,0.042494156858325,0.0688524042887613,-0.0104984939098358,0.0013768743956461,0.0021250527352094
1772807723754551000,2.845551025390625,0.0689116236627101,0.0770247874915599,0.0807158788281492,-0.0042418856173753,0.025630559772253,0.0101297730579972
1772807723774599700,2.865599609375,0.1537748496949672,0.1035723104164004,0.0270805520893074,0.0018151635304093,0.0350733175873756,0.0166603196412324
1772807723794648800,2.88564892578125,0.1126689323246478,0.0405912458464503,0.090062475175783,-0.0196067690849304,-0.0296200588345527,0.0047867726534605
1772807723814698000,2.905697998046875,0.111432084006071,0.055690907561779,0.0605447225348092,-0.0229644365608692,-0.044545941054821,0.0016912498977035
1772807723834745900,2.925745849609375,0.0274625919431447,0.0583487285941839,0.0217010327417403,-0.0091741047799587,-0.0145951677113771,0.0126653108745813
1772807723854796000,2.945796142578125,0.015906594184041,0.0671986822649836,-0.0266939091255888,-0.000286245951429,0.0307574868202209,0.0247330851852893
1772807723874844000,2.965843994140625,0.0226882171481847,0.0189028533905744,-0.0527476571841165,0.0069140940904617,0.0324873328208923,0.0389661379158496
1772807723894893000,2.98589306640625,0.0417155737012624,-0.0216518598377704,-0.013044610615354,0.0232561808079481,0.0240972731262445,0.0400796979665756
1772807723914941700,3.005941650390625,0.0925678090602159,-0.0300631298303604,-0.020752006654907,0.0229267105460166,-0.0023345523513853,0.0372925028204917
1772807723934990800,3.025990966796875,0.1508633461624383,-0.060724517814815,-0.0436320565807633,-0.0024581863544881,-0.0155497919768095,0.006950800307095
1772807723955040000,3.0460400390625,0.1386591136276722,-0.0554644053295254,-0.0622950002682395,-0.0341310761868953,0.001247189589776,-0.0299023315310478
1772807723975089000,3.0660888671875,0.1108855560392141,-0.0221413969203829,-0.0485984650827944,-0.0442158877849578,0.0147124752402305,-0.0318409763276577
1772807723995138000,3.086137939453125,-0.0710533118665218,0.050560266675055,0.0646190958342514,0.0184255130589008,0.0033906046301126,0.0141455484554171
1772807724015186700,3.106186767578125,-0.0293833308726549,0.1108043074965477,0.0277065202342346,0.071568064391613,0.004720049444586,0.0474963039159774
1772807724035235800,3.12623583984375,0.0647755467712879,0.0778384419620037,0.070250014393311,0.0458294488489627,0.0096415169537067,0.0329184085130691
1772807724055285000,3.146284912109375,0.2355892095506191,0.0320291692063212,0.044306393912062,-0.0286778043955564,0.0144641548395156,0.0181301087141037
1772807724075334000,3.166333984375,0.1553308469653129,0.0087321725100278,0.0547165278379805,-0.0460429936647415,0.0196015257388353,0.0171381328254938
1772807724095383000,3.186383056640625,0.0732066905081272,0.0861515122771263,0.0194641770677641,-0.00682901032269,0.0010730839567258,0.0261439234018325
1772807724115431700,3.206431640625,0.0481108276963233,0.0500683915048837,0.0186384120344184,0.0191493276506662,-0.0203532837331295,0.0296585299074649
1772807724135480800,3.226480712890625,0.0653261663913726,0.0474488566562533,0.0065735879703424,0.006394294090569,-0.0263502094894647,0.0228806715458631
1772807724155530000,3.246530029296875,0.0376812036186456,0.0458662636399269,-0.0002076879339292,0.012834083288908,-0.0033218562602996,0.0276309512555599
1772807724175579000,3.266578857421875,0.0125000006109476,0.0685755235761404,-0.0211039436314255,0.0245820432901382,0.023307142779231,0.0363624133169651
1772807724195628000,3.2866279296875,0.0451841265946626,0.0393973598867654,-0.0080532138025388,0.0033311685547232,0.0110505744814872,0.0376003943383693
1772807724215676700,3.3066767578125,0.1109112750023603,0.0122036480128765,-0.0365737173007801,-0.0198597256094217,0.0080559561029076,0.0245293769985437
1772807724235725800,3.326725830078125,0.067988663598895,0.0202411162570118,-0.0128350229852832,-0.001852500019595,-0.0035574873909354,0.0222721099853515
1772807724255775000,3.34677490234375,0.0526139843344688,0.042014848908782,-0.0375406626367941,0.0325892791152,-0.0009846973698586,0.0319099463522434
1772807724275823900,3.366823974609375,0.0828209065496921,-0.0026961072161793,-0.0295486775022,0.0227253679186105,0.010556686669588,0.0291686691343784
1772807724295873000,3.386873046875,0.1778752717286348,-0.0151613287746906,-0.049422476550471,-0.014331892132759,0.0132064251229166,0.0167940314859151
1772807724315921700,3.406921630859375,0.1507195537775754,-0.0268047125563025,-0.02621259188205,-0.0224723741412162,0.0001834860886447,0.0166605748236179
1772807724335970800,3.426970703125,0.0963484966427087,-0.0017787001103162,-0.0472656273101456,0.0020805050153285,-0.0092730186879634,0.0048597799614071
1772807724356020000,3.44702001953125,0.1039794299125671,0.0111652448758482,-0.0203669163274578,0.0130077227950096,0.002565327566117,-0.0112517327070236
1772807724376068900,3.46706884765625,0.0965969184458255,0.0145107559114694,0.0403689265989698,-0.0045099318958818,-0.015540013089776,0.0007010241970419
1772807724396118000,3.487117919921875,0.0424526558041572,0.0384945658281445,0.0552988212379626,-0.0058427969925105,-0.0072575956583023,0.021357936784625
1772807724416166700,3.507166748046875,0.0468126045793294,0.0396668244779109,0.0276921629153192,-0.00300258025527,0.0061872471123933,0.0275588929653167
1772807724436215800,3.5272158203125,0.08358955283463,0.0245551800638437,0.0217162668434903,-0.0122368251904845,0.0133406147360801,0.0067296689376235
1772807724456265000,3.547264892578125,0.0997878234416246,0.0244201555073261,-0.008588398391474,-0.0213870946317911,0.0033425535075366,-0.0076122633181512
1772807724476313900,3.56731396484375,0.0953629927366972,0.0286208220675587,-0.012093630033452,-0.0052378606051206,0.0024044725578278,0.0035802095662802
1772807724496363000,3.587363037109375,0.0617974077433347,0.0564221444457769,0.0435198831768706,0.0321792401373386,0.0008373949094675,0.0268704835325479
1772807724516412000,3.607411865234375,0.0601835428059101,0.0142281395778059,0.0081428648473694,0.018980348482728,-0.0421110726892948,0.026455108076334
1772807724536460800,3.627460693359375,0.0915583397567272,-0.0272433962345123,-0.0037105084231123,-0.0182205475866794,-0.0177366975694894,-0.0090042706578969
1772807724556510000,3.647510009765625,0.1098725796043872,-0.0161059161484241,-0.0837760518500581,-0.0311893448233604,0.0296131167560815,-0.021509300917387
1772807724576558800,3.667558837890625,0.0711941816419362,0.0301768193379044,-0.0615779928389936,0.0104797622188925,0.0380866080522537,0.0093507096171379
1772807724596608000,3.68760791015625,0.0138742115736007,0.0360395738914608,-0.0127597109930589,0.051921609789133,-0.0017219674773514,0.0353303626179695
1772807724616657000,3.707656982421875,0.1653933912962675,-0.0015089432582259,-0.0269398101780563,0.0416098944842815,-0.0120552014559507,0.0152014810591936
1772807724636705000,3.727705078125,0.2129483386754989,-0.0446805609866976,-0.0332117483207024,-0.0170906130224466,-0.0139584224671125,-0.025818383321166
1772807724656753700,3.747753662109375,0.1977338184088468,-0.0253881237566471,-0.0455977671631611,-0.0562208853662014,-0.000107154584839,-0.0402024239301681
1772807724676802800,3.767802734375,0.0296527954638004,0.0142027128756046,-0.0210860609148629,-0.0322466641664505,-0.0143435159698128,-0.0232047569006681
1772807724696852000,3.78785205078125,-0.052689972180128,0.0654632367745041,-0.0050275275721214,0.0383971408009529,-0.010253682732582,0.0026688701473176
1772807724716900900,3.80790087890625,0.0245797299832105,0.0462596468716859,-0.0146436433098278,0.0595228858292102,0.0176695510745048,0.0122316908091306
1772807724736950000,3.827949951171875,0.1307534550696611,-0.0293222483351826,-0.0186557650280185,0.0018203491345047,0.0121076386421918,0.0027857194654643
1772807724756999200,3.847999267578125,0.1818032588273286,-0.0759849230498075,0.0037564481903798,-0.0463702529668808,-0.0139663405716419,-0.0213672034442424
1772807724777048300,3.86804833984375,0.1213560966491699,-0.0727113082066178,-0.0174873605694621,-0.0289723966270685,-0.0185536462813615,-0.0314936637878418
1772807724797097200,3.88809716796875,0.0698117873728275,-0.0033989947885274,-0.0491745844703167,0.012038997374475,-0.0032366663217544,-0.0245221722871065
1772807724817146400,3.908146484375,0.0474608393549919,0.0071229837477207,-0.0494939343514852,0.02475549839437,-0.0092030996456742,-0.009281437844038
1772807724837195300,3.9281953125,0.0910527283221483,-0.0018038345515727,-0.0476044490767642,-0.0050220564007759,-0.0217275377362966,-0.0198784749954938
1772807724857244200,3.948244140625,0.0775455964952707,-0.0169897132456302,-0.0186558928921818,-0.0130074582993984,-0.0063641360029578,-0.0324049592018127
1772807724877293300,3.968293212890625,0.0338905791640281,0.0333390827611088,-0.0167766550168395,0.0115292249247431,0.0025893163401633,-0.0189526826143264
1772807724897342200,3.98834228515625,0.0381043974667787,0.0297916194126009,0.0323470029838383,0.0191573612391948,-0.0124241849407553,-0.0112458895891904
1772807724917391400,4.008391357421875,0.0716214671432971,0.018607085314393,0.0316640987535938,0.0006997452583163,-0.0363951623439788,-0.0196204148232936
1772807724937440300,4.028440185546875,0.0101537297457456,0.0153007372453808,0.0605683043397963,0.0097133480012416,-0.0344620309770107,-0.0166732184588909
1772807724957489200,4.0484892578125,0.010684475621581,0.0669990680396556,0.0089503818379715,0.0308702513575553,0.0151497721672058,-0.0035549998283386
1772807724977538300,4.068538330078125,0.0401098920702934,0.0281961669147014,-0.0039134836493059,0.0188298821449279,0.0381889455020427,-0.0021886313334107
1772807724997587200,4.088587158203125,0.1793126110553741,-0.0081660630598664,0.007397599438019,-0.0117917656898498,0.0241645090281963,-0.0134823359549045
1772807725017636400,4.10863623046875,0.0882365018576383,-0.0012795184165239,0.0720373910004273,0.0050857961177825,-0.0264963191002607,-0.0162600334733724
1772807725037685200,4.128685302734375,0.1125198792427778,0.080156071254611,0.0321453794645145,0.0519973300397396,-0.0226679518818855,-0.0047626597806811
1772807725057734100,4.148734130859375,0.133567927968502,0.0671186027660965,0.0220905800485983,0.0375500805675983,0.002810476347804,-0.0072323810309171
1772807725077783300,4.168783203125,0.2103250044345855,0.041610067500174,-0.0051013051943853,-0.0209331102669239,0.0214445572346448,-0.0097897313535213
1772807725097832200,4.188832275390625,0.1208458090394735,0.0105494510650634,0.0384203680807724,-0.0313798487186431,0.0001410208933521,-0.0010946094989776
1772807725117881300,4.20888134765625,0.0329226109147071,0.039321664302051,0.0504877128954976,0.0062006814405322,-0.0228474177420139,0.0015153819695115
1772807725137930200,4.22893017578125,0.0821820241242647,0.0676683456033468,-0.0091298665907233,0.029342345893383,-0.0016176643548533,-0.0098087079823017
1772807725157979100,4.248979248046875,0.1643599565953016,0.0241045136868953,-0.0055767406864091,-0.0011705916840583,0.0076799490489065,0.0006436563562601
1772807725178028300,4.2690283203125,0.1660001250177621,-0.0143935592725872,-0.0082316025767475,-0.0447688065469265,-0.0018495341064408,0.00993855856359
1772807725198077200,4.2890771484375,0.1551812093615532,-0.022555238418281,-0.0257359508136287,-0.0595780201256275,-0.0204847361892461,-0.0035469946451485
1772807725218126300,4.309126220703125,0.0594751022756099,-0.0403512996107339,-0.0050717868389561,-0.0363105572760105,-0.0312773250043392,-0.0223270207643508
1772807725238175200,4.32917529296875,-0.0381932447940111,0.032033260859549,-0.024261750075221,0.0276287458837032,-0.0118138175457715,-0.0070558446459472
1772807725258224000,4.34922412109375,-0.018802900147438,0.0669394468069076,-0.0680682681737467,0.0494115352630615,0.0156560968607664,0.0177682004868984
1772807725278273300,4.369273193359375,0.0697311233520507,0.0171022337093949,-0.0292719063874334,0.011344401165843,0.0344006232917308,0.0135103426873683
1772807725298322200,4.389322265625,0.2021153944939374,-0.0209653388783335,-0.030645605893433,-0.0422457233071327,0.0229217819869518,-0.0088274367153644
1772807725318371300,4.409371337890625,0.1715238568753004,-0.0160354812607169,-0.0004196867167949,-0.0502347201108932,-0.0085840802639722,-0.0221826042979955
1772807725338420500,4.42942041015625,0.0739788439244031,0.029892157177627,0.0272459900503978,-0.0185432359576225,-0.0343885123729705,-0.0185474380850791
1772807725358469000,4.44946923828125,0.0293371536433696,0.0747962977871298,-0.0180477709311991,0.0092055276036262,-0.0256798323243856,-0.006831872742623
1772807725378518300,4.469518310546875,0.0697445673555135,0.0740858114302158,-0.0403685064738616,0.004341039340943,0.0095506822690367,-0.000157103408128
1772807725398567200,4.489567138671875,0.1024818848311901,0.0289659822434186,-0.0392150255898013,-0.0170966498553752,0.010529245249927,0.0049472101964056
1772807725418616300,4.5096162109375,0.0879845729231834,0.0087447397306561,-0.012330671926029,-0.0241147466003894,-0.0065360567532479,0.0011696103028953
1772807725438665500,4.52966552734375,0.043932080706954,0.0069520110949873,0.0014345993803814,0.0004932621959596,-0.0222508050501346,-0.0082652643322944
1772807725458714400,4.54971435546875,0.0638952568054199,0.0220773917734622,-0.0279724411614239,0.018016017973423,-0.0197408515959978,-0.0093847271054983
1772807725478763300,4.56976318359375,0.0508183330893516,-0.0073711132898926,-0.0285750832296907,-0.0003954786807298,-0.0117311552166938,-0.0097974706441164
1772807725498812200,4.589812255859375,0.1025946975558996,0.0087120065048336,-0.0404420831667259,-0.0071006081998348,0.0036218343302607,-0.0162298083305358
1772807725518861300,4.609861328125,0.1219979016840457,-0.0159288060158491,-0.0470235439162701,-0.0075924936681985,-0.0053651533089578,-0.0132972449064254
1772807725538910500,4.629910400390625,0.1024941597908735,-0.0067982818379998,-0.0236421934047713,0.0004526039119809,-0.0036534615792334,-0.0199256129562854
1772807725558959400,4.64995947265625,0.2006236946314573,0.0037158056527376,-0.0385573288660496,-0.0148668736219406,-0.0134410290047526,-0.0267463084310293
1772807725579007500,4.670007568359375,0.0890513253718614,-0.0108367435738444,0.0137184730226174,-0.0394730605185031,-0.0425281561911106,-0.037415113300085
1772807725599056100,4.69005615234375,-0.0067769467890262,0.0313739201679825,0.0419175625467672,-0.0132511807605624,-0.0180116817355155,-0.020236425101757
1772807725619106300,4.710106201171875,-0.0493488450586795,0.0551654223829507,0.0402613928375765,0.0118624279275536,0.0219554416835308,-0.0046766400337219
1772807725639154200,4.730154296875,-0.0661345601648092,0.0352288420304656,0.0532681008616462,0.000355354277417,0.0230849310755729,-0.0085590323433279
1772807725659203300,4.750203369140625,0.0310562325209379,0.0347439811229705,0.055542913925834,-0.0046379826962947,0.0214707218110561,-0.0111627206206321
1772807725679252500,4.77025244140625,0.0814759216815233,0.0133569097012281,0.0510312451876699,-0.0114373881369829,0.0214756447821855,-0.009784541092813
1772807725699301000,4.790301025390625,0.1427607037276029,0.0361830740153789,0.0358872328739613,-0.0103976009413599,0.0178996883332729,-0.0090500358492136
1772807725719350300,4.810350341796875,0.1578892992764711,0.0278054140314459,0.0250191077811643,-0.0070611485280096,0.01080631185323,-0.0035972343757748
1772807725739399200,4.830399169921875,0.1620247916460037,0.0165422617390751,-0.0070953285558149,-0.0164011642336845,0.0068158223293721,-0.0080421082675457
1772807725759447600,4.850447509765625,0.1716390076875686,0.0159206227093935,0.0040370004311203,-0.0301991812884807,-0.0275515727698802,-0.0249492265284061
1772807725779496400,4.870496337890625,-0.0267933143794536,0.0267830852463841,0.0351618777414783,-0.0033289948478341,-0.0353920198976993,-0.0189055390655994
1772807725799545600,4.890545654296875,0.0067734396576881,0.0883279795333743,-0.0560722715621814,0.0269301086664199,0.0188059154897928,-0.0041727432981133
1772807725819594500,4.910594482421875,0.0274351194143295,0.0376113532528281,0.0195416992833837,0.0104162450879812,0.0464182794094085,-0.0060390708968043
1772807725839643400,4.930643310546875,0.0351484702706337,0.0059393269211053,0.0382291198249906,-0.0327631384134292,0.0012812884524464,-0.0103395953774452
1772807725859692500,4.950692626953125,-0.0409738154232501,-0.0021069091513752,0.0617638342672958,-0.0062508815899491,-0.006006518844515,-0.008083501830697
1772807725879741400,4.970741455078125,-0.003739186528325,0.0384498499035835,0.0124978817190974,0.0279892906546592,0.0156628042459487,-0.0055024805478751
1772807725899790600,4.99079052734375,0.0756909085392951,0.0334676775768399,0.0013263897655531,0.023804796859622,0.0398699827492237,0.0039785765111446
1772807725919839700,5.01083984375,0.1682090332388877,0.037760698595643,-0.0332039120741188,-0.0073500634171068,0.0388717278838157,0.001768434420228
1772807725939888400,5.030888427734375,0.1752051757365465,0.0348649771541357,0.0006409647846594,-0.004830440506339,0.0100195659324526,-0.0019940324127674
1772807725959937500,5.0509375,0.170455935382843,0.0485804910346865,-0.0212130482953973,0.0035049878060817,-0.0142196686938405,-0.008497392758727
1772807725979986400,5.070986328125,0.1798252367526292,0.022124445785582,-0.0340728038631379,-0.0243866089731454,-0.0159175023436546,-0.0248898174613714
1772807726000035600,5.09103564453125,0.1748743363469839,0.0147340432733297,-0.0382579988596029,-0.0619977228343486,-0.0186511967331171,-0.0379345491528511
1772807726020084700,5.111084716796875,0.0475543628573417,-0.0024073534026741,-0.0204772996330633,-0.0526749715209007,-0.0078736906871199,-0.0313956514000892
1772807726040133400,5.13113330078125,-0.0013391396492719,0.0428121367663145,-0.0530560838124714,0.0024689736310392,0.0211041662842035,-0.0254884958267211
1772807726060182500,5.1511826171875,-0.0331125805288553,0.0042404140487313,0.0113360896644182,0.0146619006991386,-0.0129142757505178,-0.0234369132667779
1772807726080231400,5.1712314453125,0.0277741421103477,-0.0200137372419238,0.0130879930993542,0.0062363245524466,-0.0100471479818224,-0.0201363619416952
1772807726100280600,5.191280517578125,0.0270756384521722,0.0052805707514286,0.0566643557038158,0.0032676958944648,0.0027444188017398,-0.0064926128834486
1772807726120329700,5.211329833984375,0.0388292046099901,0.0124316115498542,0.0430843413038179,0.0077365613542497,0.0083057098090648,0.0052893571555614
1772807726140378400,5.23137841796875,0.0829483323216438,0.0428837406978011,0.0318798238635063,0.0026230800431221,0.009732118807733,-0.0008523194119334
1772807726160427500,5.251427490234375,0.115158411052823,0.0420090036898851,0.0321993564077653,0.0011697050649672,-0.0001122145913541,-0.0072713731788098
1772807726180476400,5.271476318359375,0.1111883383780717,0.0502732664272189,0.0593136829025112,0.0124125918373465,-0.010627013631165,0.0076135247945785
1772807726200525600,5.291525634765625,0.1285188278853893,0.0817968241989612,-0.0096428941467776,0.0032294818665832,-0.0048974240198731,0.0132067743688821
1772807726220574700,5.31157470703125,0.1989566382020711,0.0439671520203351,-0.0062161528347991,-0.0248150676488876,0.0115474220365285,0.0035719743464142
1772807726240623400,5.331623291015625,0.1537964770048856,0.0118231242626905,0.0061932286169379,-0.0476376488804817,-0.0130199939012527,-0.0080549679696559
1772807726260672500,5.351672607421875,0.057216509693861,0.0155053199067711,0.0244042638184502,-0.0184287186712026,-0.032902255654335,-0.0013064770027995
1772807726280721400,5.371721435546875,-0.0084667995721101,0.045718671862781,0.0051257455158978,0.0161524228751659,-0.0168040264397859,0.0211984403431415
1772807726300770600,5.3917705078125,0.0284323137581348,0.0140267717868089,-0.0186928456353954,0.0065488000400364,0.0048510013148188,0.0183428116142749
1772807726320819700,5.41181982421875,0.083033672517538,-0.0216512753158807,-0.046257929838635,-0.0167046319693326,0.0151528194546699,-0.0007529417052865
1772807726340868400,5.431868408203125,-0.0341541985362768,-0.0300569923505187,0.0304136785673908,-0.002673857845366,-0.0191266722977161,-0.0045987395569682
1772807726360917500,5.45191748046875,0.0370826532036066,0.0273354584321379,-0.0064873344589956,0.0350781381130218,-0.0118105085566639,0.008216475136578
1772807726380966400,5.47196630859375,0.0300648833960294,-0.0060147302448749,-0.0016406433464959,0.0254104621708393,0.0065901316702365,0.0142265558242797
1772807726401015600,5.492015625,0.165232063254714,-0.001991758339107,-0.021821900908742,-0.0096119698137044,0.0267300214618444,-0.0012152506969869
1772807726421064700,5.512064697265625,0.1871668316870927,-0.0034136078357696,-0.0267104218689724,-0.0256511718034744,0.0134923700243234,-0.018079400062561
1772807726441113300,5.53211328125,0.0808493142157793,0.0410085944756865,0.023819175673183,-0.0063393875025212,-0.0378355756402015,-0.0242591239511966
1772807726461162500,5.55216259765625,0.1006739586263895,0.0907595905944705,0.0208135275837965,0.0363913401961326,-0.0190489497035741,0.0051950719207525
1772807726481211400,5.57221142578125,0.0896387698709964,0.0634334845125675,-0.0015188070651143,0.012541402131319,-0.0139702390879392,0.0140680037438869
1772807726501260500,5.592260498046875,0.1030436103671789,-0.0108282680064439,0.0032393837800249,-0.0415681712329387,-0.0068912305869162,-0.0042909509502351
1772807726521309700,5.612309814453125,0.0310030410289764,-0.0383098569110035,0.0097722196148708,-0.0338914319872856,-0.00863887835294,-0.0162066593766212
1772807726541358600,5.632358642578125,-0.0713309597641229,0.0049587914511561,-0.0235720507780089,0.02948509901762,0.0040082586929202,-0.003432520199567
1772807726561407500,5.652407470703125,-0.040175943043828,0.0267936066403985,-0.0005839373677968,0.0571801513433456,0.0193426236510276,0.0117841502651572
1772807726581455400,5.672455322265625,0.0774988347440958,-0.0169856215924024,-0.0300158931551501,0.0334845036268234,0.019613878801465,0.0128656644374132
1772807726601504500,5.69250439453125,0.1601724417775869,-0.0093403675362467,-0.0264375597443431,0.0019588863942772,0.0176632143557071,-0.0079374723136425
1772807726621553400,5.712553466796875,0.1814081220299005,0.0182996268004178,-0.0325786745815537,-0.0132514899596571,-0.0085587380453944,-0.0251371525228023
1772807726641602600,5.7326025390625,0.1193926876217126,0.0515033927440643,0.0302748546185903,-0.0042406865395605,-0.0353368856012821,-0.0231771450489759
1772807726661651700,5.752651611328125,0.1319943950414657,0.0961713865101337,-0.0084581778742372,-0.0004947786219418,-0.0124005731195211,-0.0077190985903143
1772807726681700400,5.772700439453125,0.058018473726511,0.0827089706078171,-0.0089077117400243,-0.0021702111698687,0.0129619678482413,0.0114963203668594
1772807726701749500,5.79274951171875,0.0628115532219409,0.0486500491395592,0.0109708182822912,0.0034514961298555,0.0099077327176928,0.0081190653145313
1772807726721798400,5.81279833984375,0.0419277551472187,0.0282633869320154,-0.0014066884601488,0.0027734597679227,-0.0152009492740035,-0.0028018681332468
1772807726741847600,5.83284765625,0.1079471644997596,0.0103442838817834,0.0131063324736431,-0.0014032637700438,0.0033565321937203,-0.0106462454423308
1772807726761897000,5.85289697265625,0.0661976885288953,0.0270619021877646,-0.0105004973568022,-0.003164947964251,-0.0012625845847651,-0.0017607654444873
1772807726781945900,5.87294580078125,0.0518365702211856,0.0384668010383844,-0.0378507880318909,-0.001048307865858,-0.0035076551139354,-0.0002933740615844
1772807726801995000,5.8929951171875,0.0473404278457164,0.0294768543750047,-0.0556096955517306,0.0024165068753063,-0.0067752618342638,-0.0092529579997062
1772807726822044200,5.913044189453125,0.1061275478571653,0.0333218393653631,-0.0493527175161987,0.0021726521663367,0.0172508563846349,-0.0222313348203897
1772807726842093000,5.933093017578125,0.0855249048113823,0.0288762581333518,-0.0305115677176043,0.0007940644863992,-7.76888482505e-05,-0.0146504435688257
1772807726862142200,5.95314208984375,0.1171025308579206,0.0293701791301369,-0.0065170537438243,-0.001569710439071,-0.014048496261239,-0.0119990538805723
1772807726882190800,5.97319091796875,0.1467243466615676,0.0193769006431102,-0.0088627400871366,-0.0175552479922771,-0.0110845007002353,-0.0176170319318771
1772807726902240000,5.993239990234375,0.1168885958462953,0.0192573659166693,-0.0113495884668081,-0.0224367771297693,0.0031514370348304,-0.0309682004153728
1772807726922289200,6.0132890625,0.0423269835978746,0.0455558825165033,0.0252320564121007,-0.0088677965104579,-0.0056016617454588,-0.0205703489482402
1772807726942338000,6.033338134765625,0.0463707060307264,0.0614653993099927,0.042354857985489,0.0095620807260274,-0.0027324482798576,-0.0024443729780614
1772807726962387200,6.05338720703125,0.0603302578002214,0.0474862660571932,0.0509403155012056,-0.0095564424991607,0.0029192615766078,0.0028600906953215
1772807726982435800,6.073435791015625,0.1056628529548645,0.0254363468125462,0.0104560371605679,-0.0272787138819694,0.0155495703220367,-0.0128909088671207
1772807727002485000,6.093485107421875,0.0320282924234867,0.0139008073195815,0.0781483116287738,-0.0169571060687303,0.0041856649331748,-0.0135966166853904
1772807727022534100,6.1135341796875,-0.0220008194059133,0.0362327583760023,0.0833823763573542,0.0217836368829011,-0.0161556284874677,0.0137518867850303
1772807727042583000,6.1335830078125,-0.0120399818837642,0.0442380779162049,0.047349305271916,0.0287227686494588,-0.0054876017384231,0.0265240631997585
1772807727062632200,6.153632080078125,0.0798316616058349,0.0137421096265316,-0.0178542211204767,0.0022711006458848,0.0336460545659065,0.0057218871079385
1772807727082680800,6.173680908203125,0.1279927581846714,-0.0011605682119727,0.000620378654357,-0.0150280836969614,0.0456246696412563,-0.0193923693150281
1772807727102730000,6.19372998046875,0.0494938064873218,0.0130538351014256,0.0207176659938879,-0.0027276091277599,-0.0014294243883341,-0.008870393037796
1772807727122779100,6.213779052734375,0.1110515602558851,0.0484349450841546,0.0456016030880622,0.0284734982997179,0.0017024003900587,0.0214597955346107
1772807727142828000,6.233828125,0.142723294326663,0.0328185660183429,-0.0002206570133566,0.0069609708152711,0.0019772911909967,0.0153063163161277
1772807727162877200,6.253877197265625,0.1195645370572805,0.0100683895498514,0.0287610707884654,-0.031382780522108,0.0084255179390311,0.0022039031609892
1772807727182925800,6.27392578125,0.0069476271808147,-0.0237540928140282,0.0074503525385633,-0.0283500161021947,0.0047722477465868,0.0048417854122817
1772807727202975000,6.29397509765625,-0.0262286662340164,0.020886136162281,0.0103594449182972,0.0225088596343994,0.0016036704182624,0.0154883256182074
1772807727223024000,6.314024169921875,-0.0175637137413024,0.0225730663359165,0.0050593292161822,0.056804958730936,0.014999552629888,0.0319938696920871
1772807727243073000,6.334072998046875,0.1217015490859746,0.0309296835318207,-0.0216838258786126,0.0482208356261253,0.0278762765228748,0.0376622788608074
1772807727263122200,6.3541220703125,0.1854875002980232,-0.0289046074450016,0.0068787083967588,-0.0013556838966906,0.0030856030061841,0.0175617635250091
1772807727283170800,6.3741708984375,0.2201449721813201,-0.0274801275998353,-0.0126055433446541,-0.0370082184672355,-0.018549321219325,-0.0111062880605459
1772807727303220000,6.394219970703125,0.1048614734441042,-0.0085498016804456,-0.0168126579119823,-0.0316338315606117,-0.0287094470113515,-0.0222159959375858
1772807727323269000,6.41426904296875,-0.0023544541716575,0.0547013120025396,0.0031950331816449,0.02173463255167,-0.0146745070815086,0.0022149162832647
1772807727343317000,6.43431689453125,-0.0018739771783351,0.0680363021329045,-0.0115146063027903,0.042286068201065,0.0078524593263864,0.0303753744810819
1772807727363366100,6.4543662109375,0.0499327824264764,0.0087719199985265,0.0076713931444101,0.0118289636448025,0.023256542161107,0.0172712747007608
1772807727383415000,6.4744150390625,0.108808165243268,-0.039067981801927,0.0090609295403584,-0.0233425181359052,0.0066711329855024,0.0057398239150643
1772807727403464200,6.494464111328125,0.0832826788425445,-0.0069990651071071,0.0469444690643809,0.0062148869037628,-0.0104910656809806,0.0104190558195114
1772807727423512800,6.514512939453125,0.076517422491312,0.0144040806666016,0.0346880314183421,0.024510221555829,-0.0190189778804779,0.011980440467596
1772807727443562000,6.53456201171875,0.113601244738698,-0.0022413491860032,0.0112048097012564,0.0105908587574958,-0.0282381363213062,0.0082236398011446
1772807727463611100,6.554611083984375,0.0807487764507532,-0.0040893151402473,-0.0165713782357051,-0.0001705759204924,-0.0003812355571426,0.0054159630089998
1772807727483660000,6.574659912109375,0.0657990446001291,0.0279527135476469,-0.0462513174347579,0.0057512270286679,0.0319683849811553,0.0037218476645648
1772807727503709200,6.594709228515625,0.0636982729285955,0.0268470903933048,0.0006708119336515,0.0193584281951189,0.0234843622893095,0.0120434844866395
1772807727523757800,6.6147578125,0.0665372957468032,0.0513829812347888,0.0399677071206271,0.0254500955343246,-0.0103429211303591,0.0160615257918834
1772807727543807000,6.634806884765625,0.1613783104360103,0.0558878914386034,0.0094947909129783,0.0039919884875416,-0.0202692430466413,0.0087883025407791
1772807727563856100,6.654856201171875,0.2460866381675004,0.043913376006484,0.0204760209914296,-0.0349840968847274,-0.0028987654950469,-0.0025537670589983
1772807727583905000,6.674905029296875,0.0992149919897317,0.0442789944484829,0.0513385210385546,-0.0296332146972417,-0.0126666855067014,0.0154778026044368
1772807727603954200,6.6949541015625,0.103809918564558,0.0927495953679084,-0.0020525851482525,0.0041497349739074,-0.0103263752534985,0.0308486334979534
1772807727624002800,6.7150029296875,0.0194376909196376,0.0484609563082456,0.0335390257799997,0.0026640866417437,-0.0136897852644324,0.0228106975555419
1772807727644052000,6.735052001953125,0.1090267764300107,0.0154299165830016,0.0088113021608442,-0.0280530303716659,6.55225594528e-05,0.0146325305104255
1772807727664101000,6.75510107421875,0.0519715947777032,-0.0041226328879594,0.0167012151604518,-0.0242526549845933,0.0119964955374598,0.0221541542559862
1772807727684150000,6.77514990234375,-0.0109223760306835,0.0395768081068992,0.0063717635216191,0.005808088928461,0.0138057824224233,0.0312214456498622
1772807727704199200,6.79519921875,0.0532090276181697,-0.0084784900099039,-0.0145986899232491,0.0115394294261932,0.0206304639577865,0.0228372551500797
1772807727724247800,6.815247802734375,0.1321264969885349,-0.0204424840480089,-0.0092255820501595,-0.0113893281668424,0.0177519805729389,0.0072562741115689
1772807727744297000,6.835296875,0.0871954683721065,-0.0116702717885375,-0.0189533780014142,-0.013150910846889,0.0028707920573651,0.0050087291747331
1772807727764349400,6.855349365234375,0.0732581284344196,0.0609036737740039,-0.0207413939293473,0.0307160466909408,0.0211365912109613,0.029958389699459
1772807727784398600,6.875398681640625,0.1880710870504379,0.0513619384467601,-0.021355397641845,0.0148983439430594,0.0254309102892875,0.0296618565917015
1772807727804447500,6.895447509765625,0.2468909402877092,-0.0292424610972404,-0.0127075058817863,-0.0545037686824798,-0.0212810337543487,0.0054292366839945
1772807727824496400,6.915496337890625,0.1692494822025299,-0.0361962257578969,0.0005932531854137,-0.0724452584981918,-0.0214011538773775,-0.0127146709710359
1772807727844545500,6.935545654296875,-0.0066343234479427,-0.001746405275911,-0.0186067930534482,-0.0294083580374717,-0.0270260274410247,-0.0025007068179547
1772807727864594400,6.955594482421875,-0.0614046090334653,0.0714908265009522,0.0018697028620168,0.040862075984478,0.0185300726443529,0.01712660305202
1772807727884643600,6.9756435546875,0.0282739083260297,0.0543316019073128,-0.0140367086589336,0.0390893816947937,0.0349214039742946,0.0434889644384384
1772807727904691500,6.99569140625,0.1687128911077976,-0.0333382059782743,0.0141946026343852,-0.0314295701682567,0.0032409592531621,0.0293829385191202
1772807727924740600,7.01574072265625,0.1953214965701103,-0.0635403058879077,0.0015228256531059,-0.0693896487355232,-0.0212953258305788,-0.0054586282931268
1772807727944789500,7.03578955078125,0.069581485748291,0.0169765615031123,0.011963665244542,-0.0212145745754241,-0.0272432044148445,-0.004219876602292
1772807727964838400,7.05583837890625,-0.0160585698753595,0.0890207841031253,-0.0472891360498964,0.0147881787270307,-0.0149898743256926,0.013050127774477
1772807727984887600,7.075887451171875,0.0375403338432312,0.0584054272174835,-0.0549046525549143,0.0040950956754386,0.0195092726498842,0.0127830225974321
1772807728004936400,7.0959365234375,0.0769534758210182,0.0165467917837202,-0.014209800203517,-0.0183138065040111,0.0257370751351118,0.0168541967868804
1772807728024985600,7.115985595703125,0.1034364090770482,-0.0109220837697386,-0.0070791811386123,-0.0194876883178949,-0.0090774931013584,0.035394225269556
1772807728045034500,7.136034423828125,0.1266314067035913,-0.0354671808309853,-0.0032613764161244,-0.0095442486926913,-0.0224082842469215,0.0194026641547679
1772807728065083400,7.15608349609375,0.1434533621668815,-0.0501361960440874,-0.0630096696099266,-0.0155856674537062,-0.01329614687711,-0.0110675264149904
1772807728085132500,7.176132568359375,0.0915916575044393,-0.0565945784032344,-0.0563587968859821,-0.0210178904235363,-0.0206551682204008,-0.0166615694761276
1772807728105181400,7.196181396484375,0.0291805017769336,-0.0201470082327723,-0.0569326512511819,-0.007401458453387,-0.0207640379667282,-0.0039249802939593
1772807728125230600,7.216230712890625,0.0328232421934604,-0.0018913667045533,-0.0804712746836245,0.0085601489990949,-0.0147851202636957,-0.019306281581521
1772807728145279500,7.236279541015625,0.0203846163809299,0.0049016544364392,-0.0555546043636277,0.0046615926548838,0.0070432252250611,-0.0361917316913604
1772807728165328400,7.256328369140625,0.0986222867935895,0.0341338864006102,-0.0454851188352331,-0.0034690808970481,0.0217481926083564,-0.0262709017843008
1772807728185377500,7.27637744140625,0.021277765828371,0.022680326102674,0.0370845163671299,-0.0030953139066696,-0.0051384596154093,-0.0083870403468608
1772807728205426400,7.296426513671875,0.0825970346659421,0.0619658961780369,0.0210728178407996,0.0195794254541397,-0.0071393377147614,-0.0024124775081872
1772807728225475600,7.3164755859375,0.080049688270688,0.0273069629900157,0.0086070848256349,0.0209570322185754,-0.0117602674290537,-0.0136167984455823
1772807728245524500,7.3365244140625,0.1566518664360046,0.0258801450572907,0.0095805329676717,-0.0072830035351216,0.0071898088790476,-0.0274903327226638
1772807728265573400,7.356573486328125,0.167423435819149,0.0051171968832612,-0.0041855785889551,-0.0333471335470676,0.0193462073802948,-0.0219271555542945
1772807728285622500,7.37662255859375,0.139621821179986,0.0145225924797356,0.039518502048403,-0.029893722385168,-0.0113783935084939,-0.0146747203543782
1772807728305671400,7.39667138671875,0.0419160647094249,0.0470753471687436,0.0380844871899113,0.0019842740148305,-0.0458910390734672,-0.0139684285968542
1772807728325720600,7.416720458984375,0.0886035816043615,0.0302395093105733,0.0146042063485831,0.0106218364089727,-0.0127906445413827,-0.0237570516765117
1772807728345769500,7.43676953125,0.1015682771176099,0.0187532157868146,0.0010410700181499,-0.022633196786046,0.0176270026713609,-0.034493114799261
1772807728365818600,7.456818603515625,0.003140636113286,0.0274981016479432,0.0404616281174123,-0.0347260273993015,-0.0139235761016607,-0.0311671420931816
1772807728385867500,7.476867431640625,-0.0559679709374904,0.08672741246894,0.040905134101212,0.0176522750407457,0.000242518435698,-0.0078990794718265
1772807728405915400,7.496915283203125,0.0163636903017759,0.0847583043530583,-0.0029387568656355,0.0439182221889495,0.0212182998657226,0.0027771401219069
1772807728425964500,7.516964599609375,0.1350257255613803,0.0027085283063352,0.021109679252468,-0.0078506506979465,0.0073355929926037,-0.0134387109428644
1772807728446013400,7.537013427734375,0.1460451322257518,-0.0276949393942952,0.0357389835096895,-0.0464675948023796,7.98693508841e-05,-0.0292743779718875
1772807728466062600,7.5570625,0.1099053128302097,-0.0035924715340137,0.0110694198185577,-0.0334112718701362,0.0034420159645378,-0.0203649662435054
1772807728486111700,7.57711181640625,0.0757587130784988,0.0533097115136683,-0.0364525751391425,0.0076821544207632,0.0042495001107454,-0.0143210832029581
1772807728506160400,7.597160400390625,0.0908428849637508,0.0568323326818644,-0.0211818677058443,0.018221067264676,-0.0236288867890834,-0.0156137216836214
1772807728526209500,7.61720947265625,0.0431324547618627,0.0298791515655815,-0.0035110768608748,0.0182714965194463,-0.0214656945317983,-0.0127132665365934
1772807728546258400,7.637258544921875,0.0453343487203121,0.0415086529523134,0.0054404740208759,0.005677985958755,0.0110869342461228,-0.0143041815608739
1772807728566307600,7.6573076171875,0.0489139607727527,0.0308485811196267,0.0070767699858173,-0.0174504984170198,0.0141595592722296,-0.0219576824456453
1772807728586356700,7.677356689453125,0.0279985985159873,0.0321222543172538,0.0277393630579113,-0.0181522499769926,0.0146807972341775,-0.0232418291270732
1772807728606405400,7.6974052734375,0.0135094699144363,0.0574263530522584,0.0718395668733865,0.0091824391856789,0.0004337567952461,-0.0096857277676463
1772807728626454500,7.71745458984375,-0.0161444945931434,0.0581437075413763,0.0549863760216161,0.050321839749813,0.0081150280311703,0.0131014734506607
1772807728646503400,7.73750341796875,0.0947311245739459,0.0519295092016458,0.0204404016887769,0.0348424836993217,0.0122429998591542,0.0125521421432495
1772807728666552600,7.757552490234375,0.2055085440635681,0.0097898648694157,-0.0050840252660214,-0.0179763901978731,0.0204612128436565,-0.0061455508694052
1772807728686601700,7.777601806640625,0.1749105767041444,-0.0060946636132895,-0.0008097820129245,-0.0303888879716396,-0.0044921450316905,-0.0122440122067928
1772807728706650400,7.797650390625,0.0804956784725189,0.0402810108534991,0.0011381006518378,0.019215453416109,-0.0128908846527338,0.0097993267700076
1772807728726699500,7.817699462890625,0.0599485650062561,0.0446853832922875,-0.0309760799568146,0.0322699509561061,-0.0193448755890131,0.0105802956968545
1772807728746748400,7.83774853515625,0.1391886904597282,0.011902326978743,-0.0655468964699655,-0.015359129756689,-0.0058834077790379,-0.0139360232278704
1772807728766793200,7.857793212890625,0.1660088928461074,-0.0180406836032867,-0.0848315887849777,-0.0529035218060016,0.0186141729354858,-0.0294425170868635
1772807728786842400,7.87784228515625,0.0194996502399444,0.0104699560880661,-0.0247858470145612,-0.0256525427103042,0.0023953656200319,-0.0267476215958595
1772807728806891300,7.897891357421875,-0.0388859032332897,0.0470497743360698,0.0204913646910339,0.0344273895025253,-0.017463868483901,-0.0005623223260045
1772807728826940400,7.9179404296875,0.0289946238160133,0.0462985175773501,0.0016818521397188,0.0288243107497692,-0.0079907672479748,-0.0025555375032126
1772807728846988300,7.93798828125,0.1502583660066127,0.0182968503214418,-0.0153488141708076,-0.0175755340605974,0.0140378195792436,-0.0240542963147163
1772807728867037200,7.958037109375,0.0808890617042779,0.0187839031860232,-0.0018998422719538,-0.0278750043362379,0.0169565174728631,-0.0208918917924165
1772807728887086000,7.978086181640625,0.0727455027371645,0.0621883067570626,0.0311088394910097,0.0065809320658445,0.0017965313745662,-0.0027104699984192
1772807728907135200,7.99813525390625,0.0548544567376375,0.041793753504008,0.0057965939821675,0.013857620768249,-0.0101096285507082,-0.0012072096578776
1772807728927184400,8.018184326171875,0.1633212611973285,0.0322645853973925,0.0047570218013599,-0.0141704604029655,-0.0019241137197241,-0.0167338550090789
1772807728947233300,8.0382333984375,0.1148579668015241,0.0042389527440071,0.0484828393464907,-0.0260016918182373,-0.0119805801659822,-0.0115478672087192
1772807728967282200,8.0582822265625,0.093871292874217,0.0550897267982363,0.0189068354459479,-0.0032624253071844,-0.00894914008677,-0.0048765549436211
1772807728987331300,8.078331298828125,0.0623550416260957,0.0391426544733345,0.0260175807666033,0.0045478329993784,-0.0056860949844121,-0.0151868257671594
1772807729007380200,8.098380126953124,0.0227834942162036,0.0174390644483268,0.011183182391338,-0.0010176098439842,-0.0202232375741004,-0.0158960167318582
1772807729027429400,8.118429443359375,0.0501373650878667,0.046747284258157,0.0051885816190391,0.0140282791107892,0.0146695999428629,-0.0051816594786942
1772807729047478300,8.138478271484376,0.0229091664224863,0.0371612713977694,-0.0160174341473728,-0.0068604461848735,0.0020680667366832,-0.008243172429502
1772807729067527200,8.158527099609374,0.0915215148776769,-0.0154018595322966,0.0456193762067705,-0.0275759287178516,0.0111855175346136,-0.0147425755858421
1772807729087576300,8.178576416015625,0.0461994411170482,0.0077189038142561,0.0222609316468238,-0.0147807821631431,0.0055785458534955,-0.0032366230152547
1772807729107625200,8.198625244140626,-0.0098965401142835,0.0653998161494731,0.016721381165646,0.0384491533041,0.0024262373335659,0.0104915183037519
1772807729127674400,8.21867431640625,0.0802688839793205,0.0520734477169811,-0.0160939699823036,0.0477704033255577,0.0116835739463567,0.0075057032518088
1772807729147723300,8.23872314453125,0.1828156507402658,-0.0055400984704494,-0.021765037888661,-0.0082536395639181,0.0051191505044698,-0.0067448047921061
1772807729167772400,8.2587724609375,0.2362017884910106,-0.0249729670844972,-0.022602365495637,-0.0528488904237747,0.013075927272439,-0.0145497675985097
1772807729187821300,8.2788212890625,0.1260375324636697,0.0265277953110635,-0.0008106039968319,-0.0482226125895977,-0.0070721199735999,-0.0199442915618419
1772807729207870200,8.2988701171875,0.0237298351556062,0.0682603201471269,0.0163127090332098,0.0125065073370933,-0.0268785804510116,-0.0131484847515821
1772807729227918300,8.31891845703125,0.03345803296566,0.0976981576859951,-0.0013476152166724,0.0320131853222847,-0.0359088033437728,0.0026668126229196
1772807729247967200,8.33896728515625,0.074415481775999,0.0268421219572424,-0.000137947165966,-0.0049861995503306,-0.0012288783909752,0.0028187637217342
1772807729268016400,8.359016357421876,0.0843166980654001,-0.0056914896398782,-0.0119536553071811,-0.0398661941289901,0.0144194504246115,0.0031629437580704
1772807729288065300,8.379065185546875,-0.0175602066099643,-0.0063771338164806,0.0026959610857069,-0.0010509307030588,0.006337278522551,0.001837697578594
1772807729308114200,8.3991142578125,0.017618658798933,0.008298311137408,0.0307026698429137,0.0399187393486499,-0.0156271085143089,-0.0061878319829702
1772807729328163300,8.419163330078124,0.0836871679902076,-0.0092861531309783,0.0005821107368916,0.019334502518177,-0.0140436273068189,-0.0044297860004007
1772807729348212200,8.439212158203125,0.1603004520714283,0.0048779812999069,-0.0315985592367127,-0.0243151951581239,0.0097250966355204,-0.006030554883182
1772807729368261400,8.459261474609375,0.1264712477058172,0.0333038653172552,-0.0244942071242257,-0.0249624401330947,-0.0003487397334538,-0.0100854896008968
1772807729388310300,8.479310302734374,0.0303922156542539,0.0549560174159705,-0.0124857163572683,0.0148860421031713,-0.0189687255769968,-0.0058729955926537
1772807729408359200,8.499359130859375,0.1124362926125526,0.0949766237676143,0.0153836662884801,0.0235324334353208,-0.0206423550844192,-0.016336215659976
1772807729428408300,8.519408203125,0.1823106238275766,0.0308984116107225,-0.0069703504692763,-0.0296988766640424,-0.0124329067766666,-0.0153786018490791
1772807729448457200,8.539457275390625,0.1311351478636264,0.0055590954318642,0.0218444963330402,-0.0626168698072433,-0.0115011883899569,-0.0130907874554395
1772807729468506400,8.55950634765625,0.0225479318946599,0.026848551698029,0.0093806264813989,-0.018132759258151,-0.0120649794116616,-0.0011888546869158
1772807729488555300,8.57955517578125,-0.0638993484586477,0.0172312669165432,0.008251878179796,0.022766251116991,-0.0132899526506662,-0.0056676226668059
1772807729508604400,8.5996044921875,0.0047620998352766,0.0208694772884249,-0.0038172567332163,0.0168204270303249,0.0085403583943843,-0.0185854993760585
1772807729528653300,8.6196533203125,0.0860690946906805,0.0003305471286177,-0.0253021990388631,-0.0164100099354982,0.0083155762404203,-0.0085025643929839
1772807729548702200,8.6397021484375,0.026413959673047,0.0037720658846199,0.037300460672751,-0.0065179271623492,0.0123671712353825,0.0019212148617953
1772807729568751400,8.65975146484375,0.1026987424522638,0.0711740156367421,0.008140636357665,0.0194401741027832,0.0087591968476772,-0.0008153705857694
1772807729588800300,8.67980029296875,0.1022229416340589,0.0178869543462991,0.0379221727676689,0.0224232673645019,-0.0017755199223756,-0.0157450139522552
1772807729608848400,8.699848388671874,0.1256540861040353,0.0631270489118993,0.035883323883824,-0.0030132476240396,-0.0040450277738273,-0.012887536548078
1772807729628897300,8.719897216796875,0.2675526200443506,0.0499561633020639,0.0220264653038233,-0.0245478674769401,0.0133315036073327,0.0080906273797154
1772807729648946200,8.7399462890625,0.1132780041337013,0.0431429761558771,0.0297755085280165,-0.0425680689513683,-0.0261455252766609,0.0001132735051214
1772807729668995300,8.759995361328125,0.0908715265363454,0.071444649271667,0.0318182298693805,-0.0158289112150669,-0.0250544380396604,-0.0017113154754042
1772807729689044200,8.780044189453125,0.0074397946119308,0.0254484756417572,-0.0040047055967152,-0.0008612421806901,-0.0177305843681097,0.0046103023923933
1772807729709093400,8.80009326171875,0.0036532618105411,-0.002717150004208,0.0013211290685459,-0.0158904269337654,-0.0016968440031632,-0.0082335844635963
1772807729729142300,8.820142333984375,-0.0459615407079458,-0.0076122285693883,-0.0134490449640899,-0.0009053200483322,0.036181341856718,0.004650876391679
1772807729749191200,8.840191162109376,-0.0036117607563734,0.0091856153659522,-0.0441320967910811,0.0293040387332439,0.0546830967068672,0.0288161598145961
1772807729769240800,8.86024072265625,0.0543190346866846,-0.0257177941024303,0.024490480797179,0.0207110848277807,0.0118706542998552,0.0156481601297855
1772807729789289700,8.880289794921875,0.2024275291830301,-0.0201630825847387,-0.0125065399495884,-0.0062110740691423,-0.0007092484156601,-0.0011435230262577
1772807729809339000,8.9003388671875,0.2255991459339857,0.0190226803779602,-0.0621270415564998,-0.0350385680794715,-0.0197165552526712,-0.0303380563855171
1772807729829387800,8.9203876953125,0.0694879622459411,0.0551683449923992,0.0148744746573269,-0.0234524346888065,-0.0401311889290809,-0.0304551012814044
1772807729849436700,8.940436767578126,0.0466775800228118,0.0863046570122241,-0.0184857239570468,0.0180230904370546,0.0258625783026218,0.0081746913492679
1772807729869485800,8.96048583984375,0.0767196670651435,0.0456453143656253,0.0198133923642337,0.0034952422138303,0.0279849208891391,0.0305066499859094
1772807729889534700,8.98053466796875,0.1427747322529554,-0.0104077045068144,0.0579260462027043,-0.0332801081240177,-0.0137850688770413,0.0246277917176485
1772807729909584000,9.000583984375,0.169624160733819,0.0006659165628254,0.0261229043046012,-0.0313669927418231,-0.0448425598442554,0.0093078734353184
1772807729929631700,9.0206318359375,0.0083680153727531,0.0372536258563399,-0.0072647668385878,0.0062392824329435,-0.0304969009011983,-0.0119584752246737
1772807729949681000,9.040680908203123,0.0334866745382547,0.0748664404138922,-0.0351343321474269,0.0138483392074704,0.0130168665200471,-0.0024643214419484
1772807729969729800,9.060729736328126,0.0399245986312627,-0.0013294950380921,-0.0170336254525929,-0.0218561254441738,0.0106483222916722,0.0189462415874004
1772807729989778700,9.08077880859375,0.0124549924254417,0.0017601415403187,-0.0242966752581298,-0.0238910503685474,0.0057770633138716,0.0051762880757451
1772807730009827800,9.100827880859375,0.0522539188504219,0.0356290933944284,-0.0278656563187018,0.0190181042999029,0.0253690015524625,-0.007456783670932
1772807730029876700,9.120876708984374,0.0474263525635004,0.0290158127345144,0.0089480802830308,0.032482836395502,-0.001334014465101,0.0039298557676374
1772807730049926000,9.14092578125,0.1640922455698251,0.0143041274234652,-0.0066397302754223,-0.0070191789418458,-0.0102481395006179,0.0126366522163152
1772807730069974800,9.160974853515626,0.1540092429727315,-0.0107499420732259,-0.044692141826637,-0.0421924665570259,-0.0063884276896715,-0.0040590949356555
1772807730090023700,9.181023681640625,0.0365256038427352,0.0159108319677412,-0.0068764981733635,-0.0110681587830185,0.0071939933113753,-0.0093377735465765
1772807730110072800,9.20107275390625,0.0660655865818262,0.0478005927033722,-0.0190656427368521,0.0244103875011205,0.004278149921447,0.0087783429771661
1772807730130121700,9.221121826171874,0.1150444292843341,0.0257401520647108,0.0298250102255493,-0.0057825478725135,-0.0160685982555151,0.0114771276712417
1772807730150171000,9.2411708984375,0.196370128840208,0.0103388770543038,-0.0058421501569449,-0.0494869239628315,-0.0169116873294115,0.0021590136457234
1772807730170219800,9.2612197265625,0.1188894142746925,0.0260283213563263,-0.002871354185231,-0.0359590351581573,0.0100494604557752,0.0017147259786725
1772807730190268700,9.2812685546875,0.0128635732263326,0.0356055663883686,0.0203774194551631,-0.0027930904179811,-0.0211238302290439,0.004143341910094
1772807730210317800,9.30131787109375,0.044187516772747,0.0387874112948775,0.0441267264962196,0.0203321576118469,-0.02279151417315,-0.0073666321113705
1772807730230366700,9.32136669921875,-0.0206359607934951,0.0179227563120424,0.0529171685321256,0.0024399270769208,-0.0135083552449941,0.0030736220069229
1772807730250414800,9.341414794921874,0.0169072956591844,0.0286480023354291,-0.0005062324890866,-0.0061512202955782,0.0206566322594881,0.0207237731665372
1772807730270463700,9.361463623046877,0.0104138419866561,0.0440317416891455,-0.0146054849902167,0.0124000627547502,0.0288751050829887,0.0129211572930216
1772807730290513000,9.381512939453126,0.1016857660174369,0.0110410339742898,0.0210349335158243,0.014583671465516,0.0093486784026026,0.004274096339941
1772807730310561800,9.401561767578125,0.1275455989390611,-0.0370931745976209,0.0161601305536925,-0.0083027370274066,-0.0292751472443342,0.0106853898614645
1772807730330610700,9.421610595703124,0.1050099420040845,-0.0256800924405455,-0.0200724451592192,-0.0216595102101564,-0.0215777996927499,-0.0049417149275541
1772807730350659800,9.441659912109374,0.0471709164977073,0.0025675124004483,-0.0652775780092924,0.0071176793426275,0.0323829427361488,0.0021941312588751
1772807730370708700,9.461708740234377,0.0776005415529012,0.0377436013303697,-0.0724734808627516,0.0231931637972593,0.0387758426368236,0.011745948344469
1772807730390758000,9.4817578125,0.1721709226071834,0.006007131460309,-0.0204603484982624,-0.0006951915565878,0.0111549003049731,0.0052357851527631
1772807730410806800,9.501806884765625,0.1288788933694362,0.0013572598278522,0.0119256713217124,-0.0164217464625835,-0.0249473508447408,-0.0074610505253076
1772807730430855700,9.521855712890623,0.1159089371591806,0.0569932223320007,-0.0036666692813858,-0.0097684422507882,-0.0352391153573989,-0.0149416700005531
1772807730450904800,9.54190478515625,0.0139192197591066,0.072390113428235,0.0435696406027302,-0.0089536942541599,-0.0139269530773162,-0.014252939261496
1772807730470953700,9.56195361328125,0.0580506224304437,0.0879155993402004,0.0162762312140315,-0.021668117493391,0.0344032309949398,0.0067143719643354
1772807730491003000,9.5820029296875,0.0813636934787035,0.0727003484211862,0.0183538777383044,-0.028879027813673,0.0252778697758913,0.0275819301605224
1772807730511051800,9.6020517578125,-0.0131219319015741,0.0454506685763597,0.0727419956058263,-0.0015341730322688,-0.0327043831348419,0.0276912562549114
1772807730531100700,9.6221005859375,0.0685182404309511,0.0615830343402922,0.0244265487154945,0.0375595241785049,-0.0181816071271896,0.0225796997547149
1772807730551148800,9.642148681640624,0.1449883166491985,0.0128133043438196,-0.0595206584503874,0.0025966914836317,0.0159029588103294,0.015717850998044
1772807730571197700,9.66219775390625,0.1913806499898433,-0.0219764156170189,-0.0817841839130967,-0.0433169938623905,0.0159340072423219,-0.0070901019498705
1772807730591246800,9.682246826171877,0.2023234842866659,-0.0074579147905111,-0.0339833720140159,-0.0624353028833866,-0.0098322331905364,-0.0212683957070112
1772807730611295700,9.702295654296876,-0.0686672935128211,-0.0311183379717171,-0.0699973000075668,-0.005647606216371,-0.0213095657527446,-0.0139829162508249
1772807730631345000,9.722344970703125,0.0446487045437097,0.0704829646326601,-0.1156324217727407,0.03497264534235,0.0294972211122512,-0.0258881114423275
1772807730651393800,9.742393798828124,-0.0186725517660379,-0.0377322031535208,-0.0692217125251889,0.0043376903049647,0.0578877180814743,-0.0281150005757808
1772807730671442700,9.762442626953124,0.1760790359616279,0.0761946202777326,-0.0377242390427738,0.0388654321432113,0.0709394887089729,-0.0617139600217342
1772807730691491800,9.782491943359377,-0.0233674315840005,0.025748189240694,0.08344955984205,0.1272319257259369,0.0336855985224247,-0.071094274520874
1772807730711540700,9.802540771484376,-0.0786421595603227,0.052483051431179,0.0573032746618613,0.1765592247247696,-0.0329310670495033,-0.0560041368007659
1772807730731590000,9.82258984375,0.1093511860787868,0.1297175361506641,0.0587981528621166,0.1125115752220153,-0.0168569386005401,-0.0514031238853931
1772807730751638800,9.842638671875,0.1546416956573724,0.0030889059260487,0.0678863905345089,-0.0202644541859626,0.0197643414139747,-0.0060649216175079
1772807730771687200,9.862687255859376,0.0873211405783891,0.0670126581735909,0.0521162274127826,-0.0735871940851211,0.0321317166090011,0.0363321341574192
1772807730791736300,9.882736328125,-0.0614805968791246,0.0680573449209332,0.0595375365199521,-0.0348626635968685,-0.0127752525731921,0.0402095168828964
1772807730811784200,9.9027841796875,-0.0385012878298759,0.0529113598458468,0.0414304366169497,-0.0121963238343596,-0.0463420301675796,0.0283146612346172
1772807730831833300,9.922833251953126,0.0352291342914104,0.043339813902229,0.0618073811480775,-0.035178430378437,-0.0236734934151172,0.0325026325881481
1772807730851882200,9.94288232421875,0.0826356131106615,0.0344371071308851,0.0167436660626903,-0.0488271303474903,0.0122751863673329,0.0525959134101867
1772807730871931400,9.962931396484375,0.0922135887950658,0.051497401394695,-0.0134383774396032,-0.0454438850283622,0.0243317261338233,0.0398527905344963
1772807730891980300,9.982980224609374,0.0429945075958967,0.0069742229267954,0.0322751433240249,0.0055100638419389,-0.013189828954637,0.0212883707135915
1772807730912029200,10.003029296875,0.1265501581609249,0.0717054921649396,0.002151515478082,0.0605770088732242,-0.0278890077024698,0.0140023278072476
1772807730932078300,10.023078369140626,0.130408587154746,0.0890527866765856,-0.0080533234003931,0.0396041087806224,-0.0254887305200099,0.0090017188340425
