time,seconds_elapsed,accel_z,accel_y,accel_x,gyro_x,gyro_y,gyro_z
1.772637301772383e+18,0.277383056640625,-0.0007651448249816,0.0631923675537109,0.0491337776184082,0.0099868457764387,0.0109189506620168,-0.0031957905739545
1.7726373017923756e+18,0.29737548828125,-0.0216392874717712,0.0863990783691406,0.0490937232971191,0.0094542140141129,0.0149136893451213,-0.0055926335044205
1.772637301812368e+18,0.317367919921875,-0.0419281125068664,0.1050548553466796,0.0642824172973632,0.0094542140141129,0.0079894764348864,-0.0031957905739545
1.7726373018323604e+18,0.3373603515625,-0.0568171739578247,0.0949201583862304,0.0651922225952148,0.0105194775387644,0.0007989476434886,0.0013315794058144
1.772637301852353e+18,0.35735302734375,-0.0481807589530944,0.0661830902099609,0.079355239868164,0.0065247388556599,-0.0015978952869772,0.0010652635246515
1.7726373018723453e+18,0.377345458984375,-0.0355276465415954,0.0668449401855468,0.1059098243713378,0.0054594753310084,-0.0087884236127138,0.0005326317623257
1.772637301892338e+18,0.397337890625,-0.0314091444015502,0.091531753540039,0.0761208534240722,0.0006657897029072,-0.0130494777113199,0.0023968429304659
1.7726373019123302e+18,0.417330322265625,-0.0041328072547912,0.0968542098999023,0.0651435852050781,-0.00093210558407,-0.0149136893451213,0.0074568446725606
1.7726373019323249e+18,0.437324951171875,-0.0212830901145935,0.0974140167236328,0.0969552993774414,-0.0035952643956989,-0.0197073742747306,0.0050600017420947
1.77263730195232e+18,0.457320068359375,-0.0560212731361389,0.0928754806518554,0.0864810943603515,-0.0025300008710473,-0.0167779009789228,-0.0037284223362803
1.772637301972315e+18,0.47731494140625,-0.0188386440277099,0.0981702804565429,0.0230484008789062,-0.0027963167522102,-0.0170442163944244,-0.0087884236127138
1.7726373019923098e+18,0.497309814453125,-0.0143347382545471,0.0847311019897461,0.0162692070007324,-0.0006657897029072,-0.0109189506620168,-0.0069242129102349
1.772637302012305e+18,0.517304931640625,-0.0095099210739135,0.0951805114746093,0.0288591384887695,0.0105194775387644,-0.0061252652667462,-0.0079894764348864
1.7726373020322998e+18,0.5372998046875,-0.0100788474082946,0.1291255950927734,0.061436653137207,0.0105194775387644,-0.0074568446725606,-0.0079894764348864
1.7726373020522947e+18,0.557294677734375,-0.0112430453300476,0.1198053359985351,0.0319070816040039,0.0051931599155068,-0.0007989476434886,-0.0042610540986061
1.7726373020722895e+18,0.57728955078125,-0.0016295313835144,0.1104955673217773,0.007399559020996,0.0011984214652329,-0.0010652635246515,-0.0087884236127138
1.7726373020922847e+18,0.59728466796875,-0.0109816789627075,0.1008453369140625,-0.011575698852539,0.0001331579405814,-0.0005326317623257,-0.011185267008841
1.7726373021122796e+18,0.617279541015625,-0.040027379989624,0.1054954528808593,0.0126075744628906,0.0011984214652329,0.0005326317623257,-0.0077231605537235
1.7726373021322744e+18,0.6372744140625,-0.0350223779678344,0.134256362915039,0.0269927978515625,0.0054594753310084,-0.0007989476434886,-0.0042610540986061
1.7726373021522693e+18,0.657269287109375,-0.0060549974441528,0.1343536376953125,0.0316286087036132,0.0049268435686826,0.0013315794058144,-0.0045273699797689
1.7726373021722644e+18,0.677264404296875,-0.0304459929466247,0.1244707107543945,0.0273694992065429,-0.003328948514536,-0.0002663158811628,-0.0005326317623257
1.7726373021922593e+18,0.69725927734375,-0.0355094671249389,0.0951423645019531,0.0141425132751464,-0.0003994738217443,-0.0042610540986061,0.0018642111681401
1.7726373022122542e+18,0.717254150390625,-0.0396543145179748,0.0804529190063476,0.0293021202087402,-0.0027963167522102,-0.0053263176232576,0.0007989476434886
1.772637302232249e+18,0.7372490234375,-0.0374791622161865,0.0854225158691406,0.1012516021728515,-0.0043942118063569,-0.0058589493855834,0.0002663158811628
1.7726373022522442e+18,0.757244140625,-0.035215675830841,0.1144886016845703,0.1058464050292968,-0.0041278963908553,-0.011185267008841,0.0010652635246515
1.772637302272239e+18,0.777239013671875,-0.0341082215309143,0.0955114364624023,0.124852180480957,-0.0062584234401583,-0.0162452682852745,0.0071905287913978
1.772637302292234e+18,0.79723388671875,-0.0569711923599243,0.0672731399536132,0.1101713180541992,-0.0057257916778326,-0.011185267008841,0.0079894764348864
1.772637302312229e+18,0.81722900390625,-0.0469935536384582,0.0670356750488281,0.1060748100280761,-0.010785792954266,-0.0047936858609318,0.0026631588116288
1.772637302332224e+18,0.83722412109375,-0.0264006853103637,0.0899686813354492,0.0641217231750488,-0.0134489517658948,-0.0007989476434886,-0.0007989476434886
1.772637302352219e+18,0.857218994140625,-0.0106992721557617,0.0897274017333984,0.055312156677246,-0.0099868457764387,0.0023968429304659,-0.0007989476434886
1.7726373023722138e+18,0.8772138671875,0.0048845410346984,0.0899133682250976,0.0360116958618164,-0.0003994738217443,0.0047936858609318,-0.0007989476434886
1.772637302392209e+18,0.897208984375,0.0060884952545166,0.0950641632080078,0.0307254791259765,-0.0003994738217443,0.0090547399595379,0.0018642111681401
1.7726373024122038e+18,0.917203857421875,-0.0026450157165527,0.124155044555664,0.0397682189941406,-0.00093210558407,0.0135821104049682,0.0047936858609318
1.772637302432198e+18,0.937197998046875,-0.0072336196899414,0.119450569152832,0.0396308898925781,-0.0003994738217443,0.0135821104049682,0.0047936858609318
1.772637302452192e+18,0.95719189453125,-0.0212609767913818,0.1001739501953125,0.0351428985595703,0.00093210558407,0.0162452682852745,0.0010652635246515
1.7726373024721859e+18,0.977185791015625,-0.0257718563079834,0.104649543762207,0.0071043968200683,-0.0022636849898844,0.0106526352465152,-0.0042610540986061
1.77263730249218e+18,0.997179931640625,-0.0256747603416442,0.1138544082641601,0.0372452735900878,-0.0041278963908553,0.0034621064551174,-0.0034621064551174
1.772637302512174e+18,1.017174072265625,-0.0471501946449279,0.1042242050170898,0.0568914413452148,-0.0035952643956989,0.0,-0.002130527049303
1.7726373025321682e+18,1.037168212890625,-0.0363259315490722,0.0853328704833984,0.0519170761108398,-0.0014647373463958,-0.0023968429304659,0.0007989476434886
1.7726373025521623e+18,1.057162353515625,-0.0393251180648803,0.1046609878540039,0.0709800720214843,-0.0035952643956989,-0.0018642111681401,0.0031957905739545
1.7726373025721564e+18,1.077156494140625,-0.0380936861038208,0.0994043350219726,0.0961470603942871,-0.0022636849898844,-0.0037284223362803,0.0047936858609318
1.7726373025921505e+18,1.097150634765625,-0.0422905683517456,0.0934925079345703,0.1321148872375488,-0.0067910552024841,-0.0037284223362803,0.0045273699797689
1.7726373026121444e+18,1.117144287109375,-0.0559507012367248,0.0968828201293945,0.0968151092529296,-0.0153131633996963,-0.0053263176232576,0.0010652635246515
1.7726373026321385e+18,1.137138427734375,-0.0219229459762573,0.0618715286254882,0.066530704498291,-0.0121173728257417,-0.0095873717218637,-0.0002663158811628
1.7726373026521326e+18,1.157132568359375,-0.029936671257019,0.0469694137573242,0.058349609375,-0.0123836882412433,-0.0087884236127138,0.0034621064551174
1.7726373026721267e+18,1.177126708984375,-0.0082649588584899,0.0952816009521484,0.039459228515625,-0.0081226341426372,-0.0053263176232576,0.0119842141866683
1.7726373026921208e+18,1.197120849609375,0.0214602351188659,0.1197385787963867,0.0715599060058593,-0.0022636849898844,-0.0018642111681401,0.0151800047606229
1.7726373027121147e+18,1.21711474609375,0.0073633193969726,0.1299848556518554,0.0846233367919921,-0.0029294746927917,0.0071905287913978,0.0186421126127243
1.7726373027321088e+18,1.23710888671875,-0.0024477839469909,0.1253337860107422,0.0651297569274902,0.0002663158811628,0.0146473739296197,0.0130494777113199
1.772637302752103e+18,1.25710302734375,0.020439326763153,0.1060142517089843,0.0412821769714355,-0.002130527049303,0.0205063223838806,0.0002663158811628
1.772637302772097e+18,1.277096923828125,0.0360673666000366,0.0965156555175781,0.0356097221374511,-0.0015978952869772,0.0205063223838806,-0.0055926335044205
1.7726373027920911e+18,1.297091064453125,-0.0053499937057495,0.1206340789794921,0.0202722549438476,0.0054594753310084,0.0159789528697729,-0.0082557927817106
1.772637302812085e+18,1.3170849609375,-0.0400905609130859,0.1353397369384765,0.0096416473388671,0.0059921070933341,0.013315794058144,-0.006657897029072
1.772637302832079e+18,1.3370791015625,-0.0226804018020629,0.1358108520507812,0.0563454627990722,0.0065247388556599,0.0082557927817106,0.0
1.7726373028520732e+18,1.3570732421875,0.0092880725860595,0.1119680404663086,0.0845465660095214,0.0147805316373705,0.0034621064551174,-0.002130527049303
1.7726373028720673e+18,1.3770673828125,-0.0267769694328308,0.1162605285644531,0.0994267463684082,0.0187752693891525,-0.0031957905739545,-0.0061252652667462
1.7726373028920614e+18,1.3970615234375,-0.0532938838005065,0.0772333145141601,0.105010986328125,0.0105194775387644,-0.0082557927817106,-0.0039947382174432
1.7726373029120556e+18,1.4170556640625,-0.0423534512519836,0.0859575271606445,0.0684676170349121,0.0027963167522102,-0.0098536871373653,-0.0061252652667462
1.7726373029320492e+18,1.437049072265625,-0.0497335791587829,0.0949201583862304,0.0548410415649414,0.0006657897029072,-0.0122505305334925,-0.0045273699797689
1.772637302952043e+18,1.45704296875,-0.0651079416275024,0.0952129364013671,0.0682792663574218,0.0019973691087216,-0.0191747434437274,0.002130527049303
1.7726373029720369e+18,1.477036865234375,-0.0518221855163574,0.11480712890625,0.0433378219604492,0.0063915811479091,-0.0218379013240337,0.0069242129102349
1.7726373029920307e+18,1.49703076171875,-0.0380077362060546,0.1105213165283203,0.0469756126403808,0.0074568446725606,-0.0207726396620273,0.0074568446725606
1.7726373030120243e+18,1.5170244140625,-0.0577737092971801,0.10113525390625,0.0606923103332519,0.0087884236127138,-0.0125168468803167,0.0085221081972122
1.7726373030320182e+18,1.53701806640625,-0.0349066257476806,0.1105499267578125,0.0465645790100097,0.0087884236127138,-0.0095873717218637,0.0
1.772637303052012e+18,1.557011962890625,-0.0585513710975647,0.0910224914550781,0.0712103843688964,0.0015978952869772,-0.0087884236127138,-0.0055926335044205
1.772637303072006e+18,1.577005859375,-0.0541441440582275,0.0859403610229492,0.0766410827636718,-0.0031957905739545,-0.0082557927817106,-0.0047936858609318
1.7726373030919995e+18,1.59699951171875,-0.0621991753578186,0.0953445434570312,0.0670232772827148,0.0007989476434886,-0.011185267008841,-0.0053263176232576
1.7726373031119933e+18,1.616993408203125,-0.05159592628479,0.0951347351074218,0.0534148216247558,0.0,-0.0114515833556652,0.0
1.7726373031319872e+18,1.6369873046875,-0.0208761096000671,0.1140432357788086,0.0633301734924316,-0.0026631588116288,-0.0101200034841895,0.0053263176232576
1.772637303151981e+18,1.65698095703125,-0.0191558599472045,0.0943470001220703,0.0743637084960937,-0.0045273699797689,-0.0087884236127138,0.0045273699797689
1.7726373031719747e+18,1.676974609375,-0.0079817771911621,0.0841341018676757,0.0807733535766601,-0.0047936858609318,-0.0047936858609318,0.0039947382174432
1.7726373031919685e+18,1.696968505859375,0.0067694187164306,0.0693731307983398,0.0876727104187011,-0.0083889504894614,0.0005326317623257,0.0039947382174432
1.7726373032119624e+18,1.71696240234375,-0.0264439582824707,0.0777435302734375,0.079413890838623,-0.0078563187271356,0.0029294746927917,0.0042610540986061
1.7726373032319562e+18,1.736956298828125,-0.0217845439910888,0.0730619430541992,0.0660176277160644,-0.010785792954266,0.002130527049303,0.0058589493855834
1.7726373032519498e+18,1.75694970703125,-0.0167415738105773,0.0819282531738281,0.0615191459655761,-0.0078563187271356,0.0018642111681401,0.0090547399595379
1.7726373032719437e+18,1.776943603515625,-0.0115261077880859,0.0866174697875976,0.0570235252380371,-0.0049268435686826,0.0018642111681401,0.011185267008841
1.7726373032919375e+18,1.7969375,-0.0203560590744018,0.0961723327636718,0.0482497215270996,-0.0022636849898844,-0.0010652635246515,0.0103863198310136
1.7726373033119314e+18,1.816931396484375,0.0139179825782775,0.0914564132690429,0.05303955078125,-0.0003994738217443,0.0023968429304659,0.006657897029072
1.772637303331925e+18,1.836925048828125,0.0047296285629272,0.0962734222412109,0.0482730865478515,0.0038615802768617,0.0058589493855834,0.0023968429304659
1.7726373033519188e+18,1.8569189453125,-0.000474214553833,0.0769329071044921,0.0820899009704589,0.0041278963908553,0.0127831622958183,0.0010652635246515
1.7726373033719127e+18,1.87691259765625,-0.0205291509628295,0.1004581451416015,0.0540432929992675,0.0049268435686826,0.017310531809926,-0.0002663158811628
1.7726373033919066e+18,1.896906494140625,-0.0064749121665954,0.1047964096069336,0.0501155853271484,0.0030626326333731,0.0154463211074471,-0.0010652635246515
1.7726373034119002e+18,1.916900146484375,0.0122603178024292,0.0950851440429687,0.0359201431274414,0.0025300008710473,0.0138484258204698,-0.0013315794058144
1.7726373034318925e+18,1.936892578125,0.0173003077507019,0.0809240341186523,0.0211620330810546,0.0065247388556599,0.0117178987711668,-0.0002663158811628
1.7726373034518848e+18,1.956884765625,0.0126222372055053,0.1051721572875976,0.0445384979248046,0.0083889504894614,0.0077231605537235,0.0018642111681401
1.7726373034718769e+18,1.976876953125,-0.016328752040863,0.0953540802001953,0.0641460418701171,0.0081226341426372,0.0114515833556652,0.0031957905739545
1.772637303491869e+18,1.996868896484375,0.0020685195922851,0.0853147506713867,0.0553464889526367,0.0070573706179857,0.0130494777113199,-0.0029294746927917
1.772637303511861e+18,2.016861083984375,-0.018191635608673,0.0993366241455078,0.0270986557006835,0.0035952643956989,0.0106526352465152,-0.0034621064551174
1.772637303531853e+18,2.03685302734375,-0.014457881450653,0.1038551330566406,0.0603766441345214,0.0038615802768617,0.0079894764348864,-0.0023968429304659
1.7726373035518454e+18,2.056845458984375,-0.0110948085784912,0.0988016128540039,0.0414600372314453,0.0043942118063569,0.0034621064551174,0.0039947382174432
1.7726373035718374e+18,2.07683740234375,-0.0256711840629577,0.1178169250488281,0.0417218208312988,0.003328948514536,-0.0018642111681401,0.0039947382174432
1.7726373035918295e+18,2.09682958984375,0.0258605480194091,0.1130294799804687,0.0318899154663085,0.0054594753310084,-0.0029294746927917,0.0029294746927917
1.7726373036118216e+18,2.116821533203125,-0.0004121661186218,0.1082820892333984,0.0552811622619628,0.0065247388556599,-0.0026631588116288,0.0013315794058144
1.772637303651806e+18,2.156805908203125,-0.0324960350990295,0.1074743270874023,0.0227103233337402,0.0027963167522102,-0.0045273699797689,0.0023968429304659
1.772637303671798e+18,2.176798095703125,-0.0421078205108642,0.1313533782958984,0.0276527404785156,-0.0003994738217443,-0.0045273699797689,0.0010652635246515
1.77263730369179e+18,2.1967900390625,-0.0138719677925109,0.0930500030517578,0.0376768112182617,0.0073236869648098,-0.0074568446725606,-0.0029294746927917
1.7726373037117821e+18,2.2167822265625,-0.033466100692749,0.0833330154418945,0.0714015960693359,0.0097205294296145,-0.0069242129102349,0.0
1.7726373037317742e+18,2.236774169921875,-0.0429462790489196,0.0973215103149414,0.067420482635498,0.003328948514536,-0.0146473739296197,0.0047936858609318
1.7726373037517665e+18,2.2567666015625,0.0009307861328125,0.0968847274780273,0.0684709548950195,-0.0041278963908553,-0.0127831622958183,0.0042610540986061
1.7726373037717586e+18,2.276758544921875,0.0152550339698791,0.1249608993530273,0.0506682395935058,-0.0059921070933341,-0.0157126374542713,0.0010652635246515
1.7726373037917507e+18,2.296750732421875,-0.042580246925354,0.1050882339477539,0.0328841209411621,-0.0038615802768617,-0.0117178987711668,0.0045273699797689
1.7726373038117427e+18,2.31674267578125,-0.037682294845581,0.0950298309326171,0.0195097923278808,-0.0057257916778326,-0.0047936858609318,0.0063915811479091
1.7726373038317348e+18,2.33673486328125,0.0102203488349914,0.0853052139282226,0.0437555313110351,-0.004660528153181,-0.0026631588116288,0.0071905287913978
1.7726373038517268e+18,2.356726806640625,-0.0235590934753417,0.0806007385253906,0.072272777557373,-0.0011984214652329,-0.0077231605537235,0.0082557927817106
1.7726373038717192e+18,2.37671923828125,-0.0186219215393066,0.1090688705444336,0.0584993362426757,-0.004660528153181,-0.0117178987711668,0.0082557927817106
1.7726373038917112e+18,2.396711181640625,-0.0334947705268859,0.0943412780761718,0.044748306274414,-0.0073236869648098,-0.0106526352465152,0.0042610540986061
1.7726373039117033e+18,2.416703369140625,-0.0242350101470947,0.0891180038452148,0.0599360466003418,-0.0019973691087216,-0.0098536871373653,0.0013315794058144
1.7726373039316959e+18,2.43669580078125,-0.0148209333419799,0.1029396057128906,0.0754036903381347,-0.0041278963908553,-0.0058589493855834,0.0015978952869772
1.7726373039516887e+18,2.456688720703125,-0.0340449810028076,0.1023750305175781,0.0861287117004394,-0.0014647373463958,-0.0039947382174432,0.0045273699797689
1.7726373039716813e+18,2.476681396484375,-0.0295996069908142,0.1017875671386718,0.077676773071289,0.0011984214652329,-0.0039947382174432,0.0037284223362803
1.772637303991674e+18,2.496674072265625,-0.0203006863594055,0.0678682327270507,0.0640249252319336,0.0001331579405814,-0.0031957905739545,0.0055926335044205
1.772637304011667e+18,2.5166669921875,-0.0061283707618713,0.0817127227783203,0.0842275619506836,-0.0006657897029072,-0.0023968429304659,0.0077231605537235
1.7726373040316595e+18,2.536659423828125,-0.0215829610824584,0.0810794830322265,0.0948777198791503,0.0001331579405814,-0.0013315794058144,0.006657897029072
1.7726373040516524e+18,2.55665234375,-0.0183462500572204,0.0707197189331054,0.0865640640258789,0.0025300008710473,0.0002663158811628,0.0050600017420947
1.772637304071645e+18,2.57664501953125,-0.0338873267173767,0.06524658203125,0.0781335830688476,0.0003994738217443,-0.0002663158811628,0.0053263176232576
1.7726373040916378e+18,2.5966376953125,-0.0347129702568054,0.0936527252197265,0.0684719085693359,0.0041278963908553,0.0015978952869772,0.0058589493855834
1.7726373041116303e+18,2.61663037109375,-0.016112208366394,0.1077680587768554,0.0640869140625,0.0105194775387644,0.0045273699797689,0.006657897029072
1.7726373041316232e+18,2.636623046875,-0.0022639036178588,0.1123943328857421,0.054732322692871,0.0113184247165918,0.0053263176232576,0.0069242129102349
1.772637304151616e+18,2.656615966796875,-0.0175114274024963,0.0928983688354492,0.0456471443176269,0.0091878976672887,0.0085221081972122,0.0045273699797689
1.7726373041716086e+18,2.676608642578125,-0.0136438012123107,0.1067276000976562,0.0513553619384765,0.0094542140141129,0.0098536871373653,0.0005326317623257
1.7726373041916014e+18,2.696601318359375,-0.0430204272270202,0.0871200561523437,0.0521283149719238,0.0067910552024841,0.0103863198310136,0.0013315794058144
1.772637304211594e+18,2.716593994140625,-0.0339139103889465,0.0820693969726562,0.052558422088623,0.0075900023803114,0.0050600017420947,0.0010652635246515
1.7726373042315868e+18,2.7365869140625,-0.029006004333496,0.0865230560302734,0.0676407814025878,0.0065247388556599,0.0047936858609318,0.0039947382174432
1.7726373042515796e+18,2.75657958984375,-0.0150880813598632,0.1191644668579101,0.0550003051757812,0.004660528153181,0.0010652635246515,0.0063915811479091
1.7726373042715722e+18,2.776572265625,-0.0206274390220642,0.1036977767944336,0.0474896430969238,0.003328948514536,-0.002130527049303,0.0026631588116288
1.772637304291565e+18,2.79656494140625,-0.0206543207168579,0.0837507247924804,0.0305123329162597,0.0011984214652329,0.0005326317623257,0.0029294746927917
1.7726373043115576e+18,2.8165576171875,-0.0258809924125671,0.0928373336791992,0.0362157821655273,0.0017310532275587,0.0029294746927917,0.0063915811479091
1.7726373043315505e+18,2.836550537109375,-0.0597930550575256,0.0874586105346679,0.0708742141723632,0.0043942118063569,0.002130527049303,0.0114515833556652
1.772637304351543e+18,2.85654296875,-0.0407742261886596,0.0678281784057617,0.0574164390563964,0.0035952643956989,0.0026631588116288,0.0106526352465152
1.772637304371536e+18,2.876535888671875,-0.0219529867172241,0.0771913528442382,0.0386261940002441,0.0019973691087216,0.0007989476434886,0.0063915811479091
1.7726373043915287e+18,2.89652880859375,-0.0407052040100097,0.1012334823608398,0.0576996803283691,0.0011984214652329,-0.0029294746927917,0.0058589493855834
1.7726373044115213e+18,2.916521240234375,-0.0262107253074646,0.1061840057373046,0.0765633583068847,0.0011984214652329,-0.0010652635246515,0.006657897029072
1.7726373044315156e+18,2.936515625,-0.0159552097320556,0.1205129623413086,0.0576329231262207,0.0006657897029072,-0.0013315794058144,0.0042610540986061
1.7726373044515103e+18,2.95651025390625,0.0033963322639465,0.1060209274291992,0.0531187057495117,-0.0006657897029072,0.0002663158811628,0.0007989476434886
1.7726373044715046e+18,2.976504638671875,0.0258617997169494,0.0962753295898437,0.0675129890441894,-0.0014647373463958,-0.0002663158811628,-0.0018642111681401
1.7726373044914993e+18,2.996499267578125,-0.0277590751647949,0.1004934310913086,0.0589065551757812,-0.003328948514536,-0.0023968429304659,0.0002663158811628
1.772637304511494e+18,3.016493896484375,-0.004607617855072,0.0953626632690429,0.0163102149963378,-0.0041278963908553,-0.0023968429304659,0.0018642111681401
1.7726373045314885e+18,3.036488525390625,-0.0100564956665039,0.0856761932373046,0.0067977905273437,0.0022636849898844,-0.0029294746927917,0.0015978952869772
1.772637304551483e+18,3.05648291015625,-0.0055308938026428,0.0904474258422851,0.0355300903320312,0.0049268435686826,-0.0058589493855834,0.0029294746927917
1.7726373045714775e+18,3.0764775390625,-0.0105593204498291,0.1138858795166015,0.0652761459350586,0.0014647373463958,-0.0034621064551174,0.0061252652667462
1.772637304591472e+18,3.09647216796875,-0.0159513354301452,0.09375,0.0671238899230957,0.0019973691087216,-0.0071905287913978,0.002130527049303
1.7726373046114668e+18,3.116466796875,-0.0107879638671875,0.0879745483398437,0.0835700035095214,-0.0003994738217443,-0.0042610540986061,-0.0002663158811628
1.772637304631461e+18,3.136461181640625,0.0178583860397338,0.1062469482421875,0.047032356262207,-0.0022636849898844,-0.0082557927817106,0.0023968429304659
1.7726373046714504e+18,3.176450439453125,-0.0310879349708557,0.0811395645141601,0.0347776412963867,-0.0017310532275587,-0.0082557927817106,0.0093210563063621
1.772637304691445e+18,3.196445068359375,-0.0175943970680236,0.0758819580078125,0.0732665061950683,-0.0035952643956989,-0.0101200034841895,0.0130494777113199
1.7726373047114396e+18,3.216439697265625,-0.0235355496406555,0.0946273803710937,0.0642919540405273,-0.0067910552024841,-0.0087884236127138,0.0122505305334925
1.7726373047514286e+18,3.2564287109375,-0.019435703754425,0.0657958984375,0.0643200874328613,-0.0017310532275587,-0.0103863198310136,0.0101200034841895
1.7726373047714232e+18,3.27642333984375,-0.0015050172805786,0.0658683776855468,0.0303802490234375,-0.0027963167522102,-0.0101200034841895,0.0063915811479091
1.7726373047914179e+18,3.29641796875,-0.0169544219970703,0.0896673202514648,0.0256776809692382,-0.0014647373463958,-0.0101200034841895,0.0069242129102349
1.7726373048114125e+18,3.31641259765625,-0.0131293535232543,0.1089868545532226,0.0395312309265136,0.0006657897029072,-0.0103863198310136,0.0045273699797689
1.7726373048314068e+18,3.33640673828125,-0.0139287114143371,0.1138544082641601,0.0631656646728515,0.00093210558407,-0.0074568446725606,0.0034621064551174
1.7726373048514015e+18,3.3564013671875,-0.0054361224174499,0.104013442993164,0.039504051208496,0.00093210558407,-0.0029294746927917,0.0010652635246515
1.772637304871396e+18,3.37639599609375,-0.0019222497940063,0.1037406921386718,0.0302052497863769,0.0038615802768617,0.0002663158811628,-0.0023968429304659
1.7726373048913907e+18,3.396390625,-0.0025010704994201,0.1130828857421875,0.026379108428955,0.0083889504894614,0.002130527049303,-0.0005326317623257
1.7726373049113853e+18,3.41638525390625,-0.0025683641433715,0.1130657196044921,0.0216064453125,0.0059921070933341,0.0010652635246515,-0.0007989476434886
1.7726373049313795e+18,3.43637939453125,-0.0217052698135375,0.0988855361938476,0.0212221145629882,0.0041278963908553,-0.0007989476434886,-0.0037284223362803
1.7726373049713674e+18,3.476367431640625,0.0110326409339904,0.0942277908325195,0.0351581573486328,0.0051931599155068,-0.0023968429304659,0.0002663158811628
1.7726373049913615e+18,3.496361572265625,-0.0178006887435913,0.0896368026733398,0.0682673454284668,0.0054594753310084,-0.0015978952869772,0.0023968429304659
1.7726373050113556e+18,3.516355712890625,-0.0032981038093566,0.1090946197509765,0.0677022933959961,0.0038615802768617,-0.0029294746927917,0.0018642111681401
1.7726373050313495e+18,3.536349609375,-0.0033150315284729,0.0948696136474609,0.0626063346862793,0.0022636849898844,-0.0007989476434886,0.0015978952869772
1.7726373050513436e+18,3.556343505859375,0.0064972639083862,0.0901136398315429,0.0434217453002929,-0.0017310532275587,-0.0005326317623257,-0.0013315794058144
1.7726373050713377e+18,3.576337646484375,-0.0073037147521972,0.0708723068237304,0.0437002182006835,0.0001331579405814,-0.0023968429304659,-0.0026631588116288
1.7726373050913318e+18,3.596331787109375,-0.0350045561790466,0.094639778137207,0.0676541328430175,0.0001331579405814,-0.0037284223362803,-0.0002663158811628
1.772637305111326e+18,3.616325927734375,-0.0284097790718078,0.075164794921875,0.0734567642211914,-0.0027963167522102,-0.0085221081972122,0.0
1.7726373051313198e+18,3.63631982421875,0.001330554485321,0.0700645446777343,0.1030373573303222,-0.0038615802768617,-0.0077231605537235,-0.0026631588116288
1.772637305151314e+18,3.65631396484375,-0.0123469829559326,0.0936698913574218,0.1134748458862304,-0.0017310532275587,-0.0045273699797689,-0.0007989476434886
1.772637305171308e+18,3.67630810546875,-0.0159060359001159,0.0977802276611328,0.0719900131225586,-0.0041278963908553,-0.0023968429304659,0.0010652635246515
1.7726373051913021e+18,3.69630224609375,-0.0057288408279418,0.0827741622924804,0.035069465637207,-0.0051931599155068,-0.0023968429304659,0.0029294746927917
1.7726373052112963e+18,3.716296142578125,-0.0434764623641967,0.0777559280395507,0.0116987228393554,-0.0081226341426372,0.0023968429304659,0.0050600017420947
1.77263730523129e+18,3.7362900390625,-0.0324426889419555,0.054422378540039,0.0550727844238281,-0.0057257916778326,0.0053263176232576,0.0053263176232576
1.7726373052512842e+18,3.7562841796875,-0.0074464678764343,0.0971536636352539,0.0644421577453613,0.0014647373463958,0.0103863198310136,0.0031957905739545
1.7726373052712783e+18,3.7762783203125,-0.025844931602478,0.1065921783447265,0.0553102493286132,0.0035952643956989,0.0189084280282259,0.0055926335044205
1.7726373052912724e+18,3.7962724609375,-0.0492764115333557,0.0681324005126953,0.0461058616638183,0.0035952643956989,0.019441058859229,0.0082557927817106
1.7726373053112663e+18,3.816266357421875,-0.0532405376434326,0.1064357757568359,0.0463294982910156,0.0057257916778326,0.0170442163944244,0.0026631588116288
1.7726373053312604e+18,3.836260498046875,-0.0185712575912475,0.106480598449707,0.0273098945617675,0.0019973691087216,0.0143810575827956,0.0015978952869772
1.7726373053512545e+18,3.856254638671875,0.0047169923782348,0.1017112731933593,0.0319180488586425,-0.0017310532275587,0.0119842141866683,-0.0013315794058144
1.7726373053712486e+18,3.87624853515625,-0.030043601989746,0.110992431640625,0.0322704315185546,-0.0003994738217443,0.0098536871373653,-0.0007989476434886
1.7726373053912428e+18,3.89624267578125,-0.0488425493240356,0.1152458190917968,0.0148677825927734,0.0022636849898844,0.0109189506620168,0.002130527049303
1.7726373054112366e+18,3.916236572265625,-0.0284046530723571,0.1052446365356445,0.0016074180603027,0.0025300008710473,0.0117178987711668,0.0002663158811628
1.7726373054312307e+18,3.936230712890625,-0.0167703032493591,0.0862274169921875,0.0544385910034179,-0.0022636849898844,0.0093210563063621,0.0
1.7726373054512246e+18,3.956224609375,-0.0146805644035339,0.0959558486938476,0.0827183723449707,0.0019973691087216,0.0090547399595379,-0.0007989476434886
1.7726373054712184e+18,3.976218505859375,-0.0221843719482421,0.0909967422485351,0.0882816314697265,0.0099868457764387,0.0047936858609318,-0.0007989476434886
1.7726373054912123e+18,3.99621240234375,-0.0062677264213562,0.0858697891235351,0.0850858688354492,0.0043942118063569,0.0015978952869772,0.0039947382174432
1.7726373055112064e+18,4.016206298828125,-0.0187064409255981,0.0805673599243164,0.052980899810791,-0.0057257916778326,-0.0015978952869772,0.0074568446725606
1.7726373055312003e+18,4.0362001953125,-0.0356576442718505,0.0708284378051757,0.029794692993164,-0.0110521093010902,-0.0026631588116288,0.0039947382174432
1.772637305571188e+18,4.07618798828125,0.0080266594886779,0.1140556335449218,0.0546255111694335,-0.0126500045880675,0.0,-0.0005326317623257
1.7726373055911818e+18,4.096181884765625,-0.024635910987854,0.1045551300048828,0.0450606346130371,-0.0121173728257417,-0.0015978952869772,0.0034621064551174
1.772637305611176e+18,4.116176025390625,-0.0468698740005493,0.0900049209594726,0.0505590438842773,-0.0113184247165918,-0.0005326317623257,0.0061252652667462
1.7726373056311698e+18,4.136169677734375,-0.0256425142288208,0.0993518829345703,0.0466623306274414,-0.0091878976672887,0.0005326317623257,0.0063915811479091
1.7726373056511636e+18,4.15616357421875,-0.0181267857551574,0.1041231155395507,0.0520401000976562,-0.0102531611919403,0.0042610540986061,0.006657897029072
1.7726373056711575e+18,4.176157470703125,0.0036361813545227,0.080575942993164,0.0804853439331054,-0.010785792954266,0.0047936858609318,0.0031957905739545
1.7726373056911516e+18,4.196151611328125,-0.0175505876541137,0.0907325744628906,0.1032423973083496,-0.0150468470528721,0.0039947382174432,0.002130527049303
1.7726373057111455e+18,4.2161455078125,-0.0156683325767517,0.1053056716918945,0.0744705200195312,-0.0102531611919403,-0.0015978952869772,0.0002663158811628
1.7726373057311393e+18,4.236139404296875,0.0006557703018188,0.090860366821289,0.0702171325683593,-0.0091878976672887,-0.0047936858609318,0.0029294746927917
1.7726373057511332e+18,4.25613330078125,-0.0162329673767089,0.0858287811279296,0.0807361602783203,-0.0129163200035691,-0.0045273699797689,0.0050600017420947
1.7726373057711273e+18,4.276127197265625,-0.0096158981323242,0.0809783935546875,0.0716376304626464,-0.0145142152905464,-0.0034621064551174,0.0055926335044205
1.7726373057911212e+18,4.29612109375,-0.0130479335784912,0.0666341781616211,0.0574746131896972,-0.0161121115088462,0.0018642111681401,0.0002663158811628
1.772637305811115e+18,4.316114990234375,-0.0312212705612182,0.0714588165283203,0.0767693519592285,-0.0131826363503932,0.0023968429304659,-0.0031957905739545
1.7726373058311089e+18,4.33610888671875,-0.0063917636871337,0.0907325744628906,0.0815095901489257,-0.013715268112719,0.0010652635246515,-0.0015978952869772
1.7726373058511027e+18,4.356102783203125,-0.0048655867576599,0.1099414825439453,0.0577678680419921,-0.008655265904963,0.0013315794058144,0.0018642111681401
1.7726373058710968e+18,4.376096923828125,0.0151934027671813,0.1003808975219726,0.0339460372924804,-0.0102531611919403,0.0074568446725606,0.0042610540986061
1.7726373058910907e+18,4.396090576171875,0.0155974030494689,0.1243572235107421,0.0387725830078125,-0.0065247388556599,0.0085221081972122,0.0039947382174432
1.7726373059110845e+18,4.41608447265625,0.0066528916358947,0.1054649353027343,0.0048141479492187,-0.0041278963908553,0.0101200034841895,0.0
1.7726373059310774e+18,4.436077392578125,0.0218011140823364,0.1203413009643554,0.0039505958557128,-0.00093210558407,0.0130494777113199,0.0005326317623257
1.7726373059510702e+18,4.4560703125,0.0079702734947204,0.1208295822143554,0.0222368240356445,0.0030626326333731,0.0157126374542713,-0.0015978952869772
1.7726373059710628e+18,4.476062744140625,-0.0021437406539916,0.1163129806518554,0.0455336570739746,0.0041278963908553,0.0213052704930305,-0.0010652635246515
1.7726373059910556e+18,4.4960556640625,-0.0032763481140136,0.1019878387451171,0.0595874786376953,0.00093210558407,0.0186421126127243,-0.0005326317623257
1.7726373060110482e+18,4.516048095703125,-0.0049404501914978,0.1020383834838867,0.0399928092956543,0.0025300008710473,0.0135821104049682,-0.0010652635246515
1.772637306031041e+18,4.536041015625,-0.0163308978080749,0.0879487991333007,0.0534391403198242,-0.0017310532275587,0.0050600017420947,-0.0037284223362803
1.7726373060510336e+18,4.55603369140625,-0.0276611447334289,0.088109016418457,0.0815110206604003,-0.0041278963908553,0.0007989476434886,-0.0055926335044205
1.7726373060710264e+18,4.5760263671875,-0.0102292895317077,0.1071090698242187,0.0623335838317871,-0.0027963167522102,-0.0050600017420947,-0.0050600017420947
1.772637306091019e+18,4.59601904296875,-0.0121857523918151,0.0776119232177734,0.0736422538757324,-0.0001331579405814,-0.0117178987711668,-0.0010652635246515
1.7726373061110118e+18,4.61601171875,-0.0329242348670959,0.0576734542846679,0.1084275245666503,0.0019973691087216,-0.0109189506620168,-0.0007989476434886
1.7726373061310044e+18,4.63600439453125,-0.043057382106781,0.0719547271728515,0.113771915435791,0.0038615802768617,-0.0122505305334925,-0.0026631588116288
1.7726373061509972e+18,4.655997314453125,-0.0167816281318664,0.0814771652221679,0.0799798965454101,0.0043942118063569,-0.0127831622958183,-0.0031957905739545
1.7726373061709898e+18,4.67598974609375,-0.0144254565238952,0.086212158203125,0.0891857147216796,0.0054594753310084,-0.0085221081972122,-0.0015978952869772
1.7726373061909827e+18,4.695982666015625,-0.0443254709243774,0.09600830078125,0.0549836158752441,0.0062584234401583,-0.0090547399595379,0.0042610540986061
1.7726373062109752e+18,4.715975341796875,-0.0020284056663513,0.096531867980957,0.0250158309936523,0.0082557927817106,-0.0037284223362803,0.0087884236127138
1.7726373062309678e+18,4.7359677734375,0.0287730693817138,0.1019554138183593,0.0423498153686523,0.0069242129102349,-0.0010652635246515,0.0042610540986061
1.7726373062509606e+18,4.755960693359375,-0.0409515500068664,0.1122198104858398,0.0500140190124511,0.0098536871373653,0.0031957905739545,-0.0010652635246515
1.7726373062709532e+18,4.775953125,-0.0278288125991821,0.1174173355102539,0.025583267211914,0.0170442163944244,0.0058589493855834,-0.0018642111681401
1.772637306290946e+18,4.795946044921875,0.0052208304405212,0.1130132675170898,-0.0148215293884277,0.0135821104049682,0.006657897029072,-0.0031957905739545
1.7726373063109386e+18,4.815938720703125,0.004887580871582,0.1086769104003906,-0.0110201835632324,0.0082557927817106,0.0090547399595379,-0.0058589493855834
1.7726373063309315e+18,4.835931396484375,-0.0147177577018737,0.113560676574707,0.0126543045043945,0.0143810575827956,0.0095873717218637,-0.0103863198310136
1.772637306350924e+18,4.855924072265625,-0.0105559825897216,0.0942802429199218,0.0457043647766113,0.020240006968379,0.0050600017420947,-0.0122505305334925
1.7726373063709169e+18,4.875916748046875,-0.001710832118988,0.0988616943359375,0.0747208595275878,0.0135821104049682,0.0053263176232576,-0.0087884236127138
1.7726373063909094e+18,4.895909423828125,-0.0161737203598022,0.0840902328491211,0.0563440322875976,0.0079894764348864,0.0055926335044205,-0.0058589493855834
1.7726373064109023e+18,4.91590234375,-0.030568242073059,0.0883464813232421,0.0430493354797363,0.0014647373463958,0.0002663158811628,-0.0063915811479091
1.7726373064308956e+18,4.9358955078125,-0.0011675953865051,0.087864875793457,0.0297846794128417,-0.0019973691087216,-0.0074568446725606,-0.0026631588116288
1.7726373064508895e+18,4.955889404296875,0.0184090137481689,0.0875730514526367,0.0496220588684082,-0.00093210558407,-0.0090547399595379,0.0
1.772637306470883e+18,4.975883056640625,-0.00135999917984,0.1017637252807617,0.1025667190551757,-0.0011984214652329,-0.0114515833556652,0.0015978952869772
1.7726373064908767e+18,4.995876708984375,-0.0155684947967529,0.0966949462890625,0.0983691215515136,-0.0041278963908553,-0.0114515833556652,0.0050600017420947
1.7726373065108705e+18,5.01587060546875,0.0086786150932312,0.0677175521850586,0.0797333717346191,-0.00093210558407,-0.0037284223362803,0.0061252652667462
1.772637306530864e+18,5.035864013671875,-0.0055691003799438,0.0680351257324218,0.0611615180969238,-0.0030626326333731,-0.0015978952869772,0.0058589493855834
1.7726373065508577e+18,5.055857666015625,-0.0107150673866271,0.0721826553344726,0.0893292427062988,-0.0065247388556599,-0.0050600017420947,0.0063915811479091
1.7726373065708513e+18,5.075851318359375,-0.0155586004257202,0.0819911956787109,0.0744848251342773,-0.003328948514536,-0.0082557927817106,0.0031957905739545
1.7726373065908452e+18,5.09584521484375,-0.0055334568023681,0.0969810485839843,0.0781207084655761,-0.0027963167522102,-0.0098536871373653,0.0031957905739545
1.7726373066108388e+18,5.1158388671875,-0.005275011062622,0.0974292755126953,0.1012234687805175,-0.0049268435686826,-0.0045273699797689,0.0055926335044205
1.7726373066308324e+18,5.135832275390625,-0.0001899600028991,0.0839757919311523,0.1054272651672363,-0.0038615802768617,-0.0053263176232576,0.0029294746927917
1.7726373066508262e+18,5.155826171875,-0.0141522884368896,0.0797290802001953,0.1092033386230468,-0.00093210558407,-0.0023968429304659,0.0034621064551174
1.7726373066708198e+18,5.17581982421875,-0.0138073563575744,0.0800228118896484,0.0751423835754394,0.0014647373463958,-0.0018642111681401,-0.0013315794058144
1.7726373066908134e+18,5.1958134765625,0.0005134344100952,0.0797758102416992,0.0420804023742675,-0.0011984214652329,0.0026631588116288,-0.0042610540986061
1.7726373067108073e+18,5.215807373046875,-0.0088456869125366,0.075408935546875,0.0412673950195312,-0.0027963167522102,-0.002130527049303,-0.0061252652667462
1.772637306730801e+18,5.23580078125,-0.0091351270675659,0.0901432037353515,0.0644340515136718,-0.0014647373463958,0.0007989476434886,-0.0026631588116288
1.7726373067507945e+18,5.25579443359375,0.0089200735092163,0.1093902587890625,0.0640401840209961,-0.0014647373463958,0.0015978952869772,-0.0047936858609318
1.7726373067707884e+18,5.275788330078125,0.0229632258415222,0.0997200012207031,0.0833106040954589,-0.0022636849898844,0.0005326317623257,-0.0039947382174432
1.772637306790782e+18,5.295781982421875,-0.0161766409873962,0.0806589126586914,0.0494065284729003,-0.0006657897029072,-0.0002663158811628,-0.002130527049303
1.7726373068107756e+18,5.315775634765625,-0.002478003501892,0.0906562805175781,0.0100951194763183,-0.00093210558407,-0.0007989476434886,-0.0055926335044205
1.7726373068307694e+18,5.335769287109375,-0.0173373222351074,0.1104965209960937,0.0373725891113281,-0.0003994738217443,-0.0007989476434886,-0.0037284223362803
1.772637306850763e+18,5.355762939453125,-0.0081248879432678,0.1203804016113281,0.0366859436035156,0.0014647373463958,-0.0045273699797689,-0.0037284223362803
1.7726373068707566e+18,5.375756591796875,-0.0235520601272583,0.1206693649291992,0.0364818572998046,0.00093210558407,-0.0061252652667462,0.0002663158811628
1.7726373068907505e+18,5.39575048828125,-0.0387225151062011,0.1014356613159179,0.0166974067687988,0.0011984214652329,-0.0037284223362803,0.0010652635246515
1.772637306910744e+18,5.415744140625,-0.0392130613327026,0.091771125793457,0.0311384201049804,0.0049268435686826,-0.0002663158811628,-0.0037284223362803
1.7726373069307374e+18,5.4357373046875,-0.029560387134552,0.1012744903564453,0.0504741668701171,0.0025300008710473,-0.0007989476434886,-0.0079894764348864
1.772637306950731e+18,5.45573095703125,-0.0290195345878601,0.1061134338378906,0.045699119567871,0.0019973691087216,-0.0015978952869772,-0.0069242129102349
1.7726373069707244e+18,5.475724365234375,-0.0286909341812133,0.1110897064208984,0.03580904006958,0.0019973691087216,-0.0034621064551174,-0.0042610540986061
1.7726373069907177e+18,5.4957177734375,-0.0143227577209472,0.1066207885742187,0.0303635597229003,0.002130527049303,-0.0079894764348864,-0.0007989476434886
1.772637307010711e+18,5.5157109375,-0.0329462885856628,0.1022300720214843,0.0296635627746582,0.0011984214652329,-0.0039947382174432,0.0002663158811628
1.7726373070307046e+18,5.53570458984375,0.0022042989730834,0.1267890930175781,0.028172492980957,-0.0001331579405814,-0.0050600017420947,0.0007989476434886
1.7726373070706913e+18,5.57569140625,-0.0266332626342773,0.1135692596435546,0.0353984832763671,-0.003328948514536,-0.0013315794058144,0.0018642111681401
1.7726373070906847e+18,5.5956845703125,-0.0020722150802612,0.1135578155517578,0.0307550430297851,-0.0035952643956989,-0.0026631588116288,-0.0007989476434886
1.7726373071106783e+18,5.61567822265625,0.0124300122261047,0.1036262512207031,-0.006838321685791,-0.0017310532275587,-0.0034621064551174,-0.0023968429304659
1.7726373071306716e+18,5.635671630859375,-0.0347270965576171,0.0936117172241211,0.0462937355041503,-0.0006657897029072,0.0018642111681401,-0.0042610540986061
1.772637307150665e+18,5.6556650390625,-0.0107390284538269,0.0699033737182617,0.0805540084838867,-0.0059921070933341,0.0026631588116288,-0.0045273699797689
1.7726373071706583e+18,5.675658203125,-0.0112448334693908,0.050262451171875,0.0862088203430175,-0.0049268435686826,0.0058589493855834,-0.0071905287913978
1.772637307190652e+18,5.69565185546875,-0.0016885995864868,0.0689926147460937,0.1158246994018554,0.004660528153181,0.0026631588116288,-0.0087884236127138
1.7726373072106452e+18,5.715645263671875,0.02210134267807,0.0922870635986328,0.097966194152832,-0.0003994738217443,0.0018642111681401,-0.0029294746927917
1.7726373072306386e+18,5.735638671875,-0.0164163708686828,0.1013774871826171,0.0749673843383789,-0.008655265904963,-0.0141147412359714,0.0063915811479091
1.772637307250632e+18,5.7556318359375,-0.0401606559753418,0.0917081832885742,0.0368599891662597,-0.011584741063416,-0.0157126374542713,0.0074568446725606
1.7726373072706255e+18,5.77562548828125,-0.0302875638008117,0.0728673934936523,0.0650129318237304,-0.0043942118063569,-0.0143810575827956,0.0061252652667462
1.772637307290619e+18,5.795618896484375,-0.0066005587577819,0.0825376510620117,0.1024923324584961,-0.0022636849898844,-0.0071905287913978,0.0063915811479091
1.7726373073106122e+18,5.8156123046875,-0.0313833355903625,0.0685920715332031,0.1206207275390625,-0.0022636849898844,-0.0034621064551174,0.006657897029072
1.7726373073306056e+18,5.83560546875,-0.0418709516525268,0.0592288970947265,0.1199913024902343,0.0001331579405814,-0.0015978952869772,0.0077231605537235
1.7726373073505992e+18,5.85559912109375,-0.0568929314613342,0.0595769882202148,0.0862164497375488,-0.0001331579405814,-0.0013315794058144,0.0034621064551174
1.7726373073905859e+18,5.8955859375,-0.0151565670967102,0.0975379943847656,0.0770940780639648,-0.0030626326333731,-0.0015978952869772,0.0
1.7726373074105792e+18,5.9155791015625,0.0031822323799133,0.1069068908691406,0.0438160896301269,-0.003328948514536,-0.0069242129102349,-0.0050600017420947
1.7726373074305725e+18,5.935572509765625,-0.0116116404533386,0.1020526885986328,0.0199027061462402,0.0003994738217443,-0.0063915811479091,-0.0071905287913978
1.772637307450566e+18,5.95556591796875,0.0118817687034606,0.0832366943359375,0.0143141746520996,0.0027963167522102,-0.0050600017420947,-0.0018642111681401
1.772637307470559e+18,5.97555908203125,0.0065944790840148,0.1075887680053711,0.0134057998657226,0.0062584234401583,0.0031957905739545,-0.0042610540986061
1.7726373074905523e+18,5.99555224609375,0.0060512423515319,0.1415462493896484,0.0166339874267578,0.0078563187271356,0.006657897029072,-0.0031957905739545
1.7726373075105457e+18,6.015545654296875,-0.004117727279663,0.1179380416870117,0.0206003189086914,0.0091878976672887,0.0125168468803167,0.0005326317623257
1.7726373075305388e+18,6.035538818359375,0.010253369808197,0.1181516647338867,0.0201663970947265,0.0121173728257417,0.0143810575827956,0.0010652635246515
1.772637307550532e+18,6.055531982421875,0.0059331655502319,0.1178607940673828,0.0256447792053222,0.0110521093010902,0.0151800047606229,-0.0005326317623257
1.7726373075705254e+18,6.075525390625,0.0206234455108642,0.1034097671508789,0.0162844657897949,0.0094542140141129,0.0162452682852745,-0.0037284223362803
1.7726373075905185e+18,6.0955185546875,-0.0033599138259887,0.0985059738159179,0.0260934829711914,0.0091878976672887,0.0106526352465152,-0.006657897029072
1.772637307610512e+18,6.115511962890625,-0.0077562928199768,0.0984067916870117,0.0455379486083984,0.0051931599155068,0.0074568446725606,-0.006657897029072
1.7726373076305052e+18,6.135505126953125,-0.0169031620025634,0.0791006088256836,0.0602903366088867,0.0051931599155068,0.0031957905739545,-0.0053263176232576
1.7726373076504983e+18,6.155498291015625,-0.0019881725311279,0.0694141387939453,0.0797767639160156,0.0014647373463958,-0.0026631588116288,-0.0045273699797689
1.7726373076904847e+18,6.195484619140625,-0.022196888923645,0.0741844177246093,0.0796027183532714,-0.0041278963908553,-0.0031957905739545,0.0007989476434886
1.772637307710478e+18,6.21547802734375,-0.0177544951438903,0.0788688659667968,0.0941228866577148,-0.0051931599155068,-0.0053263176232576,0.0039947382174432
1.7726373077304714e+18,6.235471435546875,-0.0042709112167358,0.1027441024780273,0.0940995216369628,-0.0065247388556599,-0.0098536871373653,0.0015978952869772
1.7726373077504645e+18,6.255464599609375,-0.0195285677909851,0.0930852890014648,0.0796971321105957,-0.0070573706179857,-0.0127831622958183,0.0026631588116288
1.7726373077704579e+18,6.275457763671875,-0.0243065953254699,0.0693082809448242,0.0697584152221679,-0.008655265904963,-0.0127831622958183,0.0031957905739545
1.7726373077904512e+18,6.295451171875,-0.0139884948730468,0.08416748046875,0.0359869003295898,-0.0073236869648098,-0.0071905287913978,0.0034621064551174
1.7726373078104443e+18,6.3154443359375,0.0143280625343322,0.1035337448120117,0.0498595237731933,-0.0038615802768617,-0.0061252652667462,0.0023968429304659
1.7726373078304376e+18,6.335437744140625,-0.0289273858070373,0.0895252227783203,0.0868206024169921,0.0014647373463958,-0.0045273699797689,0.0
1.772637307850431e+18,6.355430908203125,-0.0134686827659606,0.1186285018920898,0.0959033966064453,0.0022636849898844,-0.002130527049303,0.0005326317623257
1.772637307870424e+18,6.375424072265625,0.006672203540802,0.12371826171875,0.071542739868164,0.0062584234401583,0.0,-0.0005326317623257
1.7726373078904174e+18,6.39541748046875,0.0102440118789672,0.0950918197631836,0.0997943878173828,0.004660528153181,0.0029294746927917,0.0
1.7726373079104105e+18,6.415410400390625,-0.0287835597991943,0.0901746749877929,0.0759487152099609,-0.00093210558407,0.0074568446725606,-0.0053263176232576
1.7726373079304049e+18,6.43540478515625,-0.0424290299415588,0.0849733352661132,0.0290255546569824,0.0003994738217443,0.0013315794058144,-0.0034621064551174
1.7726373079503992e+18,6.455399169921875,-0.0313894152641296,0.0752058029174804,0.0297017097473144,0.00093210558407,-0.0018642111681401,-0.0031957905739545
1.772637307990388e+18,6.495387939453125,-0.0009649395942687,0.075200080871582,0.1067123413085937,-0.0030626326333731,-0.0018642111681401,-0.0034621064551174
1.7726373080103823e+18,6.51538232421875,-0.001114010810852,0.094304084777832,0.0924320220947265,-0.0081226341426372,-0.0005326317623257,-0.0013315794058144
1.7726373080303767e+18,6.535376708984375,-0.0297925472259521,0.0846700668334961,0.0638070106506347,0.0006657897029072,-0.0002663158811628,-0.0023968429304659
1.772637308050371e+18,6.55537109375,-0.0139444470405578,0.10833740234375,0.0694847106933593,0.0073236869648098,-0.0007989476434886,-0.0018642111681401
1.7726373080703654e+18,6.575365478515625,-0.0076384544372558,0.1128244400024414,0.0225019454956054,0.0022636849898844,0.0050600017420947,0.0037284223362803
1.7726373080903598e+18,6.59535986328125,0.0078775286674499,0.1126661300659179,0.0182652473449707,-0.0062584234401583,0.002130527049303,0.0050600017420947
1.7726373081103542e+18,6.615354248046875,0.0182383060455322,0.0844268798828125,0.0269770622253417,-0.0062584234401583,0.0018642111681401,0.002130527049303
1.7726373081303485e+18,6.6353486328125,-0.0054498314857482,0.1186447143554687,0.0591902732849121,-0.0054594753310084,-0.0007989476434886,0.0015978952869772
1.772637308150343e+18,6.655343017578125,-0.0337898135185241,0.119455337524414,0.0815820693969726,-0.0022636849898844,-0.0007989476434886,0.0007989476434886
1.7726373081703373e+18,6.675337158203125,-0.0040815472602844,0.100987434387207,0.0707836151123046,0.0038615802768617,0.0039947382174432,0.0005326317623257
1.7726373081903316e+18,6.69533154296875,-0.0123116374015808,0.0870847702026367,0.050938606262207,0.0003994738217443,0.0098536871373653,0.0023968429304659
1.772637308210326e+18,6.715325927734375,-0.0208755135536193,0.0972833633422851,0.0403151512145996,-0.0059921070933341,0.0077231605537235,0.0047936858609318
1.7726373082303204e+18,6.7353203125,-0.0243011713027954,0.0889520645141601,0.0667963027954101,-0.0065247388556599,0.0018642111681401,0.0034621064551174
1.7726373082503148e+18,6.755314697265625,-0.0086717009544372,0.0952377319335937,0.0544281005859375,-0.0065247388556599,-0.0018642111681401,-0.0007989476434886
1.772637308270309e+18,6.77530908203125,-0.0413015484809875,0.0966348648071289,0.04697847366333,-0.0078563187271356,-0.0079894764348864,-0.0053263176232576
1.7726373082903035e+18,6.795303466796875,0.0023111701011657,0.0886306762695312,0.0396981239318847,-0.0035952643956989,-0.0061252652667462,-0.0079894764348864
1.7726373083102979e+18,6.8152978515625,-0.0163878202438354,0.0935602188110351,0.0191264152526855,-0.0065247388556599,-0.0045273699797689,-0.0074568446725606
1.7726373083302922e+18,6.835292236328125,-0.0303624868392944,0.1039228439331054,0.036778450012207,-0.0091878976672887,-0.0047936858609318,-0.0045273699797689
1.7726373083502866e+18,6.85528662109375,-0.024945855140686,0.0955057144165039,0.083658218383789,-0.0078563187271356,-0.0018642111681401,-0.0037284223362803
1.772637308370281e+18,6.875281005859375,-0.0381522178649902,0.1187887191772461,0.0936260223388671,-0.0054594753310084,0.0007989476434886,-0.0093210563063621
1.7726373083902756e+18,6.895275634765625,-0.0322573184967041,0.1136236190795898,0.065868854522705,-0.0054594753310084,0.0063915811479091,-0.0157126374542713
1.77263730841027e+18,6.91527001953125,0.0078145861625671,0.0900840759277343,0.037851333618164,-0.0022636849898844,0.0069242129102349,-0.0165115855634212
1.772637308430264e+18,6.93526416015625,0.0047262907028198,0.0951623916625976,0.0280275344848632,-0.0006657897029072,0.0069242129102349,-0.0130494777113199
1.7726373084502584e+18,6.955258544921875,-0.0222822427749633,0.0910301208496093,0.0557770729064941,-0.0003994738217443,0.0045273699797689,-0.0103863198310136
1.7726373084702528e+18,6.975252685546875,-0.0203327536582946,0.0870656967163086,0.0880231857299804,-0.00093210558407,0.0034621064551174,-0.0085221081972122
1.7726373084902474e+18,6.995247314453125,-0.0232222080230712,0.0830411911010742,0.0916323661804199,-0.0017310532275587,0.0013315794058144,-0.0082557927817106
1.7726373085102418e+18,7.01524169921875,-0.0071951150894165,0.0882339477539062,0.0629959106445312,-0.0067910552024841,-0.0023968429304659,-0.0015978952869772
1.7726373085302362e+18,7.035236083984375,-0.0205658078193664,0.0889310836791992,0.0809345245361328,-0.0054594753310084,0.0005326317623257,0.0061252652667462
1.7726373085502305e+18,7.05523046875,-0.0474531650543212,0.0985822677612304,0.0750350952148437,-0.0057257916778326,0.0045273699797689,0.0045273699797689
1.772637308570225e+18,7.075224853515625,-0.0036026239395141,0.0988435745239257,0.0556006431579589,-0.0070573706179857,0.0071905287913978,0.0005326317623257
1.7726373085902193e+18,7.09521923828125,-0.0018472671508789,0.099003791809082,0.0364618301391601,-0.0073236869648098,0.0053263176232576,-0.0039947382174432
1.7726373086102136e+18,7.115213623046875,0.0050399303436279,0.1182279586791992,0.041543960571289,-0.0097205294296145,0.0013315794058144,-0.0069242129102349
1.772637308630208e+18,7.1352080078125,-0.0078822970390319,0.1419105529785156,0.0567612648010253,-0.0094542140141129,0.002130527049303,-0.0071905287913978
1.7726373086502024e+18,7.155202392578125,-0.0067508220672607,0.1175928115844726,0.0529332160949707,-0.0070573706179857,0.006657897029072,-0.0042610540986061
1.7726373086701967e+18,7.17519677734375,-0.0292495489120483,0.0887699127197265,0.0293045043945312,-0.004660528153181,0.0063915811479091,-0.0058589493855834
1.772637308690191e+18,7.195191162109375,0.0058172345161437,0.0986661911010742,-0.0044512748718261,-0.0017310532275587,0.0079894764348864,-0.0074568446725606
1.7726373087101855e+18,7.215185546875,0.045236587524414,0.099339485168457,0.0225358009338378,-0.00093210558407,0.0135821104049682,-0.0047936858609318
1.7726373087301798e+18,7.235179931640625,-0.0304783582687377,0.1044893264770507,0.045821189880371,-0.0030626326333731,0.0109189506620168,-0.0013315794058144
1.7726373087501742e+18,7.25517431640625,-0.010862112045288,0.1044683456420898,0.0508675575256347,-0.008655265904963,0.0079894764348864,-0.0002663158811628
1.7726373087701686e+18,7.27516845703125,-0.0009726285934448,0.1093511581420898,0.0507397651672363,-0.0089215822517871,0.0026631588116288,0.0031957905739545
1.772637308790163e+18,7.295162841796875,-0.0018280744552612,0.0907773971557617,0.0984973907470703,-0.0089215822517871,-0.0029294746927917,0.0063915811479091
1.7726373088101573e+18,7.3151572265625,-0.0123449563980102,0.0714893341064453,0.0937790870666503,-0.0070573706179857,-0.0042610540986061,0.0037284223362803
1.7726373088301517e+18,7.335151611328125,-0.0189222693443298,0.0948286056518554,0.0851030349731445,-0.0083889504894614,-0.0005326317623257,0.0
1.772637308850146e+18,7.35514599609375,0.0077629685401916,0.0938987731933593,0.0722193717956543,-0.0110521093010902,0.0005326317623257,-0.0039947382174432
1.7726373088701404e+18,7.375140380859375,0.0093923211097717,0.0880823135375976,0.0641026496887207,-0.0043942118063569,-0.0034621064551174,-0.006657897029072
1.772637308890135e+18,7.395135009765625,-0.0308940410614013,0.0825748443603515,0.0512828826904296,-0.0049268435686826,-0.0037284223362803,0.0
1.7726373089101294e+18,7.41512939453125,-0.0041002035140991,0.0865659713745117,0.0322566032409668,-0.0089215822517871,-0.0055926335044205,0.0015978952869772
1.7726373089301225e+18,7.43512255859375,0.013527512550354,0.0867748260498046,0.0602674484252929,-0.0019973691087216,-0.006657897029072,0.0
1.7726373089501153e+18,7.455115234375,-0.0031403303146362,0.1013021469116211,0.0786600112915039,0.0022636849898844,-0.0069242129102349,0.0002663158811628
1.7726373089701082e+18,7.475108154296875,0.0093297958374023,0.1251478195190429,0.0593390464782714,0.0062584234401583,-0.0023968429304659,0.0034621064551174
1.7726373089901012e+18,7.495101318359375,-0.0016787648200988,0.1107826232910156,0.0590362548828125,0.0105194775387644,-0.0018642111681401,0.0079894764348864
1.772637309010094e+18,7.515093994140625,-0.0070649981498718,0.0964183807373046,0.044527530670166,0.0155794788151979,0.0018642111681401,0.0087884236127138
1.772637309030087e+18,7.5350869140625,-0.0172012448310852,0.1011571884155273,0.0157728195190429,0.017710005864501,-0.0002663158811628,0.0071905287913978
1.7726373090700726e+18,7.575072509765625,0.0115971565246582,0.0967731475830078,0.038909912109375,0.0110521093010902,0.0013315794058144,0.0039947382174432
1.7726373090900654e+18,7.5950654296875,0.0160915851593017,0.0974206924438476,0.0285696983337402,0.0083889504894614,0.0037284223362803,-0.0026631588116288
1.7726373091100582e+18,7.615058349609375,-0.0030967593193054,0.1019201278686523,0.05790376663208,0.0113184247165918,0.0,-0.0053263176232576
1.772637309130051e+18,7.635051025390625,-0.0266206264495849,0.0870828628540039,0.05894136428833,0.011584741063416,0.0,-0.0023968429304659
1.7726373091500442e+18,7.655044189453125,-0.0026196241378784,0.0866079330444336,0.0647101402282714,0.0094542140141129,-0.0010652635246515,-0.0005326317623257
1.772637309170037e+18,7.675037109375,-0.0131335854530334,0.0861072540283203,0.0655426979064941,0.0041278963908553,-0.0037284223362803,-0.0007989476434886
1.7726373092100227e+18,7.715022705078125,-0.0086572170257568,0.0855436325073242,0.0618376731872558,0.0019973691087216,-0.0010652635246515,-0.0002663158811628
1.7726373092300155e+18,7.735015380859375,-0.003966212272644,0.09014892578125,0.0669875144958496,0.0027963167522102,-0.0005326317623257,-0.0013315794058144
1.7726373092500083e+18,7.75500830078125,0.0050929188728332,0.0850114822387695,0.0580029487609863,-0.0011984214652329,0.002130527049303,-0.0031957905739545
1.7726373092700012e+18,7.775001220703125,0.009119689464569,0.1180543899536132,0.0444879531860351,0.0001331579405814,-0.0010652635246515,-0.0013315794058144
1.772637309289994e+18,7.794993896484375,0.023074448108673,0.1026744842529296,0.0314583778381347,-0.0003994738217443,-0.0039947382174432,0.0013315794058144
1.772637309309987e+18,7.814987060546875,-0.0008925795555114,0.0931291580200195,0.0361714363098144,-0.0030626326333731,-0.0029294746927917,0.0055926335044205
1.77263730932998e+18,7.83497998046875,0.0088922381401062,0.0887489318847656,0.044954776763916,-0.003328948514536,-0.0023968429304659,0.0071905287913978
1.7726373093499727e+18,7.85497265625,0.0142064690589904,0.0796575546264648,0.0392742156982421,0.0014647373463958,-0.0029294746927917,0.0053263176232576
1.7726373093699656e+18,7.874965576171875,0.0097330808639526,0.1037778854370117,0.0581655502319335,0.0035952643956989,-0.0023968429304659,0.0037284223362803
1.7726373093899584e+18,7.89495849609375,-0.0239656567573547,0.0893173217773437,0.0774703025817871,0.0017310532275587,0.0023968429304659,0.0031957905739545
1.7726373094099512e+18,7.914951171875,-0.0144024491310119,0.0841236114501953,0.0693049430847168,0.0025300008710473,0.0063915811479091,0.0026631588116288
1.772637309429945e+18,7.934945068359375,-9.79304313659e-05,0.0693073272705078,0.060612678527832,0.0038615802768617,0.0055926335044205,0.0026631588116288
1.772637309449939e+18,7.95493896484375,-0.0004955530166625,0.083322525024414,0.0516786575317382,0.0075900023803114,0.006657897029072,0.0031957905739545
1.772637309469933e+18,7.97493310546875,-0.0061373114585876,0.0687332153320312,0.0471572875976562,0.0054594753310084,0.0037284223362803,0.0045273699797689
1.772637309489927e+18,7.994927001953125,-0.0161764621734619,0.0881633758544921,0.0656886100769043,0.0019973691087216,0.0042610540986061,0.0018642111681401
1.7726373095099208e+18,8.014920654296875,-0.0018556118011474,0.1267547607421875,0.0747241973876953,0.00093210558407,0.0018642111681401,-0.0039947382174432
1.772637309529915e+18,8.034914794921875,0.0109694600105285,0.10302734375,0.059572696685791,-0.0025300008710473,0.0005326317623257,-0.0047936858609318
1.7726373095499087e+18,8.05490869140625,-0.0094140768051147,0.0888223648071289,0.0877285003662109,-0.0030626326333731,0.0002663158811628,-0.0031957905739545
1.7726373095699028e+18,8.07490283203125,-0.0145763158798217,0.1031417846679687,0.0590190887451171,-0.0022636849898844,-0.0031957905739545,-0.0002663158811628
1.7726373095898967e+18,8.094896728515625,-0.0142629146575927,0.0886068344116211,0.0408482551574707,-0.0011984214652329,-0.0031957905739545,0.0042610540986061
1.7726373096098906e+18,8.114890625,-0.0142453908920288,0.0740318298339843,0.036468505859375,-0.0011984214652329,-0.0039947382174432,0.0055926335044205
1.7726373096298847e+18,8.134884765625,-0.0145213603973388,0.0976409912109375,0.0514898300170898,-0.0019973691087216,-0.0042610540986061,0.0047936858609318
1.7726373096498785e+18,8.15487841796875,-0.0002023577690124,0.1021633148193359,0.0472416877746582,0.0027963167522102,-0.0023968429304659,0.0034621064551174
1.7726373096698726e+18,8.17487255859375,-0.0141500830650329,0.1018810272216796,0.0335254669189453,0.003328948514536,-0.002130527049303,-0.0007989476434886
1.7726373096898665e+18,8.194866455078126,-0.0042371749877929,0.1021976470947265,0.0323691368103027,-0.0030626326333731,-0.0053263176232576,-0.0015978952869772
1.7726373097098606e+18,8.214860595703126,-0.0096725225448608,0.0968828201293945,0.0380988121032714,0.0022636849898844,-0.0053263176232576,-0.0045273699797689
1.7726373097298545e+18,8.2348544921875,-0.0143354535102844,0.1153955459594726,0.029268741607666,0.0065247388556599,-0.0045273699797689,-0.0031957905739545
1.7726373097498483e+18,8.254848388671874,0.0286983847618103,0.0958881378173828,0.0347375869750976,0.0014647373463958,-0.0058589493855834,0.0
1.7726373097698424e+18,8.274842529296874,-0.024925410747528,0.1098155975341796,0.0689954757690429,-0.0031957905739545,-0.0077231605537235,0.002130527049303
1.7726373097898363e+18,8.294836181640624,-0.0351476073265075,0.0806770324707031,0.0792484283447265,-0.0053263176232576,-0.0074568446725606,0.0026631588116288
1.7726373098098304e+18,8.314830322265625,-0.0206303000450134,0.0754976272583007,0.0656914710998535,-0.0018642111681401,-0.0063915811479091,0.0037284223362803
1.7726373098298243e+18,8.33482421875,-0.0394936203956604,0.0847158432006836,0.0802688598632812,-0.0026631588116288,-0.0031957905739545,0.0031957905739545
1.772637309849818e+18,8.354818115234375,-0.0211045145988464,0.0891017913818359,0.0809326171875,-0.0055926335044205,-0.0058589493855834,0.0050600017420947
1.7726373098698122e+18,8.374812255859375,-0.0178630352020263,0.0551433563232421,0.0862674713134765,-0.0043942118063569,-0.0114515833556652,0.0050600017420947
1.772637309889806e+18,8.39480615234375,-0.0334234833717346,0.0410718917846679,0.1015863418579101,-0.0030626326333731,-0.0109189506620168,0.0079894764348864
1.7726373099098002e+18,8.41480029296875,-0.0009211301803588,0.1358442306518554,0.0687489509582519,-0.0059921070933341,-0.0079894764348864,0.0063915811479091
1.772637309929794e+18,8.4347939453125,-0.0027577280998229,0.1064882278442382,0.0552387237548828,-0.0019973691087216,-0.0106526352465152,0.0045273699797689
1.772637309949788e+18,8.454787841796875,-0.0229840278625488,0.0775299072265625,0.0225148200988769,-0.0001331579405814,-0.0093210563063621,0.0061252652667462
1.7726373099697818e+18,8.47478173828125,-0.0095385909080505,0.1015501022338867,0.0221943855285644,-0.0027963167522102,-0.0106526352465152,0.0042610540986061
1.7726373099897754e+18,8.494775390625,-0.0103519558906555,0.1160287857055664,0.0553460121154785,-0.0049268435686826,-0.0069242129102349,0.0069242129102349
1.7726373100097692e+18,8.514769287109376,-0.0063719153404235,0.1014184951782226,0.0412921905517578,-0.0027963167522102,-0.0050600017420947,0.0047936858609318
1.772637310029763e+18,8.53476318359375,-0.0219171643257141,0.1057310104370117,0.0707674026489257,0.0067910552024841,-0.0023968429304659,0.0053263176232576
1.772637310049757e+18,8.5547568359375,-0.0322305560111999,0.1097669601440429,0.0673623085021972,0.0091878976672887,0.0005326317623257,-0.0005326317623257
1.7726373100697508e+18,8.574750732421874,-0.0417978763580322,0.0807228088378906,0.0583877563476562,0.0059921070933341,0.0034621064551174,-0.0023968429304659
1.7726373100897446e+18,8.59474462890625,-0.0075156092643737,0.0808372497558593,0.048126220703125,0.0150468470528721,0.0093210563063621,0.0055926335044205
1.7726373101097385e+18,8.614738525390624,-0.0023645758628845,0.0808868408203125,0.038520336151123,0.0118510564789175,0.0085221081972122,0.002130527049303
1.7726373101297324e+18,8.634732421875,-0.035952091217041,0.081155776977539,0.0619177818298339,0.0091878976672887,0.0063915811479091,-0.0013315794058144
1.7726373101497262e+18,8.654726318359375,-0.0162146091461181,0.1195850372314453,0.0570383071899414,0.0073236869648098,0.0050600017420947,-0.0026631588116288
1.77263731016972e+18,8.674719970703125,-0.0069209933280944,0.1383733749389648,0.0385761260986328,0.0041278963908553,-0.0013315794058144,-0.0007989476434886
1.772637310189714e+18,8.6947138671875,-0.0168268084526062,0.0996665954589843,0.0392804145812988,0.0043942118063569,-0.0010652635246515,0.0031957905739545
1.7726373102097078e+18,8.714707763671875,0.0023504495620727,0.0620355606079101,0.0294985771179199,0.004660528153181,-0.0034621064551174,0.0061252652667462
1.7726373102297014e+18,8.734701416015625,0.0023908019065856,0.052931785583496,0.042914867401123,0.0022636849898844,0.0013315794058144,0.0074568446725606
1.7726373102496952e+18,8.7546953125,-0.0170899629592895,0.0860004425048828,0.061746597290039,0.0006657897029072,0.0037284223362803,0.0005326317623257
1.772637310269689e+18,8.774689208984375,-0.0410283803939819,0.0907192230224609,0.071481704711914,0.0001331579405814,0.0098536871373653,-0.0010652635246515
1.772637310289683e+18,8.794682861328125,0.002464473247528,0.114206314086914,0.033581256866455,0.0041278963908553,0.0079894764348864,-0.002130527049303
1.7726373103096768e+18,8.8146767578125,0.0168203711509704,0.0807857513427734,0.0153899192810058,0.0003994738217443,0.0050600017420947,-0.0029294746927917
1.7726373103296707e+18,8.834670654296875,-0.0029364228248596,0.0472002029418945,0.0105748176574707,0.0022636849898844,0.006657897029072,0.0018642111681401
1.7726373103496645e+18,8.85466455078125,-0.0129095315933227,0.0717172622680664,0.0333104133605957,0.003328948514536,0.002130527049303,0.0034621064551174
1.7726373103696584e+18,8.874658447265626,-0.0122429132461547,0.1052179336547851,0.0610489845275878,0.0001331579405814,-0.0007989476434886,0.0023968429304659
1.7726373103896522e+18,8.89465234375,0.0347007513046264,0.1201381683349609,0.0693230628967285,-0.0006657897029072,-0.0013315794058144,-0.0045273699797689
1.772637310409646e+18,8.91464599609375,-0.015430212020874,0.120248794555664,0.0494790077209472,-0.00093210558407,-0.0015978952869772,-0.0034621064551174
1.772637310429639e+18,8.934638916015626,-0.040393054485321,0.0918521881103515,0.0162391662597656,0.0003994738217443,-0.0034621064551174,-0.0002663158811628
1.7726373104496315e+18,8.954631591796876,0.0028068423271179,0.0772933959960937,0.026216983795166,-0.0006657897029072,0.0007989476434886,0.0042610540986061
1.772637310469624e+18,8.9746240234375,0.0225109457969665,0.1008443832397461,0.0211424827575683,-0.003328948514536,-0.0018642111681401,0.0061252652667462
1.7726373104896166e+18,8.99461669921875,-0.0015197992324829,0.0959463119506836,0.0506892204284668,-0.0011984214652329,-0.0053263176232576,0.0047936858609318
1.7726373105096092e+18,9.014609130859377,-0.0255020856857299,0.1100034713745117,0.0704894065856933,0.0025300008710473,-0.0042610540986061,-0.0047936858609318
1.7726373105296018e+18,9.034601806640625,0.0133763551712036,0.1046342849731445,0.0621914863586425,-0.0025300008710473,-0.0013315794058144,-0.0058589493855834
1.7726373105495944e+18,9.054594482421876,0.0188748836517334,0.0943756103515625,0.0349640846252441,-0.0011984214652329,0.0026631588116288,-0.0074568446725606
1.772637310569587e+18,9.0745869140625,0.000722587108612,0.1080570220947265,0.0030350685119628,0.0121173728257417,0.0007989476434886,-0.0063915811479091
1.7726373105895795e+18,9.09457958984375,-0.0264034867286682,0.097900390625,0.0332803726196289,0.0105194775387644,-0.0002663158811628,-0.0005326317623257
1.772637310609572e+18,9.114572021484374,-0.01515394449234,0.0783758163452148,0.0487256050109863,0.0025300008710473,0.0005326317623257,0.002130527049303
1.7726373106295647e+18,9.134564697265626,-0.0187824964523315,0.0641679763793945,0.05820894241333,-0.0019973691087216,0.0013315794058144,-0.0002663158811628
1.7726373106495572e+18,9.15455712890625,0.0013250708580017,0.0979557037353515,0.0866398811340332,-0.0011984214652329,0.0015978952869772,-0.0002663158811628
1.7726373106695498e+18,9.1745498046875,-0.0113345384597778,0.1172571182250976,0.0962905883789062,0.0001331579405814,-0.0005326317623257,0.0013315794058144
1.7726373106895424e+18,9.19454248046875,-0.0042561888694763,0.1027345657348632,0.0491485595703125,0.0001331579405814,0.0047936858609318,0.0058589493855834
1.772637310709535e+18,9.214534912109375,0.0125123262405395,0.0832910537719726,0.0262479782104492,-0.0017310532275587,0.0047936858609318,0.0077231605537235
1.7726373107295278e+18,9.23452783203125,0.0191357731819152,0.0881271362304687,0.0456886291503906,-0.0035952643956989,0.002130527049303,0.0087884236127138
1.7726373107495201e+18,9.25452001953125,-0.0082925558090209,0.0839185714721679,0.0639400482177734,-0.0070573706179857,-0.0005326317623257,0.0082557927817106
1.772637310769513e+18,9.274512939453125,-0.0215731859207153,0.0564584732055664,0.0867214202880859,-0.0134489517658948,-0.0055926335044205,0.0090547399595379
1.7726373107895055e+18,9.294505615234376,-0.0155969858169555,0.0715284347534179,0.0903396606445312,-0.010785792954266,-0.0061252652667462,0.0039947382174432
1.772637310809498e+18,9.314498046875,-0.0089489817619323,0.0908536911010742,0.0891661643981933,-0.0081226341426372,-0.0042610540986061,-0.0013315794058144
1.7726373108294907e+18,9.33449072265625,0.021769642829895,0.0778999328613281,0.0543599128723144,-0.0097205294296145,-0.0058589493855834,0.0005326317623257
1.7726373108694758e+18,9.374475830078126,-0.0005496740341186,0.1019363403320312,0.0533123016357421,-0.0131826363503932,-0.0031957905739545,0.002130527049303
1.7726373108894684e+18,9.394468505859376,0.0143646597862243,0.1256752014160156,0.0065441131591796,-0.016911057755351,-0.0047936858609318,0.006657897029072
1.772637310909461e+18,9.4144609375,0.0200355648994445,0.1251077651977539,0.0174536705017089,-0.0142478998750448,-0.0013315794058144,0.0045273699797689
1.7726373109294543e+18,9.434454345703124,-0.0076628923416137,0.1243820190429687,0.0191359519958496,-0.0075900023803114,0.0002663158811628,-0.002130527049303
1.772637310949448e+18,9.454447998046875,-0.0149457454681396,0.1469221115112304,0.0032997131347656,-0.0073236869648098,-0.0010652635246515,-0.0061252652667462
1.7726373109694418e+18,9.47444189453125,-0.0164704322814941,0.1167745590209961,0.0067815780639648,-0.0041278963908553,0.0045273699797689,-0.0061252652667462
1.7726373109894354e+18,9.494435302734376,-0.0045583844184875,0.1017179489135742,0.0325803756713867,-0.0025300008710473,0.0119842141866683,-0.0071905287913978
1.7726373110094292e+18,9.51442919921875,-0.0219739079475402,0.0777502059936523,0.0137872695922851,-0.004660528153181,0.0135821104049682,-0.0079894764348864
1.7726373110294228e+18,9.5344228515625,-0.0290443301200866,0.0492191314697265,0.0376844406127929,-0.0014647373463958,0.0127831622958183,-0.0058589493855834
1.7726373110494167e+18,9.554416748046876,-0.0083895921707153,0.0826530456542968,0.0430912971496582,0.0017310532275587,0.0157126374542713,-0.0053263176232576
1.7726373110694103e+18,9.574410400390626,0.0074188113212585,0.1249275207519531,0.1073594093322753,0.0027963167522102,0.0130494777113199,-0.002130527049303
1.7726373110894042e+18,9.594404052734374,-0.0062301754951477,0.0953264236450195,0.1128249168395996,0.00093210558407,0.0117178987711668,0.0045273699797689
1.7726373111093978e+18,9.614397705078124,-0.0106738209724426,0.0529327392578125,0.0743098258972168,-0.0003994738217443,0.0085221081972122,0.0069242129102349
1.7726373111293916e+18,9.6343916015625,-0.0001914501190185,0.0585403442382812,0.0632534027099609,-0.0065247388556599,0.0063915811479091,0.0122505305334925
1.7726373111493852e+18,9.65438525390625,-0.0130569338798522,0.0875062942504882,0.0858435630798339,-0.013715268112719,0.0058589493855834,0.0197073742747306
1.772637311169379e+18,9.674379150390624,0.007144808769226,0.1024599075317382,0.0800786018371582,-0.0153131633996963,0.0047936858609318,0.0157126374542713
1.7726373111893727e+18,9.69437255859375,0.0026830434799194,0.0845489501953125,0.0836138725280761,-0.008655265904963,0.0018642111681401,0.0050600017420947
1.7726373112093665e+18,9.714366455078125,-0.0211008787155151,0.0424060821533203,0.1246757507324218,-0.0094542140141129,0.0023968429304659,0.0
1.77263731122936e+18,9.734360107421876,-0.0396261811256408,0.0625448226928711,0.1132378578186035,-0.0121173728257417,-0.0005326317623257,0.0007989476434886
1.772637311249354e+18,9.75435400390625,-0.0150743722915649,0.0964517593383789,0.0599045753479003,-0.0121173728257417,-0.0034621064551174,0.0082557927817106
1.7726373112693476e+18,9.77434765625,0.0037624239921569,0.1018409729003906,0.030001163482666,-0.0099868457764387,-0.0063915811479091,0.0143810575827956
1.7726373112893414e+18,9.794341552734377,7.25388526916e-05,0.0925512313842773,0.0290026664733886,-0.0035952643956989,-0.0037284223362803,0.0061252652667462
1.772637311309335e+18,9.8143349609375,0.0338629484176635,0.1125459671020507,0.013594627380371,-0.0030626326333731,0.0010652635246515,-0.0053263176232576
1.772637311329329e+18,9.834328857421877,0.0086879134178161,0.1186666488647461,0.0346159934997558,-0.0059921070933341,0.0037284223362803,-0.0090547399595379
1.7726373113493225e+18,9.854322509765623,-0.0296759009361267,0.1246986389160156,0.0271821022033691,-0.0081226341426372,0.0002663158811628,-0.0050600017420947
1.7726373113693164e+18,9.87431640625,-0.000416874885559,0.135014533996582,0.0259032249450683,-0.0051931599155068,-0.0015978952869772,-0.0055926335044205
1.77263731138931e+18,9.89431005859375,0.0020710825920104,0.1354341506958007,0.0447006225585937,0.0030626326333731,0.0015978952869772,-0.0093210563063621
1.7726373114093038e+18,9.9143037109375,0.0142772197723388,0.1210756301879882,0.0451827049255371,0.0017310532275587,0.0053263176232576,-0.0109189506620168
1.7726373114292972e+18,9.934297119140624,0.0057758688926696,0.0826425552368164,0.064765453338623,-0.0003994738217443,0.0071905287913978,-0.0074568446725606
1.7726373114492902e+18,9.954290283203123,0.0027893781661987,0.0968179702758789,0.0703067779541015,0.0030626326333731,0.0095873717218637,-0.0053263176232576
1.7726373114692836e+18,9.97428369140625,0.023497462272644,0.1014928817749023,0.066049575805664,-0.0001331579405814,0.0090547399595379,-0.0098536871373653
1.7726373114892767e+18,9.994276611328123,0.0288643836975097,0.0871772766113281,0.0462799072265625,-0.0041278963908553,0.0031957905739545,-0.0082557927817106
1.77263731150927e+18,10.01427001953125,0.0052171349525451,0.0923728942871093,0.031142234802246,0.0019973691087216,-0.0010652635246515,-0.0130494777113199
1.772637311529263e+18,10.03426318359375,-0.0040377378463745,0.079202651977539,0.0394458770751953,0.0041278963908553,-0.0058589493855834,-0.0170442163944244
1.7726373115492564e+18,10.05425634765625,0.0326882004737854,0.1031970977783203,0.0661001205444336,-0.0041278963908553,-0.0042610540986061,-0.011185267008841
1.7726373115692498e+18,10.074249755859377,0.0069348216056823,0.1036834716796875,0.0695571899414062,-0.0134489517658948,-0.0069242129102349,-0.0050600017420947
1.772637311589243e+18,10.094242919921877,0.0050438046455383,0.0906238555908203,0.0773172378540039,-0.0203731656074523,-0.0077231605537235,0.0018642111681401
1.7726373116092362e+18,10.114236328125,-0.0149636268615722,0.0962162017822265,0.0514545440673828,-0.0150468470528721,-0.0090547399595379,0.0047936858609318
1.7726373116292293e+18,10.134229248046877,-0.0070722699165344,0.0965614318847656,0.0601191520690918,-0.0105194775387644,-0.0063915811479091,0.0031957905739545
1.7726373116492227e+18,10.15422265625,-0.0122957825660705,0.1014900207519531,0.0500564575195312,-0.0131826363503932,-0.0037284223362803,0.0050600017420947
1.7726373116692157e+18,10.1742158203125,-0.017786681652069,0.1016387939453125,0.0448284149169921,-0.008655265904963,-0.0047936858609318,0.0015978952869772
1.772637311689209e+18,10.194208984375,0.0047845244407653,0.1010494232177734,0.0356698036193847,-0.0049268435686826,-0.0037284223362803,-0.0005326317623257
1.7726373117092022e+18,10.2142021484375,-0.0197782516479492,0.1104593276977539,0.0262036323547363,-0.00093210558407,-0.002130527049303,-0.006657897029072
1.7726373117291955e+18,10.234195556640625,-0.0110910534858703,0.1007070541381836,0.0360755920410156,-0.0001331579405814,-0.0042610540986061,-0.0079894764348864
1.7726373117491886e+18,10.254188720703125,-0.002359926700592,0.0911941528320312,0.069307804107666,0.0057257916778326,-0.0061252652667462,-0.0069242129102349
1.772637311769182e+18,10.274181884765625,-0.0264403223991394,0.0963945388793945,0.0827054977416992,0.008655265904963,-0.0037284223362803,-0.0077231605537235
1.772637311789175e+18,10.294175048828125,-0.0038930773735046,0.0966377258300781,0.0820503234863281,0.0083889504894614,-0.0015978952869772,-0.0109189506620168
1.7726373118091684e+18,10.31416845703125,-0.0098072886466979,0.1060686111450195,0.0773429870605468,0.0067910552024841,-0.0018642111681401,-0.0077231605537235
1.7726373118291617e+18,10.33416162109375,-0.0008942484855651,0.0771636962890625,0.0679569244384765,0.0049268435686826,-0.0010652635246515,-0.0037284223362803
1.7726373118491548e+18,10.35415478515625,-0.0015614628791809,0.0819063186645507,0.0487632751464843,0.0057257916778326,0.0007989476434886,-0.0018642111681401
1.7726373118691482e+18,10.374148193359376,-0.0070359706878662,0.0963335037231445,0.0580983161926269,0.0078563187271356,0.0071905287913978,-0.0034621064551174
1.7726373118891412e+18,10.394141357421876,-0.0168085098266601,0.0966520309448242,0.081369400024414,0.0089215822517871,0.0061252652667462,-0.0010652635246515
1.7726373119091346e+18,10.414134521484376,-0.0118941664695739,0.1062955856323242,0.0812635421752929,0.0051931599155068,0.0045273699797689,0.0007989476434886
1.7726373119291287e+18,10.434128662109377,0.0171141624450683,0.115727424621582,0.0576663017272949,0.0049268435686826,0.0023968429304659,0.0
1.7726373119491233e+18,10.454123291015623,0.002720832824707,0.1059846878051757,0.034036636352539,0.0057257916778326,0.0031957905739545,-0.0031957905739545
1.7726373119691182e+18,10.4741181640625,-0.0120789408683776,0.0872554779052734,0.0486621856689453,0.0057257916778326,0.0029294746927917,-0.0050600017420947
1.7726373119891128e+18,10.49411279296875,0.0065405368804931,0.0961780548095703,0.0486750602722168,0.0091878976672887,0.0058589493855834,-0.002130527049303
1.7726373120091077e+18,10.514107666015626,-0.0080580115318298,0.0914783477783203,0.0622172355651855,0.0073236869648098,0.0058589493855834,0.0015978952869772
1.7726373120291023e+18,10.534102294921874,-0.0079323053359985,0.0827159881591796,0.0761656761169433,0.0054594753310084,0.0047936858609318,0.0002663158811628
1.7726373120490972e+18,10.55409716796875,0.0157827734947204,0.1016197204589843,0.0562677383422851,0.0067910552024841,0.0050600017420947,-0.0015978952869772
1.7726373120690918e+18,10.574091796875,0.0011847615242004,0.0928668975830078,0.0605454444885253,0.0059921070933341,0.006657897029072,-0.0026631588116288
1.7726373120890867e+18,10.594086669921875,-0.0184088945388793,0.0830602645874023,0.0513348579406738,0.0022636849898844,0.0050600017420947,-0.0026631588116288
1.7726373121090813e+18,10.614081298828124,-0.0042757391929626,0.1204090118408203,0.0376882553100585,0.0001331579405814,0.0029294746927917,0.0007989476434886
1.7726373121490708e+18,10.65407080078125,-0.0003349184989929,0.0823125839233398,0.0382704734802246,-0.0003994738217443,0.0015978952869772,0.0018642111681401
1.7726373121690657e+18,10.674065673828125,-0.0193397402763366,0.0921306610107421,0.0569868087768554,0.0022636849898844,0.002130527049303,0.0015978952869772
1.7726373121890604e+18,10.694060302734377,0.0005427002906799,0.0973262786865234,0.0467209815979003,0.0030626326333731,0.0007989476434886,-0.0007989476434886
1.772637312209055e+18,10.714054931640623,0.0242133140563964,0.0980310440063476,0.0835561752319336,-0.0003994738217443,-0.0002663158811628,-0.0010652635246515
1.7726373122290499e+18,10.7340498046875,-0.0065315961837768,0.0984983444213867,0.0822067260742187,-0.0006657897029072,-0.0013315794058144,-0.0029294746927917
1.7726373122490445e+18,10.75404443359375,-0.0173601508140563,0.0889167785644531,0.0819578170776367,0.0014647373463958,0.0002663158811628,-0.0039947382174432
1.7726373122690394e+18,10.774039306640624,-0.0086769461631774,0.0983133316040039,0.0438318252563476,0.0006657897029072,-0.0013315794058144,0.0
1.772637312289034e+18,10.794033935546874,0.004004955291748,0.1065425872802734,0.0408415794372558,0.0022636849898844,-0.0002663158811628,0.0037284223362803
1.7726373123090289e+18,10.81402880859375,0.0111807584762573,0.0868539810180664,0.0749673843383789,-0.0006657897029072,-0.0018642111681401,0.0042610540986061
1.7726373123290235e+18,10.8340234375,0.008010983467102,0.0960779190063476,0.0559034347534179,0.0014647373463958,-0.0042610540986061,0.0029294746927917
1.7726373123490184e+18,10.854018310546875,-0.0039700865745544,0.0683135986328125,0.0306882858276367,-0.0003994738217443,-0.0029294746927917,-0.0023968429304659
1.772637312369013e+18,10.874012939453126,0.0063965320587158,0.083414077758789,0.0137648582458496,-0.0051931599155068,-0.0029294746927917,-0.0026631588116288
1.772637312389008e+18,10.8940078125,0.0347571969032287,0.0993537902832031,0.0306105613708496,-0.004660528153181,-0.0031957905739545,-0.0053263176232576
1.7726373124090025e+18,10.91400244140625,0.0020861625671386,0.1376152038574218,0.0845708847045898,0.0057257916778326,-0.0045273699797689,-0.0085221081972122
,,,,,0.0067910552024841,-0.0053263176232576,-0.0026631588116288
,,,,,0.0035952643956989,-0.0034621064551174,0.0
,,,,,0.0078563187271356,0.0013315794058144,0.0039947382174432
,,,,,0.0129163200035691,0.0029294746927917,0.0053263176232576
,,,,,0.0155794788151979,0.0026631588116288,0.0034621064551174
,,,,,0.0209057964384555,0.0034621064551174,-0.0039947382174432
,,,,,0.0027963167522102,-0.0039947382174432,-0.0114515833556652
,,,,,-0.019840532913804,-0.0087884236127138,-0.0138484258204698
,,,,,-0.0406131707131862,-0.013315794058144,-0.0029294746927917
,,,,,-0.0246342197060585,-0.0170442163944244,0.0135821104049682
