time,seconds_elapsed,accel_z,accel_y,accel_x,gyro_x,gyro_y,gyro_z
1.7726372797394824e+18,0.346482421875,-0.022620677947998,0.0745763778686523,0.0575027465820312,-0.0023968429304659,-0.0007989476434886,-0.0029294746927917
1.7726372797594757e+18,0.366475830078125,-0.0229188203811645,0.0890645980834961,0.0853667259216308,0.0047936858609318,-0.0042610540986061,-0.0074568446725606
1.772637279779469e+18,0.386468994140625,-0.0284236669540405,0.0647401809692382,0.1002211570739746,0.0047936858609318,-0.006657897029072,-0.0082557927817106
1.7726372797994627e+18,0.406462646484375,0.0094975233078002,0.0691747665405273,0.0720176696777343,-0.0002663158811628,-0.0058589493855834,-0.0093210563063621
1.772637279819456e+18,0.4264560546875,-0.0042648315429687,0.0978870391845703,0.0584607124328613,-0.006657897029072,-0.0090547399595379,-0.0098536871373653
1.7726372798394493e+18,0.446449462890625,0.0057544708251953,0.1119775772094726,0.0303425788879394,-0.0071905287913978,-0.0098536871373653,-0.0029294746927917
1.7726372798594427e+18,0.466442626953125,-0.0279933214187622,0.1022357940673828,0.0066184997558593,0.0005326317623257,-0.0063915811479091,0.002130527049303
1.7726372798794363e+18,0.486436279296875,0.0008096694946289,0.0883913040161132,-0.0086965560913085,0.0047936858609318,0.002130527049303,0.0039947382174432
1.7726372798994296e+18,0.5064296875,-0.0036736726760864,0.0845041275024414,0.0178980827331542,0.0007989476434886,0.0031957905739545,0.0005326317623257
1.772637279919423e+18,0.526423095703125,-0.0223551988601684,0.0995264053344726,0.0839214324951171,-0.0023968429304659,0.0045273699797689,0.002130527049303
1.7726372799394173e+18,0.546417236328125,-0.0083535909652709,0.123173713684082,0.1035432815551757,0.0,-0.0023968429304659,0.0037284223362803
1.7726372799594117e+18,0.56641162109375,-0.0036567449569702,0.0939970016479492,0.0755553245544433,-0.0050600017420947,-0.0106526352465152,-0.0005326317623257
1.7726372799794058e+18,0.58640576171875,0.0018755197525024,0.0555191040039062,0.080810546875,-0.0095873717218637,-0.0135821104049682,-0.0058589493855834
1.7726372799994002e+18,0.606400146484375,-0.0167741775512695,0.040968894958496,0.1195912361145019,-0.0119842141866683,-0.0157126374542713,-0.0058589493855834
1.7726372800193943e+18,0.626394287109375,-0.0353591442108154,0.0409412384033203,0.1245837211608886,-0.0117178987711668,-0.0210389550775289,0.0005326317623257
1.7726372800393887e+18,0.646388671875,-0.0198999643325805,0.0357036590576171,0.106508731842041,-0.0079894764348864,-0.0167779009789228,0.0077231605537235
1.7726372800593828e+18,0.6663828125,-0.0011330842971801,0.0402469635009765,0.1122422218322753,-0.0119842141866683,-0.0186421126127243,0.0063915811479091
1.7726372800793772e+18,0.686377197265625,-0.0257421731948852,0.0162744522094726,0.1121063232421875,-0.0127831622958183,-0.0167779009789228,0.0047936858609318
1.7726372800993713e+18,0.706371337890625,-0.0211728811264038,0.0309839248657226,0.1401877403259277,-0.0085221081972122,-0.0093210563063621,0.0031957905739545
1.7726372801193656e+18,0.72636572265625,-0.0166783332824707,0.0982675552368164,0.1205668449401855,-0.0093210563063621,-0.0061252652667462,0.0053263176232576
1.7726372801393597e+18,0.74635986328125,-0.01175057888031,0.0887832641601562,0.0868854522705078,-0.0069242129102349,-0.0079894764348864,0.0053263176232576
1.772637280159354e+18,0.76635400390625,-0.0118581056594848,0.0695047378540039,0.0726938247680664,0.002130527049303,-0.0050600017420947,0.0015978952869772
1.7726372801793485e+18,0.786348388671875,-0.0310021638870239,0.0600099563598632,0.0917043685913086,0.0026631588116288,0.0002663158811628,-0.0029294746927917
1.7726372801993426e+18,0.806342529296875,-0.0446188449859619,0.0649652481079101,0.0866575241088867,0.0031957905739545,0.0053263176232576,-0.0039947382174432
1.772637280219337e+18,0.8263369140625,-0.0353269577026367,0.0841655731201171,0.0531363487243652,0.0034621064551174,0.0047936858609318,-0.0023968429304659
1.772637280239331e+18,0.8463310546875,-0.0303747653961181,0.0797634124755859,0.0716385841369628,0.0018642111681401,0.0037284223362803,0.0
1.7726372802593254e+18,0.866325439453125,-0.0535416603088378,0.0611610412597656,0.070070743560791,0.0037284223362803,0.0047936858609318,-0.0005326317623257
1.7726372802793196e+18,0.886319580078125,-0.0441733598709106,0.0518350601196289,0.050389289855957,0.0013315794058144,0.0047936858609318,-0.0013315794058144
1.772637280299314e+18,0.90631396484375,-0.0631481409072876,0.0855598449707031,0.0740523338317871,0.0007989476434886,0.0042610540986061,-0.0013315794058144
1.772637280319308e+18,0.92630810546875,-0.0436593294143676,0.0998964309692382,0.0310864448547363,0.0010652635246515,0.0037284223362803,-0.0026631588116288
1.7726372803393024e+18,0.946302490234375,0.0039905309677124,0.118865966796875,-0.0020127296447753,-0.0026631588116288,-0.0013315794058144,-0.0045273699797689
1.7726372803592965e+18,0.966296630859375,0.0008467435836791,0.1241226196289062,0.0215277671813964,-0.0013315794058144,-0.0034621064551174,-0.0039947382174432
1.772637280379291e+18,0.986290771484375,-0.0062249898910522,0.1156339645385742,-0.0085482597351074,0.0010652635246515,0.0007989476434886,-0.002130527049303
1.7726372803992852e+18,1.00628515625,-0.0078151226043701,0.1168794631958007,0.0091838836669921,0.0013315794058144,0.0061252652667462,-0.0018642111681401
1.772637280419279e+18,1.026279052734375,-0.0142436027526855,0.1126794815063476,0.0370745658874511,0.0018642111681401,0.0058589493855834,0.0013315794058144
1.772637280439272e+18,1.04627197265625,0.0072280168533325,0.1266279220581054,0.0576019287109375,0.0,0.0093210563063621,-0.0002663158811628
1.7726372804592648e+18,1.0662646484375,0.0146946907043457,0.1164751052856445,0.0413551330566406,-0.0082557927817106,0.0095873717218637,-0.0071905287913978
1.7726372804792576e+18,1.086257568359375,0.0220116376876831,0.0685358047485351,0.0372629165649414,-0.0114515833556652,0.0087884236127138,-0.0095873717218637
1.7726372804992504e+18,1.10625048828125,0.0004776716232299,0.0640850067138671,0.0181021690368652,-0.0209057964384555,-0.0010652635246515,-0.0063915811479091
1.7726372805192435e+18,1.126243408203125,-0.0063104629516601,0.0735578536987304,0.0812959671020507,-0.0211721118539571,-0.0119842141866683,0.0055926335044205
1.7726372805392364e+18,1.146236328125,0.0052617788314819,0.0445671081542968,0.1349434852600097,-0.0266315881162881,-0.0221042186021804,0.0138484258204698
1.7726372805592292e+18,1.166229248046875,0.014426827430725,0.0443983078002929,0.1734700202941894,-0.0338221155107021,-0.0298273786902427,0.0114515833556652
1.772637280579222e+18,1.186221923828125,-0.0392494201660156,0.0291805267333984,0.174598217010498,-0.035420011729002,-0.040480013936758,0.0069242129102349
1.7726372805992148e+18,1.20621484375,-0.0590587854385376,0.0280895233154296,0.1428732872009277,-0.0418115928769111,-0.0468715950846672,0.0093210563063621
1.7726372806192077e+18,1.226207763671875,-0.0550116300582885,-0.0245800018310546,0.1293349266052246,-0.0396810658276081,-0.0450073853135108,0.0122505305334925
1.7726372806392008e+18,1.24620068359375,-0.0655133724212646,-0.0291748046875,0.1958203315734863,-0.0300936941057443,-0.0447410680353641,0.0093210563063621
1.7726372806591936e+18,1.266193603515625,-0.058056354522705,0.027714729309082,0.1904945373535156,-0.0181094799190759,-0.0466052778065204,0.0098536871373653
1.7726372806791864e+18,1.2861865234375,-0.0512284040451049,0.0364866256713867,0.1625075340270996,-0.0154463211074471,-0.0396810658276081,0.0154463211074471
1.7726372806991793e+18,1.30617919921875,-0.0528311729431152,0.0165157318115234,0.1491856575012207,-0.0114515833556652,-0.0279631670564413,0.0130494777113199
1.772637280719172e+18,1.326172119140625,-0.0355513095855712,0.0257511138916015,0.1349520683288574,-0.0039947382174432,-0.0138484258204698,0.0037284223362803
1.772637280739165e+18,1.3461650390625,-0.0329682826995849,0.0401172637939453,0.120025634765625,0.0037284223362803,-0.0095873717218637,-0.0042610540986061
1.7726372807591578e+18,1.36615771484375,-0.0488011837005615,0.0500011444091796,0.0711979866027832,0.0154463211074471,-0.002130527049303,0.0015978952869772
1.7726372807791508e+18,1.38615087890625,-0.0350581407546997,0.0747356414794921,0.0648331642150878,0.0151800047606229,0.0055926335044205,0.0058589493855834
1.7726372807991437e+18,1.406143798828125,-0.0173501968383789,0.047499656677246,0.1049985885620117,0.0149136893451213,0.0117178987711668,0.0026631588116288
1.7726372808191365e+18,1.426136474609375,-0.0184898376464843,0.05828857421875,0.1073122024536132,0.0242347456514835,0.019441058859229,-0.0034621064551174
1.7726372808391293e+18,1.44612939453125,-0.0101188421249389,0.1020040512084961,0.1107125282287597,0.0226368494331836,0.0213052704930305,-0.0074568446725606
1.7726372808591222e+18,1.4661220703125,-0.039139986038208,0.0878324508666992,0.0664019584655761,0.0183757953345775,0.0226368494331836,-0.0103863198310136
1.772637280879115e+18,1.486114990234375,-0.0170798301696777,0.0494012832641601,0.0375080108642578,0.0170442163944244,0.0234357975423336,-0.0167779009789228
1.772637280899108e+18,1.506108154296875,-0.014420747756958,0.0683012008666992,0.0799512863159179,0.0165115855634212,0.0207726396620273,-0.0199736915528774
1.772637280919101e+18,1.526100830078125,0.0028426647186279,0.0871515274047851,0.0848188400268554,0.0183757953345775,0.019441058859229,-0.0135821104049682
1.7726372809390938e+18,1.54609375,0.0065175294876098,0.048720359802246,0.0799226760864257,0.0162452682852745,0.0191747434437274,-0.0087884236127138
1.7726372809590868e+18,1.5660869140625,-0.0092260837554931,0.0626163482666015,0.0564780235290527,0.0170442163944244,0.0189084280282259,-0.0042610540986061
1.7726372809990728e+18,1.60607275390625,0.0013508796691894,0.0518207550048828,0.0433125495910644,0.0191747434437274,0.0167779009789228,-0.0023968429304659
1.7726372810190656e+18,1.626065673828125,-0.0005278587341308,0.0422382354736328,0.0534863471984863,0.0237021129578351,0.0189084280282259,-0.0026631588116288
1.7726372810390587e+18,1.64605859375,-0.025708794593811,0.0844545364379882,0.0728802680969238,0.0201068483293056,0.023169482126832,-0.0039947382174432
1.7726372810590515e+18,1.666051513671875,-0.0024299621582031,0.1125059127807617,0.0847411155700683,0.0203731656074523,0.0250336937606334,-0.0023968429304659
1.7726372810790446e+18,1.686044677734375,0.0215739011764526,0.0976209640502929,0.0808911323547363,0.0217047445476055,0.0205063223838806,0.0015978952869772
1.7726372810990374e+18,1.706037353515625,0.0214569568634033,0.0830545425415039,0.0812101364135742,0.0214384291321039,0.0181094799190759,0.0005326317623257
1.7726372811190305e+18,1.726030517578125,-0.0078045129776,0.0830640792846679,0.1050124168395996,0.0209057964384555,0.019441058859229,0.0015978952869772
1.7726372811390234e+18,1.7460234375,-0.0364841222763061,0.0496997833251953,0.1238799095153808,0.0187752693891525,0.0151800047606229,-0.0007989476434886
1.7726372811590164e+18,1.766016357421875,-0.0265220403671264,0.040471076965332,0.1137571334838867,0.0154463211074471,0.0175768472254276,0.0015978952869772
1.7726372811790093e+18,1.78600927734375,-0.0263350009918212,0.0458040237426757,0.122406005859375,0.0082557927817106,0.0149136893451213,0.0047936858609318
1.7726372811990024e+18,1.80600244140625,-0.0214768648147583,0.0937643051147461,0.108558177947998,0.0039947382174432,0.0071905287913978,0.0018642111681401
1.7726372812189955e+18,1.825995361328125,-0.0261601209640502,0.0883388519287109,0.1193170547485351,0.002130527049303,-0.0015978952869772,0.0013315794058144
1.7726372812389883e+18,1.84598828125,-0.0260578393936157,0.0543212890625,0.0914669036865234,-0.0002663158811628,-0.0026631588116288,-0.0007989476434886
1.7726372812589814e+18,1.8659814453125,-0.0018826723098754,0.0446939468383789,0.0814275741577148,-0.0026631588116288,-0.002130527049303,-0.0018642111681401
1.7726372812789742e+18,1.88597412109375,-0.0158808231353759,0.0686635971069336,0.1000647544860839,-0.0013315794058144,0.002130527049303,-0.0039947382174432
1.772637281298967e+18,1.905967041015625,-0.0156276226043701,0.1060514450073242,0.0545210838317871,-0.0007989476434886,-0.0007989476434886,-0.0037284223362803
1.77263728131896e+18,1.925960205078125,-0.005263328552246,0.0760250091552734,0.0235018730163574,-0.0010652635246515,-0.0007989476434886,0.0045273699797689
1.7726372813389532e+18,1.945953125,-0.0322331190109252,0.0846767425537109,0.0112733840942382,-0.0013315794058144,-0.0010652635246515,0.0063915811479091
1.7726372813789391e+18,1.985939208984375,-0.0545027256011962,0.0985631942749023,0.04118013381958,0.0,0.0015978952869772,0.0034621064551174
1.772637281398932e+18,2.005931884765625,-0.0296545028686523,0.08929443359375,0.0457916259765625,0.0010652635246515,0.0039947382174432,-0.0010652635246515
1.7726372814189248e+18,2.0259248046875,-0.0037199258804321,0.0942325592041015,0.059816837310791,-0.0026631588116288,-0.0010652635246515,0.0055926335044205
1.7726372814389176e+18,2.045917724609375,0.0021222829818725,0.1137733459472656,0.0642004013061523,-0.0053263176232576,-0.0037284223362803,0.0143810575827956
1.7726372814589105e+18,2.065910400390625,-0.030240774154663,0.1329660415649414,0.05487060546875,-0.0106526352465152,-0.0058589493855834,0.0143810575827956
1.772637281478903e+18,2.085903076171875,-0.0372673273086547,0.1182823181152343,0.0271906852722167,-0.0135821104049682,-0.0077231605537235,0.0119842141866683
1.772637281498896e+18,2.105895751953125,-0.0256110429763793,0.0706624984741211,0.0225691795349121,-0.0063915811479091,-0.0103863198310136,0.0050600017420947
1.7726372815188887e+18,2.125888671875,-0.0132989883422851,0.0426645278930664,0.0746231079101562,-0.0117178987711668,-0.0106526352465152,-0.0005326317623257
1.7726372815388813e+18,2.14588134765625,-0.0344172716140747,0.0863990783691406,0.1267876625061035,-0.017310531809926,-0.0119842141866683,0.0018642111681401
1.772637281558874e+18,2.1658740234375,-0.0184621810913085,0.1008539199829101,0.1271991729736328,-0.0149136893451213,-0.0085221081972122,0.0013315794058144
1.772637281578867e+18,2.185866943359375,-0.0023924112319946,0.0859823226928711,0.0997891426086425,-0.0101200034841895,-0.0093210563063621,-0.0007989476434886
1.7726372815988595e+18,2.205859619140625,-0.0113475322723388,0.0380792617797851,0.0759835243225097,-0.0151800047606229,-0.0119842141866683,0.0071905287913978
1.7726372816188524e+18,2.225852294921875,-0.0154385566711425,0.0244398117065429,0.0892109870910644,-0.0237021129578351,-0.0165115855634212,0.0069242129102349
1.7726372816388452e+18,2.24584521484375,-0.0370039939880371,0.0444955825805664,0.0880594253540039,-0.0263652727007865,-0.0181094799190759,0.0002663158811628
1.7726372816588378e+18,2.265837646484375,0.0014071464538574,0.0739517211914062,0.0869483947753906,-0.0242347456514835,-0.0175768472254276,-0.0018642111681401
1.7726372816788306e+18,2.28583056640625,-0.0131698846817016,0.0745401382446289,0.0954160690307617,-0.0213052704930305,-0.0159789528697729,0.002130527049303
1.7726372816988234e+18,2.305823486328125,-0.013252854347229,0.0704603195190429,0.1180667877197265,-0.0186421126127243,-0.0109189506620168,0.0079894764348864
1.772637281718816e+18,2.32581591796875,-0.0138779878616333,0.0759305953979492,0.116673469543457,-0.0119842141866683,-0.0090547399595379,0.0074568446725606
1.7726372817388088e+18,2.345808837890625,-0.0276309251785278,0.0718059539794921,0.0915217399597168,-0.0055926335044205,-0.0042610540986061,-0.0034621064551174
1.7726372817588014e+18,2.365801513671875,-0.0517243146896362,0.0531339645385742,0.1241340637207031,-0.0074568446725606,-0.0015978952869772,-0.0058589493855834
1.7726372817787942e+18,2.385794189453125,-0.0384523868560791,0.0388507843017578,0.1524333953857422,-0.0109189506620168,-0.0018642111681401,-0.0063915811479091
1.772637281798787e+18,2.405787109375,-0.0169827938079834,0.0436534881591796,0.1471343040466308,-0.0042610540986061,-0.0074568446725606,-0.0053263176232576
1.7726372818187796e+18,2.425779541015625,-0.0328449010848999,0.0242900848388671,0.1182169914245605,-0.0050600017420947,-0.0101200034841895,-0.0050600017420947
1.7726372818387725e+18,2.4457724609375,-0.0584040880203247,0.0291671752929687,0.0745291709899902,-0.0034621064551174,-0.011185267008841,-0.0061252652667462
1.7726372818587653e+18,2.465765380859375,-0.0505541563034057,0.0536203384399414,0.1067185401916503,-0.0050600017420947,-0.0106526352465152,-0.0058589493855834
1.772637281878758e+18,2.4857578125,-0.02845299243927,0.0689067840576171,0.1095280647277832,-0.0053263176232576,-0.0103863198310136,-0.0055926335044205
1.7726372818987507e+18,2.505750732421875,-0.0479353666305542,0.0934762954711914,0.1033859252929687,0.002130527049303,-0.0039947382174432,-0.0026631588116288
1.7726372819187436e+18,2.52574365234375,-0.0306791067123413,0.0888576507568359,0.0691976547241211,0.0093210563063621,0.0029294746927917,-0.0029294746927917
1.772637281938737e+18,2.54573681640625,-0.0171166658401489,0.0747890472412109,0.0780210494995117,0.0159789528697729,0.0061252652667462,-0.0015978952869772
1.7726372819587305e+18,2.56573046875,-0.0174165964126586,0.0991315841674804,0.058074951171875,0.0170442163944244,0.0093210563063621,-0.0023968429304659
1.772637281978724e+18,2.58572412109375,-0.0128811597824096,0.1092863082885742,0.0330133438110351,0.0165115855634212,0.0119842141866683,-0.0069242129102349
1.7726372819987174e+18,2.605717529296875,-0.035866379737854,0.090829849243164,0.0462002754211425,0.0149136893451213,0.011185267008841,-0.0125168468803167
1.7726372820187108e+18,2.625710693359375,-0.0221887826919555,0.0770092010498046,0.0499653816223144,0.0138484258204698,0.0138484258204698,-0.0114515833556652
1.7726372820387044e+18,2.645704345703125,-0.0280866622924804,0.0916728973388671,0.0731043815612793,0.0149136893451213,0.0170442163944244,-0.0079894764348864
1.772637282058698e+18,2.665697998046875,-0.0336605310440063,0.0823230743408203,0.0581049919128418,0.019441058859229,0.0218379013240337,-0.0061252652667462
1.7726372820786913e+18,2.68569140625,-0.0189024209976196,0.0729932785034179,0.057746410369873,0.0143810575827956,0.0197073742747306,-0.0074568446725606
1.772637282098685e+18,2.705684814453125,-0.0089479684829711,0.0781774520874023,0.0571303367614746,0.0106526352465152,0.0165115855634212,-0.0077231605537235
1.7726372821186783e+18,2.72567822265625,-0.0322489738464355,0.1025762557983398,0.0469117164611816,0.0063915811479091,0.0130494777113199,-0.0098536871373653
1.7726372821386719e+18,2.745671875,-0.00777268409729,0.0882120132446289,0.0853590965270996,0.0047936858609318,0.0135821104049682,-0.0082557927817106
1.7726372821586652e+18,2.765665283203125,-0.0123717784881591,0.0831718444824218,0.09544038772583,0.0103863198310136,0.0103863198310136,-0.0063915811479091
1.7726372821986522e+18,2.805652099609375,-0.0181750059127807,0.0487575531005859,0.0823993682861328,0.0117178987711668,0.0074568446725606,-0.0055926335044205
1.7726372822186458e+18,2.825645751953125,-0.0082451105117797,0.0630807876586914,0.0825824737548828,0.0045273699797689,0.0087884236127138,-0.0031957905739545
1.772637282238639e+18,2.84563916015625,-0.0025023221969604,0.1013698577880859,0.0685276985168457,0.0023968429304659,0.0095873717218637,-0.0037284223362803
1.7726372822586327e+18,2.8656328125,0.0120624303817749,0.0967998504638671,0.0591912269592285,0.0031957905739545,0.0103863198310136,-0.0061252652667462
1.772637282278626e+18,2.8856259765625,0.0162925720214843,0.111638069152832,0.0725712776184082,0.0010652635246515,0.0106526352465152,-0.0023968429304659
1.7726372822986196e+18,2.90561962890625,-0.0079188346862792,0.1070699691772461,0.0481481552124023,0.0034621064551174,0.0077231605537235,0.0002663158811628
1.772637282318613e+18,2.925613037109375,-0.0029391050338745,0.0976753234863281,0.0430645942687988,0.002130527049303,0.0039947382174432,0.0039947382174432
1.7726372823386066e+18,2.945606689453125,-0.0214462280273437,0.0693807601928711,0.0424170494079589,0.0077231605537235,0.0079894764348864,0.0031957905739545
1.7726372823586e+18,2.965599853515625,-0.0056952238082885,0.0558242797851562,0.0652446746826171,0.0079894764348864,0.0119842141866683,0.0007989476434886
1.7726372823785935e+18,2.985593505859375,0.0041738748550415,0.084909439086914,0.1030330657958984,0.0029294746927917,0.0149136893451213,-0.0005326317623257
1.772637282398587e+18,3.0055869140625,-0.0208526849746704,0.0989761352539062,0.093729019165039,0.0058589493855834,0.0165115855634212,-0.0015978952869772
1.7726372824185805e+18,3.02558056640625,-0.0300908088684082,0.0603237152099609,0.0752429962158203,0.0074568446725606,0.0117178987711668,-0.006657897029072
1.7726372824385743e+18,3.04557421875,0.0284034013748168,0.055368423461914,0.0757980346679687,0.0050600017420947,0.0050600017420947,-0.0058589493855834
1.7726372824585682e+18,3.065568115234375,0.0095195770263671,0.0793256759643554,0.0848550796508789,-0.0007989476434886,-0.002130527049303,-0.0002663158811628
1.772637282478562e+18,3.08556201171875,0.0002055168151855,0.0654125213623046,0.0697121620178222,-0.0045273699797689,-0.0050600017420947,-0.002130527049303
1.7726372824985562e+18,3.10555615234375,-0.0277718305587768,0.037515640258789,0.0444140434265136,-0.0109189506620168,-0.0074568446725606,-0.0047936858609318
1.77263728251855e+18,3.125550048828125,-0.031402587890625,0.0667285919189453,0.0964112281799316,-0.0114515833556652,-0.0101200034841895,-0.0029294746927917
1.7726372825385439e+18,3.1455439453125,-0.0456117391586303,0.0808372497558593,0.1352601051330566,-0.0018642111681401,-0.0103863198310136,0.0007989476434886
1.7726372825585377e+18,3.165537841796875,-0.0263596773147583,0.0564680099487304,0.1505646705627441,0.0007989476434886,-0.0023968429304659,0.0031957905739545
1.7726372825785316e+18,3.185531494140625,-0.0215740203857421,0.0322952270507812,0.1030511856079101,-0.0050600017420947,0.0002663158811628,0.0047936858609318
1.7726372825985254e+18,3.205525390625,-0.0171724557876586,0.0274734497070312,0.098215103149414,-0.006657897029072,-0.0055926335044205,0.0026631588116288
1.7726372826185193e+18,3.225519287109375,-0.0122547149658203,0.0373239517211914,0.1025514602661132,-0.0077231605537235,-0.0101200034841895,0.0
1.7726372826385132e+18,3.24551318359375,-0.0440709590911865,0.0380096435546875,0.0872197151184082,-0.0117178987711668,-0.0165115855634212,-0.0039947382174432
1.7726372826585073e+18,3.26550732421875,-0.0198783874511718,0.0719757080078125,0.0722837448120117,-0.0189084280282259,-0.025300009176135,-0.0034621064551174
1.772637282678501e+18,3.285501220703125,-0.0001829862594604,0.0770044326782226,0.0719885826110839,-0.0165115855634212,-0.0284957997500896,0.0042610540986061
1.772637282698495e+18,3.305494873046875,0.0096467733383178,0.0819759368896484,0.076514720916748,-0.0151800047606229,-0.0237021129578351,0.0090547399595379
1.7726372827184888e+18,3.32548876953125,-0.0280743837356567,0.0818986892700195,0.1006150245666503,-0.0122505305334925,-0.0165115855634212,0.0071905287913978
1.7726372827384827e+18,3.345482666015625,-0.0281965732574462,0.0768909454345703,0.1105561256408691,-0.0042610540986061,-0.011185267008841,0.0031957905739545
1.7726372827584765e+18,3.3654765625,-0.0193685293197631,0.0860586166381836,0.0681509971618652,-0.0015978952869772,-0.0047936858609318,-0.0007989476434886
1.7726372827784704e+18,3.385470458984375,-0.0283918380737304,0.0570955276489257,0.0733251571655273,-0.0042610540986061,-0.0015978952869772,-0.0037284223362803
1.7726372827984645e+18,3.405464599609375,-0.0238810777664184,0.0523853302001953,0.1115903854370117,-0.0050600017420947,0.0037284223362803,-0.0045273699797689
1.7726372828184584e+18,3.425458251953125,-0.032770037651062,0.0715551376342773,0.102022647857666,-0.0031957905739545,-0.0002663158811628,-0.0026631588116288
1.7726372828384522e+18,3.4454521484375,-0.0422857999801635,0.0667839050292968,0.0732564926147461,-0.0047936858609318,-0.002130527049303,-0.0010652635246515
1.772637282858446e+18,3.465446044921875,-0.0240570306777954,0.0377540588378906,0.0784802436828613,-0.002130527049303,-0.0055926335044205,0.0005326317623257
1.77263728287844e+18,3.48543994140625,-0.052057147026062,0.0285234451293945,0.1066222190856933,-0.0037284223362803,-0.0053263176232576,0.0029294746927917
1.7726372828984338e+18,3.505433837890625,-0.0377211570739746,0.057861328125,0.139070987701416,-0.0026631588116288,-0.0071905287913978,0.0047936858609318
1.772637282918428e+18,3.525427978515625,-0.042788028717041,0.0867490768432617,0.114786148071289,-0.0015978952869772,-0.0050600017420947,0.0042610540986061
1.7726372829384223e+18,3.54542236328125,-0.0195702314376831,0.0815801620483398,0.0962777137756347,-0.0031957905739545,-0.0029294746927917,0.0018642111681401
1.7726372829584166e+18,3.565416748046875,-0.0203385353088378,0.0526599884033203,0.0868139266967773,-0.0018642111681401,-0.0007989476434886,-0.0002663158811628
1.772637282978411e+18,3.585410888671875,-0.0291923284530639,0.076756477355957,0.0626344680786132,-0.0015978952869772,-0.002130527049303,0.0002663158811628
1.7726372829984054e+18,3.6054052734375,-0.0198123455047607,0.062225341796875,0.063025951385498,0.0,-0.0018642111681401,0.0026631588116288
1.7726372830184e+18,3.62539990234375,-0.0105198621749877,0.0571651458740234,0.0682325363159179,0.0018642111681401,0.0018642111681401,-0.0002663158811628
1.7726372830383944e+18,3.645394287109375,-0.0004899501800537,0.1004228591918945,0.072883129119873,0.0037284223362803,0.0077231605537235,-0.0061252652667462
1.7726372830583887e+18,3.665388671875,-0.0091761350631713,0.0911064147949218,0.0343074798583984,0.0061252652667462,0.0098536871373653,-0.0061252652667462
1.772637283078383e+18,3.685383056640625,-0.0273206233978271,0.086435317993164,0.0533585548400878,0.0058589493855834,0.0082557927817106,0.0010652635246515
1.7726372830983777e+18,3.705377685546875,-0.0222409963607788,0.1104621887207031,0.0486683845520019,0.0087884236127138,0.0090547399595379,0.0018642111681401
1.772637283118372e+18,3.7253720703125,-0.0251034498214721,0.1154241561889648,0.0391139984130859,0.0093210563063621,0.0135821104049682,-0.002130527049303
1.7726372831383665e+18,3.745366455078125,0.0128668546676635,0.0775337219238281,0.0575461387634277,0.0045273699797689,0.0143810575827956,-0.0018642111681401
1.7726372831583608e+18,3.76536083984375,0.01224946975708,0.0728874206542968,0.0762887001037597,0.0058589493855834,0.0093210563063621,0.0018642111681401
1.7726372831783555e+18,3.78535546875,-0.0069664716720581,0.077890396118164,0.0758905410766601,0.0045273699797689,0.0077231605537235,-0.0002663158811628
1.7726372831983498e+18,3.805349853515625,-0.0215077400207519,0.0735788345336914,0.0606012344360351,-0.0007989476434886,0.0090547399595379,-0.0023968429304659
1.7726372832183442e+18,3.82534423828125,-0.0257524251937866,0.0456523895263671,0.08305025100708,0.0002663158811628,0.0055926335044205,-0.0018642111681401
1.7726372832383386e+18,3.845338623046875,-0.0127040147781372,0.056044578552246,0.0813875198364257,-0.0029294746927917,0.0015978952869772,-0.0005326317623257
1.772637283258333e+18,3.8653330078125,-0.0135548114776611,0.0662469863891601,0.1087856292724609,-0.0063915811479091,-0.0002663158811628,0.0013315794058144
1.7726372832783276e+18,3.88532763671875,-0.0046306848526,0.0855169296264648,0.1084203720092773,-0.0085221081972122,-0.0039947382174432,-0.0015978952869772
1.772637283298322e+18,3.905322021484375,-0.0093597173690795,0.085672378540039,0.0889887809753418,-0.0013315794058144,-0.0063915811479091,-0.0026631588116288
1.7726372833183163e+18,3.92531640625,-0.0052727460861206,0.0858678817749023,0.0549149513244628,-0.0023968429304659,-0.0077231605537235,-0.0005326317623257
1.7726372833383107e+18,3.945310546875,-0.0198047161102294,0.0620765686035156,0.0402021408081054,-0.0045273699797689,-0.0087884236127138,-0.0018642111681401
1.7726372833583053e+18,3.96530517578125,-0.0055803060531616,0.0623455047607421,0.0540447235107421,-0.0026631588116288,-0.0061252652667462,-0.0063915811479091
1.7726372833782996e+18,3.985299560546875,-0.0106046199798583,0.1012086868286132,0.0817546844482421,-0.002130527049303,-0.0061252652667462,-0.0082557927817106
1.772637283398294e+18,4.0052939453125,-0.0152574777603149,0.0876522064208984,0.0994668006896972,0.0047936858609318,-0.0015978952869772,-0.0093210563063621
1.772637283418288e+18,4.0252880859375,-0.0058270692825317,0.0931358337402343,0.0789980888366699,0.0045273699797689,0.0010652635246515,-0.0047936858609318
1.7726372834382812e+18,4.04528125,-0.0158030986785888,0.0694198608398437,0.0880441665649414,0.0023968429304659,0.002130527049303,0.0
1.7726372834582743e+18,4.0652744140625,-0.0488649606704711,0.0412635803222656,0.0874280929565429,0.0050600017420947,0.0047936858609318,-0.0037284223362803
1.7726372834782676e+18,4.085267578125,-0.0199912786483764,0.05035400390625,0.1113753318786621,0.0029294746927917,-0.0002663158811628,-0.0026631588116288
1.7726372834982607e+18,4.1052607421875,-0.0284322500228881,0.0886745452880859,0.1019487380981445,-0.0005326317623257,-0.0002663158811628,-0.0013315794058144
1.7726372835182538e+18,4.12525390625,0.0001940727233886,0.0837249755859375,0.0640316009521484,0.0007989476434886,-0.0026631588116288,-0.0042610540986061
1.772637283538247e+18,4.145246826171875,-0.0138559341430664,0.0557928085327148,0.0589361190795898,-0.0029294746927917,-0.0047936858609318,-0.006657897029072
1.77263728355824e+18,4.165239990234375,-0.0030601024627685,0.0467872619628906,0.0629878044128418,-0.0042610540986061,-0.0082557927817106,-0.0077231605537235
1.772637283578233e+18,4.185233154296875,0.0025423765182495,0.0850915908813476,0.0765190124511718,-0.0015978952869772,-0.0050600017420947,-0.0037284223362803
1.7726372835982262e+18,4.20522607421875,-0.011189579963684,0.0572528839111328,0.0569562911987304,0.0015978952869772,-0.0010652635246515,-0.0007989476434886
1.7726372836182193e+18,4.22521923828125,-0.0441362857818603,0.0434894561767578,0.0845875740051269,-0.0003994738217443,0.0039947382174432,0.0
1.7726372836382124e+18,4.24521240234375,-0.0197833776473999,0.0631990432739257,0.1124358177185058,-0.0011984214652329,0.0031957905739545,-0.0005326317623257
1.7726372836582057e+18,4.265205810546875,-0.0236538648605346,0.0914926528930664,0.1028280258178711,-0.0030626326333731,0.0023968429304659,0.0031957905739545
1.7726372836781988e+18,4.28519873046875,-0.0324680805206298,0.0578174591064453,0.0936956405639648,-0.00093210558407,-0.0010652635246515,0.0002663158811628
1.772637283698192e+18,4.30519189453125,-0.0266889333724975,0.0482025146484375,0.0802369117736816,-0.0067910552024841,-0.0010652635246515,-0.0029294746927917
1.772637283718185e+18,4.32518505859375,-0.0172059535980224,0.0482158660888671,0.0611791610717773,-0.0081226341426372,-0.0045273699797689,-0.0039947382174432
1.772637283738178e+18,4.345177978515625,-0.0500742197036743,0.0483827590942382,0.0752663612365722,-0.0081226341426372,-0.0053263176232576,-0.002130527049303
1.7726372837581711e+18,4.365171142578125,-0.0357965230941772,0.0771856307983398,0.0799260139465332,-0.0083889504894614,-0.0138484258204698,-0.002130527049303
1.7726372837781642e+18,4.385164306640625,-0.0171713829040527,0.1010332107543945,0.0705556869506836,-0.0094542140141129,-0.0151800047606229,-0.0045273699797689
1.7726372837981576e+18,4.405157470703125,-0.0260311365127563,0.0910959243774414,0.0712366104125976,-0.0095873717218637,-0.0114515833556652,-0.0005326317623257
1.7726372838181507e+18,4.425150634765625,-0.0120161771774292,0.0430736541748046,0.0762953758239746,-0.0077231605537235,-0.0039947382174432,0.0034621064551174
1.7726372838381437e+18,4.445143798828125,-0.044255256652832,0.062255859375,0.0668573379516601,-0.0055926335044205,-0.0005326317623257,0.0031957905739545
1.7726372838581368e+18,4.46513671875,-0.0375692844390869,0.0865354537963867,0.0709443092346191,-0.0023968429304659,0.0053263176232576,0.0002663158811628
1.77263728387813e+18,4.4851298828125,-0.0497201681137084,0.1011066436767578,0.0855259895324707,0.0053263176232576,0.0106526352465152,-0.002130527049303
1.772637283898123e+18,4.505123046875,-0.0231072902679443,0.0725994110107421,0.0809803009033203,0.0063915811479091,0.0098536871373653,-0.0026631588116288
1.7726372839181164e+18,4.525116455078125,-0.0260369777679443,0.054579734802246,0.1092052459716796,0.0037284223362803,0.0071905287913978,-0.0002663158811628
1.77263728393811e+18,4.54510986328125,-0.0332711935043334,0.0503244400024414,0.1184077262878418,0.002130527049303,0.0055926335044205,0.0023968429304659
1.7726372839581033e+18,4.565103271484375,-0.021280288696289,0.0554714202880859,0.1087884902954101,0.0,0.0026631588116288,0.0031957905739545
1.772637283978097e+18,4.585096923828125,-0.0433564186096191,0.0366592407226562,0.1086225509643554,-0.0005326317623257,0.0005326317623257,0.0005326317623257
1.7726372839980905e+18,4.605090576171875,-0.0313045978546142,0.0465936660766601,0.1038174629211425,-0.0085221081972122,0.0005326317623257,0.0
1.772637284018084e+18,4.625083984375,-0.0089014768600463,0.0331449508666992,0.1221117973327636,-0.013715268112719,-0.0050600017420947,0.0015978952869772
1.7726372840580713e+18,4.6650712890625,-0.0245517492294311,0.0581769943237304,0.0863986015319824,-0.019840532913804,-0.0085221081972122,0.0031957905739545
1.772637284078065e+18,4.68506494140625,0.0093942880630493,0.0581951141357421,0.05308198928833,-0.0161121115088462,-0.0055926335044205,0.0005326317623257
1.7726372840980585e+18,4.70505859375,-0.0035353899002075,0.0914669036865234,0.063361644744873,-0.0131826363503932,-0.0026631588116288,-0.002130527049303
1.772637284118052e+18,4.725052001953125,-0.0012164115905761,0.106175422668457,0.0777029991149902,-0.0145142152905464,0.0007989476434886,-0.0005326317623257
1.7726372841380457e+18,4.745045654296875,0.047755479812622,0.0977563858032226,0.0664124488830566,-0.0094542140141129,0.0034621064551174,-0.0010652635246515
1.7726372841580393e+18,4.765039306640625,0.0105266571044921,0.0946817398071289,0.0633955001831054,-0.008655265904963,0.0063915811479091,-0.0005326317623257
1.772637284178033e+18,4.785032958984375,-0.0063234567642211,0.0817699432373046,0.0517163276672363,-0.0118510564789175,0.0082557927817106,-0.0007989476434886
1.7726372841980265e+18,4.805026611328125,-0.0032975673675537,0.0876054763793945,0.0367841720581054,-0.0075900023803114,0.0103863198310136,-0.0071905287913978
1.77263728421802e+18,4.82502001953125,-0.0002049207687377,0.1027412414550781,0.0499367713928222,-0.0041278963908553,0.0125168468803167,-0.0106526352465152
1.7726372842380137e+18,4.845013671875,0.0025157928466796,0.0887908935546875,0.0690016746520996,-0.0075900023803114,0.0077231605537235,-0.0015978952869772
1.7726372842580073e+18,4.86500732421875,-0.0291527509689331,0.073979377746582,0.0798525810241699,-0.0019973691087216,0.0018642111681401,0.0029294746927917
1.772637284278001e+18,4.8850009765625,-0.0323731899261474,0.0167694091796875,0.1143598556518554,-0.0054594753310084,0.0071905287913978,0.0026631588116288
1.772637284317988e+18,4.924988037109375,0.011468768119812,0.0883321762084961,0.0756678581237793,-0.0094542140141129,0.0090547399595379,-0.0061252652667462
1.7726372843379814e+18,4.9449814453125,0.0016202926635742,0.1126956939697265,0.0604810714721679,-0.0007989476434886,0.0074568446725606,-0.0165115855634212
1.772637284357975e+18,4.96497509765625,-0.0123959779739379,0.1134176254272461,0.0304970741271972,-0.0050600017420947,0.0055926335044205,-0.0154463211074471
1.7726372843779686e+18,4.98496875,0.0061070919036865,0.100163459777832,0.0426549911499023,-0.0146473739296197,0.0039947382174432,-0.0101200034841895
1.7726372843979622e+18,5.004962158203125,-0.0389118194580078,0.1058950424194336,0.0835742950439453,-0.0165115855634212,0.0018642111681401,-0.0053263176232576
1.7726372844179558e+18,5.024955810546875,-0.0449652671813964,0.0642347335815429,0.0960526466369628,-0.0189084280282259,-0.0007989476434886,-0.0029294746927917
1.7726372844379502e+18,5.0449501953125,-0.0172685384750366,0.0313758850097656,0.0849685668945312,-0.0151800047606229,-0.0039947382174432,0.0053263176232576
1.7726372844579446e+18,5.064944580078125,-0.0277427434921264,0.0465259552001953,0.0881056785583496,-0.0027963167522102,0.0061252652667462,0.0029294746927917
1.772637284477939e+18,5.08493896484375,-0.0285251140594482,0.0849084854125976,0.0914978981018066,0.0019973691087216,0.0087884236127138,-0.0029294746927917
1.7726372844979333e+18,5.104933349609375,-0.019030213356018,0.09991455078125,0.0903115272521972,0.0067910552024841,0.0101200034841895,-0.0039947382174432
1.7726372845179277e+18,5.124927734375,-0.0334481000900268,0.1052608489990234,0.0653257369995117,0.0030626326333731,0.0061252652667462,-0.0069242129102349
1.772637284537922e+18,5.144922119140625,-0.0183957815170288,0.0731754302978515,0.0447611808776855,-0.0017310532275587,-0.0010652635246515,-0.0101200034841895
1.7726372845579164e+18,5.16491650390625,0.0249577760696411,0.0648326873779296,0.0187320709228515,0.0011984214652329,-0.0143810575827956,-0.0109189506620168
1.7726372845779108e+18,5.184910888671875,-0.0069392919540405,0.0946187973022461,0.0255556106567382,0.0006657897029072,-0.0170442163944244,-0.0101200034841895
1.772637284597905e+18,5.20490478515625,-0.0293276309967041,0.0964241027832031,0.0753169059753418,-0.0001331579405814,-0.0130494777113199,-0.0069242129102349
1.7726372846178993e+18,5.224899169921875,-0.0320720672607421,0.0703125,0.1056094169616699,0.0014647373463958,-0.0058589493855834,-0.0071905287913978
1.7726372846378936e+18,5.2448935546875,-0.0631744861602783,0.0723047256469726,0.0785775184631347,0.0075900023803114,0.0007989476434886,-0.0098536871373653
1.772637284657888e+18,5.264887939453125,-0.0467422008514404,0.0688676834106445,0.0957479476928711,0.0030626326333731,0.0042610540986061,-0.0074568446725606
1.7726372846778824e+18,5.28488232421875,-0.0163733959197998,0.0744428634643554,0.0755376815795898,0.0027963167522102,0.0039947382174432,-0.0063915811479091
1.7726372846978767e+18,5.304876708984375,-0.0389143228530883,0.0603961944580078,0.0944509506225586,-0.0006657897029072,0.0018642111681401,-0.0069242129102349
1.772637284717871e+18,5.32487109375,-0.0424503087997436,0.0560770034790039,0.0890970230102539,-0.0043942118063569,-0.0013315794058144,-0.0095873717218637
1.7726372847378655e+18,5.344865478515625,-0.0169074535369873,0.0518722534179687,0.0644488334655761,-0.0126500045880675,-0.0095873717218637,-0.0151800047606229
1.7726372847578596e+18,5.364859619140625,-0.019753098487854,0.0764970779418945,0.0684823989868164,-0.0163784269243478,-0.0093210563063621,-0.0167779009789228
1.772637284777854e+18,5.38485400390625,-0.0127980709075927,0.0675287246704101,0.0918350219726562,-0.0166447423398494,-0.0101200034841895,-0.0175768472254276
1.7726372847978483e+18,5.404848388671875,-0.0155969858169555,0.0775356292724609,0.0915393829345703,-0.0179763212800025,-0.0071905287913978,-0.0135821104049682
1.7726372848178427e+18,5.4248427734375,-0.0037790536880493,0.0492067337036132,0.1009001731872558,-0.0126500045880675,-0.0042610540986061,-0.0082557927817106
1.772637284837837e+18,5.444837158203125,0.012711763381958,0.0403347015380859,0.0809412002563476,-0.0118510564789175,-0.0050600017420947,-0.0010652635246515
1.7726372848578314e+18,5.46483154296875,0.0144214630126953,0.065159797668457,0.055795669555664,-0.0097205294296145,-0.0047936858609318,-0.0010652635246515
1.7726372848778258e+18,5.48482568359375,-0.0216064453125,0.0614328384399414,0.0879201889038086,-0.0083889504894614,-0.0015978952869772,-0.0031957905739545
1.7726372848978202e+18,5.504820068359375,-0.0043925046920776,0.0388431549072265,0.0860848426818847,-0.0117178987711668,-0.0034621064551174,-0.0037284223362803
1.7726372849178143e+18,5.524814208984375,-0.0017635822296142,0.0404720306396484,0.0884943008422851,-0.0149136893451213,-0.0015978952869772,-0.0037284223362803
1.7726372849378074e+18,5.544807373046875,-0.0189129114151,0.0513648986816406,0.0817599296569824,-0.013315794058144,-0.0037284223362803,-0.002130527049303
1.7726372849578007e+18,5.56480078125,-0.0171973705291748,0.0663127899169921,0.1002726554870605,-0.011185267008841,0.0018642111681401,-0.0002663158811628
1.772637284977794e+18,5.5847939453125,0.0228000879287719,0.0764007568359375,0.0901541709899902,-0.0119842141866683,0.0031957905739545,-0.0018642111681401
1.7726372849977871e+18,5.604787109375,0.0097879171371459,0.0578584671020507,0.0797500610351562,-0.0105194775387644,0.0013315794058144,-0.0077231605537235
1.7726372850177805e+18,5.624780517578125,0.0001031160354614,0.0441207885742187,0.1072902679443359,-0.0147805316373705,0.0034621064551174,-0.0095873717218637
1.7726372850377738e+18,5.64477392578125,-0.0523850917816162,0.0398111343383789,0.0872817039489746,-0.0139815835282206,0.0042610540986061,-0.0119842141866683
1.7726372850577672e+18,5.66476708984375,-0.0175638198852539,0.0739212036132812,0.0727529525756836,-0.010785792954266,0.0055926335044205,-0.0135821104049682
1.7726372850777603e+18,5.68476025390625,0.0206726789474487,0.1029682159423828,0.0614733695983886,-0.0062584234401583,0.0071905287913978,-0.0077231605537235
1.7726372850977536e+18,5.704753662109375,0.0150284767150878,0.0845060348510742,0.0839142799377441,-0.0049268435686826,0.0085221081972122,-0.0042610540986061
1.772637285117747e+18,5.724746826171875,-0.013568639755249,0.0660524368286132,0.0933256149291992,-0.0062584234401583,0.0069242129102349,-0.0039947382174432
1.77263728513774e+18,5.744739990234375,-0.0178965330123901,0.0752935409545898,0.0354642868041992,-0.0019973691087216,0.0037284223362803,-0.0061252652667462
1.7726372851577334e+18,5.7647333984375,0.0116567611694335,0.0806179046630859,0.0442500114440918,0.0025300008710473,0.002130527049303,-0.0061252652667462
1.7726372851777267e+18,5.784726806640625,0.0027402639389038,0.0760145187377929,0.0871796607971191,-0.0042610540986061,0.0026631588116288,-0.0031957905739545
1.7726372851977198e+18,5.8047197265625,0.0263693332672119,0.0901975631713867,0.0970392227172851,-0.0018642111681401,0.0042610540986061,-0.0071905287913978
1.7726372852177132e+18,5.824713134765625,0.0212708711624145,0.0661277770996093,0.0636396408081054,0.0058589493855834,0.0047936858609318,-0.011185267008841
1.7726372852377065e+18,5.84470654296875,0.0019543170928955,0.0709638595581054,0.0778932571411132,0.0061252652667462,0.0055926335044205,-0.0053263176232576
1.7726372852576996e+18,5.864699462890625,-0.0030102729797363,0.081033706665039,0.0870394706726074,-0.0002663158811628,0.0053263176232576,-0.0007989476434886
1.772637285277693e+18,5.88469287109375,-0.0174100399017334,0.0709466934204101,0.0736021995544433,-0.0013315794058144,0.0050600017420947,-0.0053263176232576
1.7726372852976863e+18,5.904686279296875,-0.0079929828643798,0.0752401351928711,0.0649070739746093,-0.002130527049303,0.0045273699797689,-0.0023968429304659
1.7726372853176794e+18,5.924679443359375,-0.00333833694458,0.055882453918457,0.0700230598449707,-0.0010652635246515,0.0023968429304659,0.0002663158811628
1.7726372853376727e+18,5.944672607421875,-0.0178743600845336,0.0701313018798828,0.0893788337707519,0.0039947382174432,0.0013315794058144,0.0018642111681401
1.772637285357666e+18,5.964666015625,0.0110960006713867,0.0556497573852539,0.1087980270385742,0.0013315794058144,0.0023968429304659,0.0002663158811628
1.7726372853776591e+18,5.9846591796875,-0.0033868551254272,0.0750141143798828,0.0940260887145996,-0.0002663158811628,-0.0023968429304659,0.0002663158811628
1.7726372853976525e+18,6.004652587890625,-0.046354055404663,0.0561151504516601,0.0696163177490234,-0.0014647373463958,-0.0039947382174432,0.0039947382174432
1.7726372854176458e+18,6.024645751953125,-0.0270498991012573,0.0468349456787109,0.0930461883544921,-0.0035952643956989,-0.0063915811479091,0.0055926335044205
1.7726372854376394e+18,6.044639404296875,-0.0130048990249633,0.0663862228393554,0.0922403335571289,-0.0017310532275587,-0.006657897029072,0.0015978952869772
1.7726372854576333e+18,6.06463330078125,-0.0318366289138793,0.0668191909790039,0.1106815338134765,-0.00093210558407,-0.0002663158811628,0.0026631588116288
1.772637285477627e+18,6.084626953125,-0.0312665700912475,0.0767698287963867,0.0861787796020507,-0.00093210558407,-0.0007989476434886,0.0002663158811628
1.7726372854976207e+18,6.104620849609375,-0.0168299674987792,0.0628004074096679,0.0806460380554199,-0.0003994738217443,-0.0018642111681401,-0.002130527049303
1.7726372855176143e+18,6.1246142578125,-0.0353401899337768,0.058669090270996,0.0556235313415527,-0.0043942118063569,-0.0053263176232576,-0.0018642111681401
1.7726372855376082e+18,6.144608154296875,-0.0153261423110961,0.0737543106079101,0.0688748359680175,-0.0025300008710473,-0.0058589493855834,-0.0023968429304659
1.7726372855576018e+18,6.164601806640625,-0.0103461742401123,0.079289436340332,0.0723242759704589,0.0006657897029072,0.0002663158811628,-0.0039947382174432
1.7726372855775954e+18,6.184595458984375,-0.0195708274841308,0.0845346450805664,0.0571885108947753,-0.0027963167522102,0.0013315794058144,-0.0026631588116288
1.7726372855975892e+18,6.20458935546875,0.013909101486206,0.098184585571289,0.038240909576416,-0.0002663158811628,0.002130527049303,-0.0034621064551174
1.7726372856175828e+18,6.224582763671875,-0.0004708766937255,0.0839576721191406,0.0199217796325683,0.0007989476434886,0.0039947382174432,-0.0063915811479091
1.7726372856375767e+18,6.24457666015625,4.19616699218e-05,0.0835084915161132,0.0208849906921386,-0.0042610540986061,0.0015978952869772,-0.0058589493855834
1.7726372856575703e+18,6.2645703125,-0.0086944103240966,0.0834684371948242,0.0499095916748046,-0.0023968429304659,0.0002663158811628,-0.0069242129102349
1.772637285677564e+18,6.28456396484375,-0.0127445459365844,0.0744047164916992,0.0730772018432617,-0.0013315794058144,0.0013315794058144,-0.0063915811479091
1.7726372856975578e+18,6.304557861328125,-0.0173114538192749,0.0796880722045898,0.0620331764221191,0.0,0.002130527049303,-0.0018642111681401
1.7726372857175514e+18,6.32455126953125,-0.0026960372924804,0.0608119964599609,0.0711340904235839,-0.0005326317623257,-0.0013315794058144,0.0034621064551174
1.7726372857375452e+18,6.344545166015625,-0.0168571472167968,0.0657377243041992,0.0661444664001464,-0.0007989476434886,0.0010652635246515,0.0053263176232576
1.7726372857575388e+18,6.364538818359375,-0.0362536907196044,0.0749626159667968,0.0859174728393554,-0.0063915811479091,-0.0047936858609318,0.0047936858609318
1.7726372857775327e+18,6.38453271484375,-0.0361876487731933,0.0556306838989257,0.095829963684082,-0.0059921070933341,-0.0069242129102349,-0.0034621064551174
1.7726372857975263e+18,6.4045263671875,-0.0075898170471191,0.0415639877319335,0.104804515838623,-0.0062584234401583,-0.0093210563063621,-0.0031957905739545
1.77263728581752e+18,6.42452001953125,-0.0125843286514282,0.0371913909912109,0.084810733795166,-0.0054594753310084,-0.0063915811479091,-0.0005326317623257
1.7726372858375137e+18,6.444513671875,-0.0223884582519531,0.061492919921875,0.0745291709899902,-0.0030626326333731,-0.006657897029072,0.0026631588116288
1.7726372858575073e+18,6.46450732421875,-0.0324428081512451,0.0808372497558593,0.0656971931457519,-0.0022636849898844,-0.0047936858609318,0.0045273699797689
1.7726372858775012e+18,6.484501220703125,0.0003974437713623,0.0570783615112304,0.0603680610656738,-0.00093210558407,-0.0029294746927917,0.0002663158811628
1.7726372858974948e+18,6.504494873046875,-0.018969178199768,0.0621728897094726,0.0501704216003418,0.0003994738217443,-0.0018642111681401,-0.0039947382174432
1.7726372859174884e+18,6.52448828125,-0.0240677595138549,0.0766878128051757,0.0498304367065429,0.0022636849898844,0.0023968429304659,-0.0039947382174432
1.772637285937482e+18,6.54448193359375,-0.010329246520996,0.0762777328491211,0.0732769966125488,0.0037284223362803,0.0045273699797689,-0.0031957905739545
1.7726372859574756e+18,6.5644755859375,-0.038786768913269,0.0766448974609375,0.1061973571777343,0.0079894764348864,0.0074568446725606,-0.0039947382174432
1.772637285977469e+18,6.584468994140625,0.0096665620803833,0.0910787582397461,0.1110076904296875,0.0061252652667462,0.0053263176232576,-0.0039947382174432
1.7726372859974625e+18,6.604462646484375,0.0147370100021362,0.0533714294433593,0.0870800018310546,0.0007989476434886,-0.0015978952869772,-0.0023968429304659
1.772637286017456e+18,6.6244560546875,-0.0329620838165283,0.058018684387207,0.1065635681152343,-0.0010652635246515,-0.0055926335044205,-0.0010652635246515
1.7726372860374495e+18,6.644449462890625,-0.0278530120849609,0.0573549270629882,0.1067614555358886,-0.0015978952869772,-0.0058589493855834,-0.0013315794058144
1.772637286057443e+18,6.664443115234375,-0.0034555196762084,0.0628194808959961,0.0869660377502441,-0.0050600017420947,-0.0039947382174432,-0.002130527049303
1.7726372860774364e+18,6.6844365234375,-0.0127936601638793,0.0770769119262695,0.0776572227478027,-0.0039947382174432,-0.0010652635246515,0.0018642111681401
1.77263728609743e+18,6.704429931640625,-0.0418510437011718,0.0577516555786132,0.111419677734375,-0.0002663158811628,0.0,0.0023968429304659
1.7726372861174236e+18,6.724423583984375,-0.0273494720458984,0.076939582824707,0.0826630592346191,-0.0023968429304659,-0.0005326317623257,0.0023968429304659
1.772637286137417e+18,6.7444169921875,-0.0032111406326293,0.0866622924804687,0.0584878921508789,-0.0018642111681401,0.0002663158811628,-0.0002663158811628
1.7726372861574106e+18,6.76441064453125,0.0197478532791137,0.0772895812988281,0.0818128585815429,-0.0045273699797689,-0.0031957905739545,0.0018642111681401
1.772637286177404e+18,6.78440380859375,-0.0105965137481689,0.09619140625,0.0771245956420898,-0.0013315794058144,-0.0039947382174432,0.0026631588116288
1.7726372861973975e+18,6.8043974609375,-0.0153179168701171,0.0814628601074218,0.0586423873901367,-0.0029294746927917,-0.0071905287913978,0.002130527049303
1.772637286217391e+18,6.82439111328125,0.0134570598602294,0.0717763900756836,0.0300960540771484,-0.0038615802768617,-0.0055926335044205,0.0002663158811628
1.7726372862373844e+18,6.844384521484375,-0.0054214000701904,0.0621767044067382,0.0637392997741699,-0.0006657897029072,-0.0018642111681401,-0.0013315794058144
1.772637286257378e+18,6.8643779296875,-0.0009632110595703,0.0617561340332031,0.1027679443359375,0.0059921070933341,-0.0071905287913978,-0.0015978952869772
1.7726372862773716e+18,6.88437158203125,-0.0216232538223266,0.0370130538940429,0.1182475090026855,0.0003994738217443,-0.006657897029072,0.0047936858609318
1.772637286297365e+18,6.904364990234375,-0.0426493883132934,0.0171146392822265,0.1377320289611816,-0.0059921070933341,-0.0106526352465152,0.0039947382174432
1.7726372863173586e+18,6.924358642578125,-0.0438117980957031,0.0453205108642578,0.1384572982788086,-0.0118510564789175,-0.0191747434437274,0.0026631588116288
1.772637286337352e+18,6.94435205078125,-0.0118253231048583,0.0589981079101562,0.1202120780944824,-0.0113184247165918,-0.020240006968379,0.0053263176232576
1.7726372863573455e+18,6.964345458984375,-0.0094048976898193,0.034285545349121,0.1018829345703125,-0.0041278963908553,-0.017310531809926,0.0090547399595379
1.7726372863773391e+18,6.984339111328125,-0.0070421695709228,0.0525770187377929,0.0885400772094726,0.0049268435686826,-0.0122505305334925,0.0087884236127138
1.7726372863973325e+18,7.00433251953125,-0.0095056295394897,0.0568199157714843,0.0602140426635742,0.0038615802768617,-0.0074568446725606,0.0069242129102349
1.7726372864173258e+18,7.024325927734375,-0.0161951780319213,0.066507339477539,0.0835070610046386,0.0075900023803114,-0.0005326317623257,0.0053263176232576
1.7726372864373187e+18,7.044318603515625,-0.0040658712387084,0.0954828262329101,0.092106819152832,0.013715268112719,0.0034621064551174,0.0055926335044205
1.7726372864573112e+18,7.064311279296875,-0.02980637550354,0.0904121398925781,0.0448818206787109,0.0166447423398494,0.0045273699797689,0.0055926335044205
1.7726372864773038e+18,7.0843037109375,-0.0165667533874511,0.0801172256469726,0.0171828269958496,0.0158457942306995,0.0047936858609318,0.0047936858609318
1.7726372864972966e+18,7.104296630859375,-0.0077221393585205,0.0934886932373046,0.0428190231323242,0.0155794788151979,0.0029294746927917,-0.0010652635246515
1.7726372865172892e+18,7.124289306640625,-0.0130136013031005,0.1105184555053711,0.0838856697082519,0.0155794788151979,0.0090547399595379,-0.0061252652667462
1.772637286537282e+18,7.144281982421875,-0.0189242362976074,0.0944623947143554,0.0771560668945312,0.0174436904489994,0.0095873717218637,-0.0034621064551174
1.7726372865572746e+18,7.164274658203125,-0.0393657684326171,0.0746011734008789,0.0367336273193359,0.0134489517658948,0.0093210563063621,0.0018642111681401
1.7726372865772675e+18,7.184267333984375,-0.0355787277221679,0.0733785629272461,0.0483374595642089,0.0122505305334925,0.0127831622958183,0.0061252652667462
1.77263728659726e+18,7.204260009765625,-0.0125828981399536,0.0623693466186523,0.0603318214416503,0.0103863198310136,0.0138484258204698,0.0109189506620168
1.7726372866172526e+18,7.224252685546875,-0.0381889343261718,0.0750980377197265,0.0581846237182617,0.0114515833556652,0.0125168468803167,0.0159789528697729
1.7726372866372454e+18,7.244245361328125,-0.0528594255447387,0.0639381408691406,0.0706181526184082,0.0141147412359714,0.0130494777113199,0.0130494777113199
1.772637286657238e+18,7.264238037109375,-0.0237938165664672,0.0677337646484375,0.095898151397705,0.0149136893451213,0.0127831622958183,0.0101200034841895
1.7726372866772308e+18,7.28423095703125,-0.0188748836517334,0.1001462936401367,0.0884284973144531,0.0090547399595379,0.0090547399595379,0.0117178987711668
1.7726372866972234e+18,7.304223388671875,-0.0287293195724487,0.0892267227172851,0.0812554359436035,0.0130494777113199,0.0082557927817106,0.0138484258204698
1.772637286717216e+18,7.324216064453125,-0.0479971170425415,0.0445823669433593,0.0744729042053222,0.0130494777113199,0.0114515833556652,0.0149136893451213
1.7726372867372088e+18,7.344208740234375,-0.0288895368576049,0.0573816299438476,0.043828010559082,0.0095873717218637,0.0191747434437274,0.0119842141866683
1.7726372867572014e+18,7.364201416015625,-0.0056450366973876,0.0797882080078125,0.0369253158569335,0.0083889504894614,0.0181094799190759,0.0090547399595379
1.7726372867771942e+18,7.3841943359375,-0.0296543836593627,0.0835189819335937,0.0388703346252441,0.011584741063416,0.0205063223838806,0.011185267008841
1.7726372867971868e+18,7.404186767578125,0.0040292739868164,0.0830011367797851,0.0590276718139648,0.0123836882412433,0.0205063223838806,0.0125168468803167
1.7726372868171796e+18,7.4241796875,-6.30617141723e-05,0.1014852523803711,0.0700364112854003,0.011584741063416,0.0205063223838806,0.0149136893451213
1.7726372868371722e+18,7.444172119140625,-0.0134003162384033,0.1047143936157226,0.0666756629943847,0.0123836882412433,0.017310531809926,0.0149136893451213
1.7726372868571648e+18,7.464164794921875,-0.0074633359909057,0.1038045883178711,0.0452771186828613,0.0113184247165918,0.0157126374542713,0.011185267008841
1.7726372868771576e+18,7.48415771484375,-0.0063536167144775,0.0838270187377929,0.0470452308654785,0.008655265904963,0.0183757953345775,0.0058589493855834
1.7726372868971502e+18,7.504150146484375,0.0043305158615112,0.0973148345947265,0.0681066513061523,0.0065247388556599,0.0146473739296197,0.0045273699797689
1.772637286917143e+18,7.52414306640625,0.0101068019866943,0.0863304138183593,0.0469717979431152,0.0003994738217443,0.0130494777113199,0.0090547399595379
1.772637286937137e+18,7.544136962890625,-0.01307213306427,0.0570573806762695,0.044440746307373,-0.0017310532275587,0.0082557927817106,0.0106526352465152
1.7726372869571308e+18,7.564130859375,-0.031074047088623,0.0514659881591796,0.0701498985290527,-0.0038615802768617,0.0053263176232576,0.0101200034841895
1.7726372869771244e+18,7.584124267578125,-0.0102443695068359,0.041172981262207,0.0958161354064941,-0.0065247388556599,0.0002663158811628,0.0103863198310136
1.7726372869971182e+18,7.6041181640625,0.0042577981948852,0.0403480529785156,0.1117339134216308,-0.0078563187271356,-0.0023968429304659,0.0138484258204698
1.772637287017112e+18,7.624112060546875,-0.011640191078186,0.0588769912719726,0.1077380180358886,-0.0097205294296145,-0.0074568446725606,0.017310531809926
1.772637287037106e+18,7.64410595703125,0.0066220760345458,0.0815439224243164,0.0992002487182617,-0.0121173728257417,-0.013315794058144,0.0135821104049682
1.7726372870570998e+18,7.664099853515625,0.0013657808303833,0.1091060638427734,0.0437660217285156,-0.0158457942306995,-0.013315794058144,0.0122505305334925
1.7726372870770934e+18,7.68409326171875,0.0020183324813842,0.0794553756713867,0.0551662445068359,-0.013715268112719,-0.0125168468803167,0.0122505305334925
1.7726372870970872e+18,7.704087158203125,0.027250051498413,0.060490608215332,0.0801610946655273,-0.0017310532275587,-0.0143810575827956,0.0093210563063621
1.772637287117081e+18,7.7240810546875,0.0136163234710693,0.0685596466064453,0.1107625961303711,0.0001331579405814,-0.0122505305334925,0.0069242129102349
1.772637287137075e+18,7.744074951171875,-0.0270581245422363,0.0586395263671875,0.1082754135131836,-0.0047936858609318,-0.0157126374542713,0.0114515833556652
1.7726372871570685e+18,7.764068603515625,-0.0009311437606811,0.0710706710815429,0.0729293823242187,-0.0099868457764387,-0.0175768472254276,0.0154463211074471
1.7726372871770624e+18,7.7840625,0.0034499168395996,0.060103416442871,0.0562000274658203,-0.0105194775387644,-0.0071905287913978,0.0093210563063621
1.7726372871970563e+18,7.80405615234375,-0.0062010288238525,0.0693559646606445,0.0711574554443359,-0.0059921070933341,0.0010652635246515,0.0077231605537235
1.77263728721705e+18,7.824050048828125,-0.0003136396408081,0.0786476135253906,0.0911164283752441,-0.0070573706179857,0.0015978952869772,0.0130494777113199
1.7726372872370437e+18,7.844043701171875,-0.0086513757705688,0.0594396591186523,0.1154499053955078,-0.016911057755351,0.0005326317623257,0.0165115855634212
1.7726372872570376e+18,7.86403759765625,-0.0049099922180175,0.0738544464111328,0.1108245849609375,-0.0049268435686826,-0.0005326317623257,0.0175768472254276
1.7726372872770314e+18,7.884031494140625,-0.0108767747879028,0.0819454193115234,0.056368350982666,0.0038615802768617,0.0002663158811628,0.0085221081972122
1.7726372872970253e+18,7.904025390625,-0.0070997476577758,0.0517911911010742,0.0628829002380371,-0.0014647373463958,0.0045273699797689,0.002130527049303
1.7726372873170191e+18,7.92401904296875,-0.0165443420410156,0.0369176864624023,0.0782008171081543,-0.0054594753310084,0.006657897029072,0.0047936858609318
1.7726372873370127e+18,7.9440126953125,0.0025663375854492,0.0750722885131836,0.0785050392150878,0.008655265904963,0.0026631588116288,0.0087884236127138
1.7726372873570066e+18,7.964006591796875,0.0060347318649291,0.1077280044555664,0.0787005424499511,0.0078563187271356,0.0026631588116288,0.0170442163944244
1.7726372873770004e+18,7.98400048828125,-0.0231542587280273,0.0693826675415039,0.0988779067993164,0.0059921070933341,0.0063915811479091,0.0087884236127138
1.7726372873969943e+18,8.003994384765624,-0.0082066059112548,0.0735244750976562,0.0906195640563964,0.0051931599155068,0.0122505305334925,0.0023968429304659
1.772637287416988e+18,8.02398779296875,-0.0075693130493164,0.0923538208007812,0.0674247741699218,0.0097205294296145,0.0101200034841895,-0.0007989476434886
1.7726372874369815e+18,8.0439814453125,-0.0217251777648925,0.0781755447387695,0.0575413703918457,0.010785792954266,0.006657897029072,0.0037284223362803
1.772637287456975e+18,8.06397509765625,-0.0057326555252075,0.0597715377807617,0.0763106346130371,0.0014647373463958,0.0061252652667462,0.0074568446725606
1.7726372874769687e+18,8.08396875,0.0186133384704589,0.0885124206542968,0.0801162719726562,0.0011984214652329,0.0101200034841895,0.0050600017420947
1.7726372874969623e+18,8.10396240234375,-0.0022637844085693,0.0887289047241211,0.1272196769714355,0.0043942118063569,0.0101200034841895,0.0002663158811628
1.772637287516956e+18,8.123955810546875,-0.0185165405273437,0.0742578506469726,0.1173620223999023,-0.0022636849898844,0.006657897029072,-0.0047936858609318
1.7726372875369495e+18,8.143949462890625,0.0085276365280151,0.0558938980102539,0.068671703338623,-0.0049268435686826,0.0069242129102349,-0.0063915811479091
1.772637287556943e+18,8.163943115234375,-0.0217700004577636,0.0467004776000976,0.0532174110412597,0.008655265904963,0.0077231605537235,-0.0055926335044205
1.7726372875769367e+18,8.183936767578125,-0.0281174182891845,0.052347183227539,0.0848126411437988,0.0166447423398494,0.0090547399595379,-0.0037284223362803
1.7726372875969303e+18,8.203930419921875,-0.0072569847106933,0.0717325210571289,0.0777730941772461,0.0171773750334978,0.0130494777113199,-0.0037284223362803
1.772637287616924e+18,8.223923828125,-0.0340681076049804,0.0963869094848632,0.0662174224853515,0.019840532913804,0.0189084280282259,-0.0074568446725606
1.7726372876369175e+18,8.24391748046875,-0.0221171379089355,0.0919694900512695,0.040987491607666,0.0182426385581493,0.0178431645035743,-0.0106526352465152
1.772637287656911e+18,8.2639111328125,-0.0234953165054321,0.0876722335815429,0.035552978515625,0.0230363234877586,0.0162452682852745,-0.0141147412359714
1.7726372876769047e+18,8.28390478515625,0.0040429830551147,0.1120424270629882,0.048868179321289,0.0275636930018663,0.0162452682852745,-0.0151800047606229
1.7726372876968983e+18,8.303898193359375,0.0076949596405029,0.1315670013427734,0.0431385040283203,0.0251668505370616,0.0189084280282259,-0.0114515833556652
1.772637287716892e+18,8.323891845703125,-0.0118430852890014,0.0938978195190429,0.022681713104248,0.022370534017682,0.0191747434437274,-0.0093210563063621
1.7726372877368855e+18,8.343885498046875,0.0071231126785278,0.0658168792724609,0.0405793190002441,0.0159789528697729,0.0167779009789228,-0.0095873717218637
1.772637287756879e+18,8.363879150390625,-0.0021641254425048,0.0712766647338867,0.0538015365600585,0.0143810575827956,0.0125168468803167,-0.0069242129102349
1.7726372877768727e+18,8.383872802734375,0.0029109716415405,0.0818796157836914,0.0472126007080078,0.0093210563063621,0.011185267008841,-0.0090547399595379
1.7726372877968663e+18,8.4038662109375,0.0066897869110107,0.1158485412597656,0.0557518005371093,0.0071905287913978,0.0085221081972122,-0.0085221081972122
1.77263728781686e+18,8.42385986328125,0.0009052753448486,0.1061887741088867,0.055647850036621,0.0023968429304659,0.0061252652667462,-0.0074568446725606
1.7726372878368535e+18,8.443853515625,-0.0043936967849731,0.0866861343383789,0.0657277107238769,-0.0055926335044205,-0.0026631588116288,-0.0082557927817106
1.772637287856847e+18,8.46384716796875,-0.0103588104248046,0.072514533996582,0.06077241897583,-0.0002663158811628,-0.0061252652667462,-0.0079894764348864
1.7726372878768407e+18,8.4838408203125,-0.0062694549560546,0.0772914886474609,0.0414609909057617,0.0007989476434886,-0.0098536871373653,-0.0031957905739545
1.7726372878968343e+18,8.503834228515625,0.0214985609054565,0.0679750442504882,0.0598998069763183,-0.0007989476434886,-0.0085221081972122,0.0045273699797689
1.772637287916828e+18,8.523827880859375,0.0104631185531616,0.0779371261596679,0.0678253173828125,0.0005326317623257,-0.0085221081972122,0.0045273699797689
1.7726372879368215e+18,8.543821533203126,-0.0050828456878662,0.0830831527709961,0.0668826103210449,0.0003994738217443,-0.0090547399595379,0.0013315794058144
1.7726372879568154e+18,8.5638154296875,0.0080248117446899,0.0737361907958984,0.056553840637207,0.0006657897029072,-0.0071905287913978,-0.0015978952869772
1.7726372879768092e+18,8.583809326171876,-0.0119851827621459,0.0883111953735351,0.0703458786010742,-0.0001331579405814,-0.0117178987711668,-0.0031957905739545
1.7726372879968028e+18,8.603802734375,-0.021833062171936,0.0934066772460937,0.0601425170898437,0.0022636849898844,-0.0095873717218637,-0.0047936858609318
1.7726372880167967e+18,8.623796630859376,0.0075721740722656,0.0935420989990234,0.0696377754211425,0.0017310532275587,-0.0093210563063621,-0.0029294746927917
1.7726372880367905e+18,8.64379052734375,0.0271195173263549,0.0935888290405273,0.069650650024414,0.0014647373463958,-0.0071905287913978,-0.002130527049303
1.7726372880567841e+18,8.6637841796875,-0.0059388875961303,0.0692853927612304,0.0944633483886718,-0.00093210558407,-0.0101200034841895,-0.0029294746927917
1.772637288076778e+18,8.683778076171874,-0.0246015787124633,0.0695066452026367,0.075016975402832,-0.0094542140141129,-0.0109189506620168,0.0018642111681401
1.7726372880967718e+18,8.703771728515624,-0.0388656854629516,0.0739765167236328,0.0708413124084472,-0.0093210563063621,-0.0122505305334925,0.0007989476434886
1.7726372881167654e+18,8.723765380859374,-0.0386574268341064,0.0360469818115234,0.0808463096618652,-0.0109189506620168,-0.0143810575827956,0.0005326317623257
1.7726372881367593e+18,8.74375927734375,-0.0334134101867675,0.0640897750854492,0.1051025390625,-0.0109189506620168,-0.0170442163944244,0.0031957905739545
1.7726372881567532e+18,8.763753173828125,-0.0246793031692504,0.0638351440429687,0.1101484298706054,-0.0077231605537235,-0.0151800047606229,0.006657897029072
1.772637288176747e+18,8.7837470703125,-0.0447899103164672,0.0350589752197265,0.1003870964050293,-0.0125168468803167,-0.0170442163944244,0.0045273699797689
1.7726372881967406e+18,8.80374072265625,-0.0494568347930908,0.0547027587890625,0.0803756713867187,-0.0074568446725606,-0.0157126374542713,0.0045273699797689
1.7726372882167345e+18,8.823734375,0.0167354345321655,0.0886154174804687,0.0938382148742675,0.0,-0.0119842141866683,0.0037284223362803
1.7726372882367283e+18,8.843728271484375,6.80685043334e-05,0.0937232971191406,0.1070575714111328,-0.0023968429304659,-0.0098536871373653,-0.0013315794058144
1.772637288256722e+18,8.863721923828125,-0.0342339277267456,0.0796890258789062,0.0864849090576171,0.0071905287913978,-0.0063915811479091,-0.0042610540986061
1.7726372882767158e+18,8.8837158203125,-0.0295343399047851,0.0704231262207031,0.0673165321350097,0.0055926335044205,-0.0061252652667462,-0.0053263176232576
1.7726372882967096e+18,8.903709716796875,-0.0251239538192749,0.0477571487426757,0.0563735961914062,0.0005326317623257,-0.0037284223362803,-0.0023968429304659
1.7726372883167032e+18,8.923703125,-0.0297026634216308,0.0581636428833007,0.0597038269042968,-0.0007989476434886,-0.0031957905739545,-0.0045273699797689
1.772637288336697e+18,8.943697021484375,-0.0065295696258544,0.062967300415039,0.0913228988647461,0.0010652635246515,0.0002663158811628,-0.0079894764348864
1.772637288356691e+18,8.96369091796875,-0.0411375761032104,0.0922536849975586,0.109224796295166,0.0010652635246515,0.0005326317623257,-0.0079894764348864
1.7726372883766848e+18,8.983684814453126,-0.0275568962097167,0.0638809204101562,0.1083402633666992,0.0063915811479091,-0.0002663158811628,-0.0069242129102349
1.7726372883966784e+18,9.003678466796876,-0.0190339088439941,0.0405712127685546,0.0984106063842773,0.0055926335044205,-0.0007989476434886,-0.0061252652667462
1.7726372884166723e+18,9.02367236328125,-0.0444722175598144,0.0499296188354492,0.0840735435485839,0.0018642111681401,-0.0037284223362803,-0.0023968429304659
1.7726372884366659e+18,9.043665771484376,-0.0448096990585327,0.068084716796875,0.0799522399902343,0.0085221081972122,-0.0005326317623257,0.0005326317623257
1.772637288476653e+18,9.083653076171874,-0.0366959571838378,0.0730352401733398,0.0516433715820312,0.0093210563063621,0.0058589493855834,0.0013315794058144
1.772637288496647e+18,9.10364697265625,-0.0366398096084594,0.0826244354248046,0.0899710655212402,0.0039947382174432,0.0077231605537235,0.0039947382174432
1.7726372885166405e+18,9.123640625,-0.0222803354263305,0.0963783264160156,0.1043767929077148,0.0091878976672887,0.0071905287913978,0.0005326317623257
1.772637288536634e+18,9.143634033203124,-0.0227288007736206,0.0632638931274414,0.0710525512695312,0.0083889504894614,0.0058589493855834,-0.0015978952869772
1.7726372885566277e+18,9.163627685546874,-0.0329012870788574,0.0531835556030273,0.057446002960205,0.0022636849898844,0.006657897029072,0.0002663158811628
1.7726372885766213e+18,9.183621337890624,-0.0283740758895874,0.0861101150512695,0.0632948875427246,0.0022636849898844,0.0002663158811628,0.0005326317623257
1.7726372885966152e+18,9.203615234375,-0.0193558931350708,0.0903406143188476,0.0779523849487304,0.0030626326333731,-0.0002663158811628,0.0031957905739545
1.7726372886166088e+18,9.22360888671875,-0.0288068056106567,0.0465717315673828,0.0743899345397949,0.0035952643956989,0.0015978952869772,0.0061252652667462
1.7726372886366024e+18,9.243602294921876,-0.0095903873443603,0.0414485931396484,0.0606398582458496,0.0051931599155068,0.0050600017420947,0.0047936858609318
1.7726372886765896e+18,9.283589599609376,-0.0320007801055908,0.0564680099487304,0.0987682342529296,0.0019973691087216,0.0013315794058144,0.0069242129102349
1.7726372886965834e+18,9.30358349609375,-0.017282485961914,0.0753164291381836,0.1222901344299316,-0.0011984214652329,-0.0007989476434886,0.0061252652667462
1.772637288716577e+18,9.323576904296877,-0.0177052021026611,0.066049575805664,0.0795836448669433,-0.0006657897029072,0.0010652635246515,0.0026631588116288
1.7726372887365706e+18,9.343570556640625,-0.0182361602783203,0.0560340881347656,0.0898280143737793,-0.003328948514536,0.0018642111681401,-0.0026631588116288
1.7726372887565642e+18,9.363564208984377,-0.0086886882781982,0.0742387771606445,0.0904788970947265,-0.0027963167522102,0.0031957905739545,-0.0037284223362803
1.7726372887765578e+18,9.383557861328123,0.0044790506362915,0.0737972259521484,0.0909895896911621,0.0019973691087216,0.0047936858609318,0.0
1.7726372887965514e+18,9.403551513671877,-0.0299715995788574,0.0455303192138671,0.0670247077941894,0.0065247388556599,0.0034621064551174,0.0039947382174432
1.7726372888165453e+18,9.423545166015623,-0.0058003664016723,0.0646867752075195,0.0479283332824707,0.0038615802768617,0.0063915811479091,0.0031957905739545
1.772637288836539e+18,9.443538818359375,0.0265111923217773,0.097599983215332,0.0813522338867187,0.0070573706179857,0.0069242129102349,0.0037284223362803
1.7726372888565325e+18,9.463532470703123,0.0110993385314941,0.1018886566162109,0.0573072433471679,0.0110521093010902,0.0069242129102349,0.0007989476434886
1.772637288876526e+18,9.483526123046875,-0.005128264427185,0.087411880493164,0.0245900154113769,0.0075900023803114,0.0106526352465152,-0.0013315794058144
1.77263728889652e+18,9.50352001953125,-0.025417685508728,0.0821771621704101,0.044285774230957,0.0041278963908553,0.0079894764348864,-0.0005326317623257
1.7726372889165135e+18,9.523513427734375,-0.0068520307540893,0.0819692611694336,0.0780525207519531,0.0054594753310084,-0.0010652635246515,0.0005326317623257
1.7726372889365074e+18,9.54350732421875,-0.016936182975769,0.0963039398193359,0.0684123039245605,0.0073236869648098,-0.006657897029072,0.0055926335044205
1.7726372889565015e+18,9.56350146484375,-0.0123820304870605,0.0913534164428711,0.0446901321411132,0.0059921070933341,-0.0055926335044205,0.0050600017420947
1.7726372889764954e+18,9.583495361328126,-0.0178512334823608,0.0719556808471679,0.0209908485412597,0.0019973691087216,-0.0050600017420947,0.0026631588116288
1.7726372889964895e+18,9.603489501953124,-0.0369496345520019,0.0861377716064453,0.0405206680297851,-0.0011984214652329,-0.0077231605537235,0.002130527049303
1.7726372890164833e+18,9.6234833984375,-0.012850284576416,0.080906867980957,0.0653200149536132,-0.0017310532275587,-0.006657897029072,0.0013315794058144
1.7726372890364774e+18,9.6434775390625,0.0058221817016601,0.0850543975830078,0.0711631774902343,-0.0011984214652329,-0.0077231605537235,0.0029294746927917
1.7726372890564713e+18,9.66347119140625,-0.0272443294525146,0.0752077102661132,0.0723681449890136,-0.0027963167522102,-0.0093210563063621,0.0023968429304659
1.7726372890764654e+18,9.68346533203125,-0.0265275239944458,0.0789108276367187,0.0638628005981445,-0.0078563187271356,-0.0114515833556652,0.0050600017420947
1.7726372890964593e+18,9.703459228515625,-0.0164275169372558,0.0696067810058593,0.0693693161010742,-0.0043942118063569,-0.0117178987711668,0.0074568446725606
1.7726372891164534e+18,9.723453369140625,-0.0165654420852661,0.0876188278198242,0.0703468322753906,-0.003328948514536,-0.0058589493855834,0.0069242129102349
1.7726372891364472e+18,9.743447265625,-0.0125170946121215,0.0681982040405273,0.0813069343566894,-0.0051931599155068,-0.0015978952869772,0.0050600017420947
1.7726372891564413e+18,9.76344140625,-0.0325573682785034,0.0623531341552734,0.0494780540466308,-0.0017310532275587,0.0031957905739545,0.0053263176232576
1.7726372891764352e+18,9.783435302734375,-0.0198680162429809,0.0567941665649414,0.0504565238952636,-0.0017310532275587,-0.0015978952869772,0.0045273699797689
1.7726372891964293e+18,9.80342919921875,-0.0360405445098876,0.070591926574707,0.0451655387878418,0.0014647373463958,-0.002130527049303,0.0077231605537235
1.7726372892164232e+18,9.823423095703124,-0.0187689065933227,0.0946502685546875,0.0444951057434082,0.0030626326333731,-0.0023968429304659,0.0103863198310136
1.7726372892364173e+18,9.843417236328126,-0.0006793737411499,0.0758371353149414,0.0581059455871582,0.0065247388556599,-0.0023968429304659,0.0090547399595379
1.7726372892564111e+18,9.8634111328125,0.0217534303665161,0.0953865051269531,0.0618066787719726,0.0065247388556599,-0.0069242129102349,0.0029294746927917
1.7726372892764052e+18,9.8834052734375,-0.0035619735717773,0.1002578735351562,0.0899052619934082,0.0073236869648098,-0.0077231605537235,-0.0034621064551174
1.772637289296399e+18,9.903399169921874,-0.0376938581466674,0.0950765609741211,0.0808887481689453,0.003328948514536,-0.0069242129102349,-0.0026631588116288
1.7726372893163932e+18,9.923393310546874,-0.0092206001281738,0.0761528015136718,0.0335588455200195,0.0022636849898844,-0.0034621064551174,-0.0047936858609318
1.772637289336387e+18,9.943386962890624,-0.0288832187652587,0.0665674209594726,0.0573930740356445,0.0083889504894614,-0.0053263176232576,-0.0055926335044205
1.7726372893563812e+18,9.963381103515625,-0.0577517747879028,0.0798730850219726,0.0869660377502441,0.0041278963908553,-0.006657897029072,0.0015978952869772
1.772637289376375e+18,9.983375,-0.0154839754104614,0.0744619369506836,0.1225156784057617,-0.0019973691087216,-0.0055926335044205,0.0061252652667462
1.772637289396369e+18,10.003368896484377,-0.0207490921020507,0.0584688186645507,0.1061887741088867,-0.0006657897029072,-0.0063915811479091,0.0013315794058144
1.772637289416363e+18,10.023363037109377,-0.0256972312927246,0.0660572052001953,0.0618791580200195,-0.0022636849898844,-0.0087884236127138,0.002130527049303
1.7726372894363566e+18,10.043356689453123,-0.0256463289260864,0.087371826171875,0.0656147003173828,-0.0006657897029072,-0.0058589493855834,0.0101200034841895
1.7726372894563505e+18,10.0633505859375,-0.0304853916168212,0.0672407150268554,0.0678553581237793,0.0022636849898844,-0.0037284223362803,0.0165115855634212
1.772637289476344e+18,10.083343994140623,-0.0249792337417602,0.0757284164428711,0.0844001770019531,0.0027963167522102,0.0005326317623257,0.0191747434437274
1.772637289496338e+18,10.103337890625,-0.0099047422409057,0.0749025344848632,0.0812888145446777,0.0019973691087216,0.0047936858609318,0.0215715859085321
1.7726372895163315e+18,10.12333154296875,-0.0095965862274169,0.0787649154663086,0.1022233963012695,0.0030626326333731,0.0037284223362803,0.0197073742747306
1.7726372895363254e+18,10.143325439453124,-0.0571928024291992,0.1058254241943359,0.0946955680847168,0.0006657897029072,0.0050600017420947,0.0146473739296197
1.772637289556319e+18,10.163319091796875,-0.0470945835113525,0.086038589477539,0.1066274642944336,-0.0001331579405814,0.0082557927817106,0.0095873717218637
1.7726372895763128e+18,10.183312744140624,-0.0367484092712402,0.027740478515625,0.0891218185424804,-0.0003994738217443,0.0034621064551174,0.0095873717218637
1.7726372895963064e+18,10.203306396484376,-0.0496903657913208,0.0511932373046875,0.0808119773864746,-0.0017310532275587,0.0002663158811628,0.0125168468803167
1.7726372896163003e+18,10.22330029296875,-0.0341171026229858,0.1033201217651367,0.1055140495300293,-0.0003994738217443,0.0023968429304659,0.0135821104049682
1.772637289636294e+18,10.2432939453125,-0.0464463233947753,0.0976028442382812,0.09812593460083,-0.00093210558407,0.0047936858609318,0.0119842141866683
1.7726372896562877e+18,10.263287841796876,-0.0165791511535644,0.0389947891235351,0.1160039901733398,-0.0022636849898844,0.0069242129102349,0.0079894764348864
1.7726372896762813e+18,10.28328125,-0.0205205678939819,0.0285043716430664,0.1178622245788574,-0.0027963167522102,0.0082557927817106,0.0069242129102349
1.7726372896962752e+18,10.303275146484374,-0.0199217796325683,0.0794496536254882,0.0913605690002441,-0.0062584234401583,0.0071905287913978,0.0141147412359714
1.7726372897162688e+18,10.323268798828124,-0.0183717012405395,0.0828351974487304,0.0895018577575683,-0.0019973691087216,0.0061252652667462,0.0125168468803167
1.7726372897362627e+18,10.3432626953125,0.0012944936752319,0.0488433837890625,0.1250662803649902,-0.0019973691087216,0.0018642111681401,0.0114515833556652
1.7726372897562563e+18,10.36325634765625,-0.026846170425415,0.0521440505981445,0.0932941436767578,-0.0027963167522102,0.0082557927817106,0.0159789528697729
1.77263728977625e+18,10.38325,-0.007043719291687,0.0606336593627929,0.0762605667114257,0.0030626326333731,0.0093210563063621,0.0109189506620168
1.7726372897962437e+18,10.40324365234375,-0.0103787183761596,0.0787086486816406,0.088172435760498,0.0014647373463958,0.0101200034841895,0.0098536871373653
1.7726372898162376e+18,10.423237548828125,-0.0228044986724853,0.068145751953125,0.109593391418457,-0.0011984214652329,0.0082557927817106,0.013315794058144
1.7726372898362312e+18,10.443231201171876,-0.0261050462722778,0.0667715072631836,0.0932798385620117,-0.0017310532275587,0.0157126374542713,0.0117178987711668
1.772637289856225e+18,10.46322509765625,-0.0009188652038574,0.0415611267089843,0.0862641334533691,-0.0019973691087216,0.0149136893451213,0.013315794058144
1.7726372898762186e+18,10.483218505859377,0.0137749910354614,0.0598621368408203,0.0447750091552734,0.0017310532275587,0.0170442163944244,0.0154463211074471
1.7726372898962125e+18,10.50321240234375,-2.384185791015625e-07,0.0785970687866211,0.0792326927185058,0.003328948514536,0.0146473739296197,0.0109189506620168
1.772637289916206e+18,10.5232060546875,-0.0132696628570556,0.0975399017333984,0.0990681648254394,0.0070573706179857,0.017310531809926,0.0050600017420947
1.7726372899361997e+18,10.54319970703125,-0.0078566074371337,0.0776185989379882,0.0766301155090332,0.003328948514536,0.0165115855634212,0.002130527049303
1.7726372899561933e+18,10.563193359375,0.0206644535064697,0.0627403259277343,0.0632581710815429,0.0035952643956989,0.0165115855634212,0.0047936858609318
1.772637289976187e+18,10.583186767578123,0.001976728439331,0.0721158981323242,0.0492253303527832,0.004660528153181,0.0141147412359714,0.0074568446725606
1.7726372899961805e+18,10.603180419921877,-0.0264369249343872,0.0768194198608398,0.0686273574829101,0.0043942118063569,0.0095873717218637,0.002130527049303
1.772637290016174e+18,10.623174072265623,-0.02167809009552,0.0861387252807617,0.0738835334777832,0.004660528153181,0.0085221081972122,0.0
1.772637290036168e+18,10.64316796875,-0.0128258466720581,0.0810785293579101,0.0843677520751953,0.0043942118063569,0.011185267008841,0.0010652635246515
1.7726372900561615e+18,10.66316162109375,-0.0089272260665893,0.0805835723876953,0.0509004592895507,0.0110521093010902,0.0141147412359714,0.0013315794058144
1.7726372900761551e+18,10.683155029296875,-0.0192540884017944,0.0941696166992187,0.0090107917785644,0.0110521093010902,0.0117178987711668,0.0002663158811628
1.7726372900961487e+18,10.703148681640624,-0.0054980516433715,0.0889949798583984,0.0430860519409179,0.0094542140141129,0.0087884236127138,0.0045273699797689
1.7726372901161423e+18,10.723142333984375,-0.0054892301559448,0.1229228973388671,0.0711288452148437,0.0094542140141129,0.0095873717218637,0.0053263176232576
1.772637290136136e+18,10.743135986328124,-0.0010889768600463,0.1183176040649414,0.0515375137329101,0.0073236869648098,0.0087884236127138,-0.0026631588116288
1.7726372901561295e+18,10.763129638671876,-0.0207808017730712,0.0845909118652343,0.0325818061828613,0.0027963167522102,0.0058589493855834,-0.0050600017420947
1.7726372901761231e+18,10.783123046875,-0.0056769847869873,0.0605659484863281,0.0568442344665527,0.004660528153181,0.0007989476434886,-0.0002663158811628
1.772637290196117e+18,10.803116943359376,-0.0139058828353881,0.065190315246582,0.0910158157348632,0.0014647373463958,0.0039947382174432,0.0007989476434886
1.7726372902161106e+18,10.823110595703126,0.0152268409729003,0.107666015625,0.068310260772705,-0.0030626326333731,0.0087884236127138,0.0023968429304659
1.7726372902361042e+18,10.843104248046876,-0.0025796890258789,0.1147594451904296,0.0276150703430175,-0.0035952643956989,0.0042610540986061,0.0053263176232576
1.7726372902560978e+18,10.863097900390626,-0.0380382537841796,0.0078344345092773,0.0519027709960937,0.0158457942306995,0.0031957905739545,0.0103863198310136
1.7726372902760914e+18,10.88309130859375,-0.0495166778564453,0.0256004333496093,0.0623030662536621,0.0760331824421882,0.0090547399595379,0.0101200034841895
1.772637290296085e+18,10.9030849609375,0.0349855422973632,0.0723781585693359,0.0917181968688964,0.0608531795442104,0.0101200034841895,0.002130527049303
1.7726372903160786e+18,10.92307861328125,0.0241217613220214,0.0919733047485351,0.1169910430908203,0.0283626411110162,0.0098536871373653,0.0047936858609318
1.7726372903360722e+18,10.943072265625,0.0232279300689697,0.1117639541625976,0.0282068252563476,-0.0158457942306995,0.0002663158811628,0.0047936858609318
1.772637290356066e+18,10.963066162109374,0.0052658319473266,0.098118782043457,-0.0496058464050293,-0.0829573944211006,-0.0082557927817106,0.0151800047606229
,,,,,-0.0494015961885452,-0.0013315794058144,0.0
