time,seconds_elapsed,accel_z,accel_y,accel_x,gyro_x,gyro_y,gyro_z
1772807770431789300,0.086789306640625,-0.0222235222458839,0.0420915674068033,0.0035786622043699,-0.0484268106520175,-0.0429944097995758,-0.038690835237503
1772807770451838200,0.106838134765625,-0.0116933604031801,0.0439287197060883,-0.0011604951467365,-0.0177513808012008,0.0153401680290699,-0.0139614846557378
1772807770471886300,0.12688623046875,-0.0867699364364147,0.0179838388495147,0.0891922682125121,0.0046577388420701,0.0242880973964929,0.0057549034245312
1772807770491935200,0.146935302734375,0.0062619830042123,0.0281916368700563,0.0540427567622624,0.0268908720463514,0.0202049389481544,0.0154011389240622
1772807770511984400,0.166984375,0.0588742137730121,0.0007141396187245,0.0623422186771407,0.0158804636448621,-0.0078153181821107,0.0158376768231391
1772807770532033500,0.187033447265625,0.103056469848752,0.0129302087217569,0.0329215880014002,-0.0045463638380169,-0.021028758957982,-0.0115238931030035
1772807770552081400,0.207081298828125,0.0451221672743558,0.0171470957644283,0.0102728626133874,-0.0120997512713074,-0.0089638065546751,-0.0258754380047321
1772807770572130600,0.227130615234375,0.0605845248222351,0.0532221793606877,-0.0176322306665591,0.0102094300091266,0.0381638370454311,-0.0041225645691156
1772807770592179200,0.24717919921875,0.0008645078748464,0.0206543732330203,0.0204587775956839,0.0230133961886167,0.0101653598248958,0.0169336944818496
1772807770612227300,0.267227294921875,0.1169447099477052,-0.009039631024003,0.0245947266229428,0.0245570950210094,-0.0103551261126995,0.0164615511894226
1772807770632276200,0.287276123046875,0.1123164656251668,-0.0215187349773943,-0.0222990169011987,0.010341603308916,-0.0099096968770027,0.0069209379144012
1772807770652325400,0.307325439453125,0.1554056657671928,-0.0234434194296598,-0.0540906144919805,0.010799809359014,0.0107372719794511,0.0072177546098828
1772807770672374500,0.32737451171875,0.1400175424993038,-0.0534270542830228,-0.0030075112529098,0.0050652991048991,0.0122794229537248,0.0027760078664869
1772807770692422400,0.34742236328125,0.079717679837346,-0.0742882021345198,0.0025842991384677,0.0005122579168528,-0.0146476048976182,-0.0036131367087364
1772807770712471600,0.367471435546875,0.1061176109850406,-0.0343801162466406,-0.0139594056390225,0.0077986880205571,-0.0012509719235822,-0.0038043744862079
1772807770732520400,0.3875205078125,0.0466050993084907,-0.0289069455325603,-0.00737714117188,0.0034382280427962,0.0069516925141215,-0.00579475145787
1772807770752569300,0.4075693359375,0.0405547132283449,-0.0067396835185587,0.0924422281854785,0.0154911633580923,0.0097637241706252,0.0003430361393839
1772807770772617200,0.4276171875,0.0493476760149002,0.0354847164876759,0.10563844916597,0.0351407155394554,0.0170074962079525,0.0131663652136921
1772807770792666400,0.447666259765625,0.0700023415088653,0.038676352135837,0.0969667198725976,0.0270222630351781,0.0080370074138045,0.0278129167854785
1772807770812718800,0.46771875,0.143957804557681,0.0237301274165511,0.1204953333676792,0.0004365565255284,0.0148651376366615,0.032724168151617
1772807770832766700,0.4877666015625,0.1054307977646589,0.0463929178625345,0.0862942452160641,-0.0091938506811857,0.0110082505270838,0.0393559597432613
1772807770852816000,0.50781591796875,0.1684773287862539,0.0711987116865813,0.0508691134285181,-3.65218147635e-05,0.0225152634084224,0.0522190853953361
1772807770872864800,0.52786474609375,0.0624164164245128,0.0507680642068386,0.0256994364618323,0.0068644220009446,-0.0160652324557304,0.0608909167349338
1772807770892914000,0.547913818359375,0.1090390513896942,0.0792687670260667,-0.0407071821100078,0.0145888999104499,-0.0164155717939138,0.0518050342798233
1772807770912961800,0.5679619140625,0.1228676702558994,0.0250415022760629,-0.0937294915170408,0.0012872796505689,0.0107211340218782,0.0477496087551116
1772807770933011000,0.588010986328125,0.1199959142118692,0.0245813374184072,-0.1216419095869176,-0.0153700578957796,0.0186561550945043,0.0408787205815315
1772807770953059800,0.608059814453125,0.1229968495935201,-0.0198187991917133,-0.114123204519879,-0.0250565614551305,0.0133289825171232,0.0265214573591947
1772807770973108700,0.628108642578125,0.0340203430235385,-0.0188123986281454,-0.0998814200092107,-0.0040914705023169,-0.0175619609653949,0.0262377839535474
1772807770993156900,0.648156982421875,0.112202483856678,0.0178391696818172,-0.1465301575300283,0.0165607817471027,-0.0078101777471601,0.0251554511487483
1772807771013205800,0.668205810546875,0.1807365063786506,-0.0040960371419787,-0.1455685276899486,-0.0100083872675895,0.0032051317393779,0.0068315039388835
1772807771033255000,0.6882548828125,0.1677420002490282,-0.0044596097573637,-0.1151975374868139,-0.045664794743061,-0.0344203524291515,-0.0082256495952606
1772807771053302800,0.708302734375,0.1138543427169322,0.0362643225580453,-0.126246608637087,-0.0535322353243827,-0.0423883497714996,-0.0195569954812526
1772807771073352000,0.72835205078125,0.1027852516919374,0.0568617049068212,-0.13233484250959,-0.0312163736671209,-0.0042537981644272,-0.0145405149087309
1772807771093400800,0.74840087890625,0.0726718529790639,0.0595155804164707,-0.0507333947522565,-0.0170328374952077,0.0161499064415693,-0.0209259409457445
1772807771113449700,0.76844970703125,-0.0744254186481237,0.0340733883850276,0.0176452362786047,-0.0131705533713102,-0.0289270766079425,-0.0194642469286918
1772807771133497600,0.78849755859375,0.0644774406075477,0.0594290711767971,-0.0169444493317976,0.0117148486897349,-0.0091388346627354,-0.0052319671958684
1772807771153546800,0.808546630859375,0.1211860007792711,0.0524007799752056,0.0049007411209866,0.003341452917084,0.0097071900963783,-0.0110206268727779
1772807771173596000,0.828595947265625,0.1229115093976259,-0.0012489771477878,0.0199797253744676,-0.0431374087929725,-0.016226127743721,-0.0290045365691185
1772807771193644800,0.848644775390625,0.0959258873164653,0.0102219726763665,0.0306959661074914,-0.0583909079432487,-0.0245667602866888,-0.0322526544332504
1772807771213693000,0.86869287109375,0.0156125796735286,0.0246625859610736,0.006545001196675,-0.0305481348186731,-0.002553332131356,-0.0146942837163805
1772807771233741800,0.888741943359375,0.0438227751135826,0.0504828175246715,-0.034432230026368,0.0072932769544422,0.0297799799591302,-0.0049583218060433
1772807771253791000,0.908791015625,0.0725514414697885,-0.0079572426147758,-0.0315845489776693,0.0079180309548974,0.0071600154042243,-0.0017318790778517
1772807771273839600,0.928839599609375,0.1381494105398654,-0.0229686415247619,-0.0748847615218721,-0.0063791028223931,-0.0106597142294049,-0.0143105667084455
1772807771293887700,0.9488876953125,0.1411713887095451,-0.0203913383826613,-0.1163438945103436,-0.0287703294306993,0.0001080392103176,-0.0375602766871452
1772807771313936600,0.9689365234375,0.0998708255499601,-0.0504883704826235,-0.0729857412338256,-0.0583561621606349,0.0098151415586471,-0.06873569637537
1772807771333985800,0.98898583984375,-0.0806540839046239,-0.0474473953515291,9.53501332551e-05,-0.0380122996866703,-0.0034097400493919,-0.071666419506073
1772807771354034000,1.009033935546875,-0.0476437947064638,0.0274007787533104,0.030221023805812,0.0223245453089475,0.022335847839713,-0.0470480546355247
1772807771374082800,1.029082763671875,0.0180512049973011,0.0186699214175343,0.0739373794028535,0.0448048189282417,0.0301338378340005,-0.0226147212088108
1772807771394132000,1.049132080078125,0.0757218881994485,-0.0007591478042304,0.0910484540058299,0.0215898510068655,-0.0018015594687312,-0.0096597392112016
1772807771414180900,1.069180908203125,0.1859931117326021,0.0381380074754357,0.0569166864970698,0.0094334417954087,0.0030591795220971,-0.0137067483738064
1772807771434229000,1.08922900390625,0.2572358086913824,0.0401940632224082,0.0114572318260557,-0.0123772900551557,0.0198686681687831,-0.028199590742588
1772807771454277600,1.109277587890625,0.1912958943158388,0.0029087270535528,0.0475022308113053,-0.041008960455656,-0.0011153405066579,-0.0421238467097282
1772807771474326800,1.129326904296875,0.0867962399214506,0.011240355938673,0.0763490984533913,-0.0318923778831958,-0.0481038503348827,-0.0245550777763128
1772807771494376000,1.1493759765625,0.0606277794420719,0.0395852836742997,0.0530156970031559,-0.0012816966045647,-0.0296180583536624,0.001931507140398
1772807771514423800,1.169423828125,0.0110860421597957,0.033384529338032,-0.0045966801404953,0.0078377956524491,-0.0027607025112956,0.0009143655188381
1772807771534473000,1.189472900390625,0.0720429074257612,0.0118251700893044,-0.0019392974995076,-0.0083765946328639,0.0203544702380895,-0.0141037330031394
1772807771554521900,1.20952197265625,-0.0051128129690885,-0.0463626688547432,-0.0078084635275416,-0.0276248566806316,0.0066565014421939,-0.0150073431432247
1772807771574571000,1.229571044921875,0.0223924490720033,0.0147528941042721,0.0338264644192531,0.0073370980098843,0.0070531722158193,-0.0068684332072734
1772807771594619000,1.249618896484375,0.0510498037576675,0.0221118785649538,0.0035987003454007,0.0217770002782344,0.0071070832200348,-0.0030250404961407
1772807771614667800,1.269667724609375,0.0855249048113823,0.0392171810142695,-0.032808556080982,0.0077099408954381,-0.0092259319499135,-0.0027120378799736
1772807771634716700,1.289716552734375,0.1216547873347997,0.0728045394480228,-0.0365011269886046,-0.0090676834806799,-0.01709302701056,-0.0078678363934159
1772807771654765800,1.309765869140625,0.131835405087471,0.0659058659754693,-0.0514724130839109,-0.0178555380553007,-0.0105629563331604,-0.0039592660032212
1772807771674813700,1.329813720703125,0.1448030232101678,0.0785242322690785,-0.0282752965655177,-0.0166041180491447,-0.0048190504312515,-0.006093789357692
1772807771694862800,1.34986279296875,0.0204506673544645,0.0620738865971565,-0.0351973143810406,-0.0028046311344951,-0.0319614112377166,-0.0019063390791416
1772807771714912000,1.369912109375,0.0864157161712646,0.0909858005657792,-0.0637803251888602,0.0213882718235254,-0.0176275242120027,-0.0018314002081751
1772807771734961000,1.3899609375,0.0945329716533422,0.0181236857116222,-0.0407753337090835,-0.0041939076036214,-0.0031909821555018,-0.010333102196455
1772807771755009000,1.410009033203125,0.1118073470592498,0.006742898388952,-0.0481091289295814,-0.0340091101825237,-0.0011994963278993,-0.0204403884708881
1772807771775058000,1.430057861328125,0.0571866990774869,0.0227872936084866,-0.0218873490940779,-0.0321382135152816,-0.0205083116888999,-0.0237046014517545
1772807771795106800,1.45010693359375,0.0201660051941871,0.0411570630356669,-0.0240068985313177,-0.0066037271171808,-0.0234894063323736,-0.0301872566342353
1772807771815156700,1.47015673828125,0.0646235710799694,0.0745562054209411,0.0028317893598228,0.0019946487154811,-0.0114734647795557,-0.0314867049455642
1772807771835204900,1.490204833984375,0.0909913535237312,0.0299994169443845,0.0507949522137641,0.0011474762577563,-0.0004560928209684,-0.0143885528668761
1772807771855253800,1.510253662109375,0.0706722035944461,0.0622448592498898,0.0428966184456832,-0.0223841723054647,-0.006346212234348,-0.0043975873850286
1772807771875303000,1.530302978515625,0.1079436573684215,0.0251991770558059,0.0609257394753396,-0.0182228572666645,0.0045226365327835,-0.0091787260025739
1772807771895351600,1.5503515625,0.1187619885027408,0.0376176368631422,0.0543066135965287,0.001944123301655,0.0096162874251604,-0.0070049259811639
1772807771915399700,1.570399658203125,0.1390197636336088,0.0283605636961758,0.0673918302169069,0.0072366967797279,-0.0202903002500534,0.0084202419966459
1772807771935448600,1.590448486328125,0.1677799941718578,0.0193856684714555,0.0746139452238567,-0.0343561172485351,-0.0438108593225479,0.0008146706968545
1772807771955497700,1.610497802734375,0.1781038197875022,0.0008937339693307,0.014470770960953,-0.0835317000746727,-0.0180900655686855,-0.0112286303192377
1772807771975547000,1.630546875,0.0688210227698087,0.026582740368694,0.0091722992266528,-0.0910056009888649,0.011010805144906,-0.0102368108928203
1772807771995594800,1.6505947265625,-0.0650461804062128,0.0682717183239758,0.0144249773241579,-0.0376303791999816,0.0058978958986699,0.0074963327497243
1772807772015644000,1.670643798828125,-0.0486632008820772,0.0845297562941908,-0.0135752834259532,0.0303131323307752,0.001383643830195,0.0189308449625968
1772807772035692800,1.69069287109375,-0.0222398888587951,0.0516172283820807,-0.0405117326031439,0.0380063019692897,-0.0051732850261032,0.0064371707849204
1772807772055741700,1.71074169921875,0.0711351449310779,0.0142452368430793,-0.0192182760152965,0.0033924947492778,0.0224070027470588,-0.0081957755610346
1772807772075789600,1.73078955078125,0.1208867255717515,-0.0049969315044581,-0.0308721446583047,-0.0235349424183368,0.042423877865076,-0.0013203392736613
1772807772095838700,1.750838623046875,0.0306131649285554,0.0104239249892532,-0.0525860734142363,-0.0339582674205303,-0.0034990070853382,-0.0112695032730698
1772807772115887600,1.7708876953125,0.0537730912417173,-0.0068633098982274,0.0006874890738166,-0.006676479242742,-0.025548854842782,-0.028723107650876
1772807772135936800,1.790936767578125,0.0541658899515867,0.0561586712040007,-0.0218582508637569,0.0326533019542694,-0.0094705764204263,-0.0253758393228054
1772807772155984600,1.810984619140625,0.0895604439377784,0.04881181557253,-0.0385835410195402,0.0223011821508407,0.0033162499312311,-0.0041950950399041
1772807772176033800,1.83103369140625,0.1952057612359523,0.0170813370518386,0.003754785956256,-0.0135450139641761,0.0231642369180917,-0.0151334488764405
1772807772196083000,1.8510830078125,0.0457084427297115,0.0090540979407727,0.0355744405977427,-0.0332751646637916,-0.0108067067340016,-0.0262317322194576
1772807772216131600,1.871131591796875,0.0702642073154449,0.0545841153636574,0.0302527341183274,0.0053548347204923,-0.012735079973936,-0.0167860798537731
1772807772236179700,1.8911796875,0.0451250898838043,0.0778917795844376,0.0322187369616702,0.0153107959777116,0.0009895208058878,-0.0158616956323385
1772807772256228600,1.911228515625,0.0781803872674703,0.0482440986871719,0.0338894283865578,-0.0042605083435773,0.0044929087162017,-0.0092203058302402
1772807772276277800,1.93127783203125,0.0107476039856672,0.0540314499169588,0.0704028303348459,-0.0111934915184974,-0.0098648434504866,-0.0020565879531204
1772807772296326700,1.95132666015625,0.072761284828186,0.0936094270676374,0.0294420387899503,0.0082304188981652,-0.0025959387421607,0.0071690417826175
1772807772316374800,1.971374755859375,0.0975596259981393,0.0518317479155957,0.0374792330394498,-4.0175858885e-05,0.0118899848312139,0.0033097856212407
1772807772336423700,1.991423583984375,0.0924222631096839,0.0464649601854383,0.0340079219333827,-0.0073567968793213,0.0066593447700142,0.0014981068670749
1772807772356472800,2.011472900390625,0.1198170505136251,0.0457271474301815,0.0101696214346215,-0.0086601255461573,0.0010002714116126,0.0061794919893145
1772807772376521700,2.031521728515625,0.0824403827995061,0.0261322201222181,0.0326206505597569,-0.019082598388195,-0.0217765122652053,0.0093736182898283
1772807772396569900,2.05156982421875,0.0653010319501161,0.0414294502362608,0.0045146644128486,-0.0186969712376594,-0.0173095930367708,0.0104945432394742
1772807772416618800,2.07161865234375,0.068945525932312,0.0288097687683999,-0.0228949552340433,-0.0060531087219715,0.010151982307434,0.0178902670741081
1772807772436667600,2.091667724609375,0.0306657718986272,0.032732641300559,-0.0314655439741909,-0.0069707343354821,0.0096524180844426,0.0113055109977722
1772807772456716800,2.111716796875,0.0628536387979984,-0.0008067863382399,-0.0090515041248872,-0.0032236669212579,-0.0054548964835703,0.0047522699460387
1772807772476764700,2.1317646484375,0.0428437009483575,0.0334372824385762,-0.012499470887985,0.0091726183891296,-0.01494010258466,0.0017940073739737
1772807772496813800,2.151813720703125,0.1234907705903053,0.0450914798751473,-0.0248696528404951,0.0055643776431679,0.0089859031140804,0.0008826036937534
1772807772516862700,2.17186279296875,0.0784773243874311,0.0446884520322084,0.0045356706682592,-0.024567449465394,-0.0008570241043344,-0.0066129439510405
1772807772536911600,2.19191162109375,0.0534177019327878,0.0834668032377958,0.0089386000686325,-0.0192334782332181,-0.0046958653256297,-0.0041356021538376
1772807772556959700,2.211959716796875,0.0486842436701059,0.0958538449935615,0.0119960514104925,-0.0015739644877612,0.0025895212311297,0.011045966297388
1772807772577008600,2.232008544921875,0.0832394242227077,0.0739760674454271,0.0337194238482043,0.0123013518750667,0.0022141332738101,0.0271295737475156
1772807772597057800,2.252057861328125,0.1307856037735938,0.0643941462382674,0.0016164039543829,-0.0064364317804574,-0.0038304603658616,0.0238973405212163
1772807772617106700,2.272106689453125,0.1242062253832817,0.0226321030467748,-0.0363859213774092,-0.0174076184630393,-0.0045901415869593,0.010579265654087
1772807772637154800,2.29215478515625,0.0700263069063425,0.0414461091101169,-0.0116765736651606,-0.0063215284608304,-0.0026899026706814,0.0096726920455694
1772807772657203700,2.31220361328125,0.1395364809840917,0.0356650414906442,-0.0187743864390067,0.0050042904913425,0.0029976428486406,0.0249581355601549
1772807772677252900,2.3322529296875,0.0638847354114055,-0.0019961422532796,-0.0153243921156041,-0.0235191583633422,-0.0317545905709266,0.0141312517225742
1772807772697301500,2.352301513671875,0.0606651888430118,-0.0155551503978669,-0.0320607333883643,-0.037298034876585,-0.0403509698808193,0.0051624197512865
1772807772717350000,2.372349853515625,-0.0057639703541994,0.0019857669897377,-0.0553813118896447,-0.0214654486626386,0.0027193096466362,0.0045930477790534
1772807772737398800,2.392398681640625,-0.0381698639184236,0.0238140063077211,-0.0786082755570299,0.0055557573214173,0.0276828464120626,0.0113461520522832
1772807772757447700,2.41244775390625,0.0391816713094711,-0.0099528003461658,-0.0204226285700686,0.0271423738449811,0.0253427717834711,0.0279355272650718
1772807772777496800,2.432496826171875,0.072302435144782,-0.0092252167239785,-0.0324561441804282,0.0301961712539196,-0.0127846607938408,0.0337764173746109
1772807772797544700,2.452544677734375,0.2136708077311515,-0.0194103645212948,-0.0601245608939789,0.006044446490705,-0.0283303726464509,0.0253144912421703
1772807772817589000,2.472589111328125,0.2509101128011942,0.0100118370570242,-0.1223608167123049,-0.0466440171003341,-0.0204431284219026,-0.0097342487424612
1772807772837638100,2.49263818359375,0.1173205575227737,-0.0085815119929611,-0.0422949992907233,-0.0702694728970527,-0.0300191957503557,-0.0276482459157705
1772807772857687000,2.51268701171875,0.0453349332422018,0.0455292867705225,-0.0284221576903015,-0.0387014299631118,-0.0087850056588649,-0.0103980479761958
1772807772877736200,2.532736083984375,-0.0196323367089033,0.0569894229397177,0.0211990745689719,0.0162517856806516,-0.0042217024601995,0.0185665376484394
1772807772897784000,2.5527841796875,0.0347106633752584,0.0372027724519372,0.0163268106237985,0.0231611654162406,-0.0213334113359451,0.0276803374290466
1772807772917833200,2.572833251953125,0.0154646956354379,0.0137369950599968,0.0653746725750621,0.0183976422995328,-0.0220680106431245,0.0151065243408083
1772807772937882000,2.592882080078125,0.0584819995850324,0.0248025789536535,-0.0018797858646139,0.0160798933357,0.0083072120323777,0.0208095218986272
1772807772957931000,2.612930908203125,0.1070306341767311,-0.0196093942247331,0.0343644620197825,-0.0023467363789677,0.0253272261470556,0.0314522646367549
1772807772977979100,2.632979248046875,0.0991261446624994,-0.0125819798059761,0.0161873838867992,-0.025087010115385,0.0076138456352055,0.031186020001769
1772807772998028000,2.653028076171875,0.1478653333902359,-0.0090830317743122,-0.047704164857883,-0.0118893990293145,-0.0048681022599339,0.0345082655549049
1772807773018077200,2.6730771484375,0.0458253471076488,0.0101933311037719,-0.0637566794517915,0.0076792174950242,-0.0345840603113174,0.0167500656098127
1772807773038126000,2.6931259765625,0.0701455493718385,0.0185479024730622,-0.0595143839732278,0.0282687209546566,-0.0192840453237295,0.0024677291512489
1772807773058174200,2.71317431640625,0.050849312749505,0.0195968270041048,-0.0583805028387811,0.0140721350908279,0.0151035990566015,0.0138325728476047
1772807773078223000,2.73322314453125,0.1355693309187889,-0.0068925359927117,-0.0427685807523783,-0.0120272058993577,0.0368424020707607,0.0258824620395898
1772807773098272000,2.75327197265625,0.0425917720139026,-0.0117572194196283,0.0103852369466796,-0.0249264445155859,-0.0055857328698039,0.0242413748055696
1772807773118321200,2.773321044921875,0.0505851088553667,0.0271950270481407,-0.0091644173142965,0.0216808095574378,-0.0307527054101228,0.022120201960206
1772807773138369000,2.793369140625,0.1141173775672912,0.055064300096035,-0.0467335662600584,0.0531350411474704,-0.0019381380407139,0.0226819552481174
1772807773158418200,2.813418212890625,0.1119809500604867,-0.0098512396678328,-0.0479584592793602,-0.0016865201760083,0.0098024727776646,0.0127933826297521
1772807773178467000,2.833467041015625,0.1591805081307888,-0.0463560929834842,-0.0363359721553046,-0.0401511862874031,0.0292416382580995,0.0137424170970916
1772807773198516200,2.85351611328125,0.0043891748696565,0.0199345345258712,-0.0194733102222904,-0.0073943706229329,0.0156465675681829,0.0133656039834022
1772807773218564000,2.873564208984375,0.0539069467544555,0.0241743640527129,0.0263753355625551,0.0400425046682357,0.0047475099563598,0.0250648017972707
1772807773238613200,2.89361328125,0.129772627338767,0.0218539582811296,0.0171442370870616,0.0243486911058425,-0.0233777724206447,0.0271763876080513
1772807773258662000,2.913661865234375,0.0011158522874116,-0.0093247315756976,0.0341129806098993,-0.0029247463680803,-0.0615531280636787,0.0261788703501224
1772807773278711000,2.9337109375,0.058646834757924,0.0541648670382797,-0.0234212441304698,0.0163248535245656,-0.0035153843928128,0.0356505662202835
1772807773298759000,2.953759033203125,0.0056213470131158,0.0290915083192288,-0.0498997386734001,0.0308964103460311,0.0389440953731536,0.0315658450126647
1772807773318808000,2.97380810546875,0.0220469966351985,0.0078971829906106,-0.0491684561236295,0.0222988817840814,0.0149564445018768,0.0071444944478571
1772807773338857200,2.993857177734375,0.111206458556652,-0.0063496612876653,-0.0503498113953042,0.0255171377211809,0.0123188942670822,-0.0090501308441162
1772807773358906000,3.013906005859375,0.1642681866586208,0.0079807696208357,-0.0453246401770506,0.0281759444624185,0.0274932757019996,-0.000889463815838
1772807773378954200,3.033954345703125,0.1661333960086107,-0.0308439049445092,-0.0258482429485302,-0.0007375336717814,0.0066994037479162,0.0017277528531849
1772807773399003100,3.054003173828125,0.1183937397122383,-0.0215216575868427,-0.0477804084318689,-0.0256155971437692,-0.0302168689668178,-0.007581662852317
1772807773419052000,3.074052001953125,0.0993435868054628,0.0078917761631309,-0.0928045495586935,-0.0159819275140762,-0.0255656819790601,-0.0169829465448856
1772807773439101000,3.094100830078125,0.0630915392071008,0.03830240425691,-0.0925199695968069,0.0052798986434936,0.0069032860919833,-0.0345375537872314
1772807773459149000,3.114149169921875,0.0920990225046873,0.023790771562606,-0.0443036448325496,0.0301064234226942,0.037384495139122,-0.0152234537526965
1772807773479198000,3.134197998046875,0.1222919161945581,-0.0261572084330022,-0.015118339016335,0.0208105854690074,0.0107210176065564,0.0016126465052366
1772807773499247000,3.1542470703125,0.1751309414565563,-0.0400447178795933,0.0325063125982414,-0.0165784768760204,-0.0320012085139751,-0.0228250175714492
1772807773519296300,3.174296142578125,0.1482107858270406,-0.0267816239416599,-0.0167760339623317,-0.0480612516403198,-0.0216337665915489,-0.0513685569167137
1772807773539344100,3.19434423828125,0.0715542471259832,0.0341562443628907,-0.020107927464554,-0.0327660478651523,0.0071372282691299,-0.0581499189138412
1772807773559393300,3.214393310546875,0.0135153151333332,0.0470035971067845,0.0507484005251433,-0.0056187929585576,0.0167589951306581,-0.0274142585694789
1772807773579442000,3.23444189453125,-0.0445557655632495,0.0279122354067862,0.0457467563129495,0.0073052374646067,-0.0103164473548531,-0.0038216616958379
1772807773599491000,3.254490966796875,0.0309323138803243,0.0275612300120294,0.0765907891216222,0.0243183821439743,-0.0035606399178504,-0.0071383267641067
1772807773619540000,3.2745400390625,0.0960094739466905,0.030676439423114,0.0615826781472656,0.0234733615070581,0.0289262048900127,-0.0096951238811016
1772807773639588000,3.294588134765625,0.0948340004265308,-0.008498656015098,0.0331866047462914,-0.0052628009580075,0.0128916446119546,0.0062452955171465
1772807773659637000,3.314636962890625,0.1108826334297656,-0.0271678467802703,0.057461205169931,-0.0254906751215457,-0.0038285246118903,0.000842100707814
1772807773679686100,3.33468603515625,-0.0448807597339153,0.0228258720532059,0.02078839314254,0.0089537557214498,-0.0344890095293521,-0.0066385683603584
1772807773699734000,3.354734130859375,0.0901093099921941,0.0601803279355168,-0.0428366044872906,0.0554627887904644,0.0146148120984435,-0.0008383770473301
1772807773719783200,3.374783203125,0.0741968705892562,0.0412317357070744,-0.0399559070849791,0.0290565304458141,0.0183578990399837,0.0023530051112174
1772807773739832000,3.39483203125,0.1719815375149249,-0.0107834059514105,-0.0358632948759477,-0.0239040348678827,0.0217086263000965,-0.0009476821869611
1772807773759881000,3.414880859375,0.1271118836969137,0.0118484048344194,-0.0214173569621518,-0.0213955324143171,0.0225447602570056,-0.0075852060690522
1772807773779930000,3.43493017578125,0.0694680885016918,0.0018966274015605,-0.0541152009439654,0.0030882908031344,-0.0086900992318987,-0.004652046598494
1772807773799978000,3.45497802734375,0.0636871670126914,-0.006555412992835,-0.0183217290343716,0.0119539517909288,-0.0396451018750667,-0.0182042829692363
1772807773820028400,3.4750283203125,0.0398082787752151,0.0052459378294646,-0.014505750942789,0.0109451245516538,-0.0290514435619115,-0.0206952765583992
1772807773840077000,3.4950771484375,0.0394376918971538,0.0524338054619729,-0.0680145469588227,0.0166550856083631,0.0126878200098872,-0.0018885545432567
1772807773860126200,3.515126220703125,0.0523982957571744,-0.0005035656079649,-0.0435750930959824,0.0040586744435131,0.0295252911746501,-0.0012212353758513
1772807773880174000,3.535174072265625,0.0879325504750013,-0.010512918446958,0.0067783167622052,-0.0039971945807337,0.0157880056649446,-0.018748065456748
1772807773900223200,3.55522314453125,0.0188765499055385,0.0229663034372031,0.0133791854651179,0.0079251239076256,-0.0254086293280124,-0.0213536322116851
1772807773920272400,3.5752724609375,0.137519880464673,0.0431549588546156,-0.0037737463850528,0.0221268180757761,-0.0061135715804994,-0.0084553193300962
1772807773940321300,3.5953212890625,0.1122878240525722,0.0405972371958196,0.004143118553562,0.0051628211513161,0.0083062900230288,-0.0067928344942629
1772807773960369400,3.615369384765625,0.1673643991082906,0.0206288004003465,0.0291974346454255,-0.0181821826845407,0.0130075681954622,-0.0056458110921084
1772807773980418300,3.635418212890625,0.063458618953824,0.0241406079135835,0.0269097620996646,-0.0206352937966585,-0.0038104697596281,-0.0106100812554359
1772807774000467200,3.65546728515625,0.046358431071043,0.0839820592835545,-0.0050071423712186,-0.0026829000562429,-0.0126181915402412,-0.0084312697872519
1772807774020516000,3.67551611328125,0.1024976669222116,0.0757157507196068,-0.021865712651005,0.0162501893937587,0.0160151254385709,-0.0037955967709422
1772807774040564200,3.695564208984375,0.0889595554351806,0.0475387268967926,0.0076567435645498,-6.8352092057e-06,0.0051892315968871,0.0004170143511146
1772807774060613000,3.715613037109375,0.0329401465713977,0.0223835351131856,0.0312892284260597,-0.0195434726774692,-0.0308116246014833,-0.00934330932796
1772807774080662300,3.735662353515625,0.0467436309963464,0.0239170282907783,-0.0187261725162621,-0.0165899991989135,-0.0162035077810287,-0.0058650821447372
1772807774100711400,3.75571142578125,-0.0052285483032464,-2.0458266139e-05,0.0043127212331164,-0.0055002579465508,0.0075784223154187,-0.0003682831302285
1772807774120759300,3.77575927734375,0.0223006791353225,0.0124475397713482,-0.0284188423552084,0.0132745672017335,0.0254987403750419,0.0145926959812641
1772807774140808400,3.795808349609375,0.0263362182617187,-0.0539890720799565,-0.0071557717724703,0.0365718267858028,0.0145119652152061,0.0215187445282936
1772807774160857000,3.815857177734375,0.11885668104887,-0.0135131231762468,-0.0276268517273012,0.0478310659527778,0.0067388270981609,0.0040931142866611
1772807774180906200,3.83590625,0.1903717652082443,-0.0435964190118014,-0.0262402744734194,0.0261825677007436,-0.0045448159798979,-0.0079315546900033
1772807774200954000,3.8559541015625,0.2034656400591135,0.0281605110794305,-0.0431942679516971,-0.0219288431107997,-0.01920598000288,-0.025780675932765
1772807774221003300,3.876003173828125,0.1228922201752662,0.0362521937288343,-0.0057437404169235,-0.0385143049061298,8.61914595589e-05,-0.0484553724527359
1772807774241052200,3.89605224609375,0.057492404025793,0.0905658215880394,0.0324442984790075,-0.008748491294682,0.0263192281126976,-0.0354019217193126
1772807774261101300,3.916101318359375,0.0578992312610149,0.0690279435187578,0.0905422580493614,0.0154412910342216,0.0192004814743995,7.5474381446e-06
1772807774281149200,3.936149169921875,0.0568482609033584,0.0450299589462578,0.0687794851830229,0.0072748530656099,-0.0128228906542062,0.0164133254438638
1772807774301198300,3.9561982421875,0.1324579208999872,0.019688743071258,0.0571350236891768,-0.0058250916190445,-0.0002801268710754,0.0035437736660242
1772807774321247200,3.976247314453125,0.0319751009315252,-0.0199003399953246,0.0377160740026272,-0.0167829096317291,-0.0036467516329139,-0.0007418086752295
1772807774341296000,3.996296142578125,0.0131049807667732,-0.0262466402821242,-0.0005626388514414,-0.0115203121677041,0.0046267216093838,0.0103436689823865
1772807774361344300,4.01634423828125,0.0226040459960699,-0.026043811186403,-0.025658428598009,0.0021239570342004,0.0141238672658801,0.0118189100176095
1772807774381393200,4.03639306640625,-0.0031494039416313,-0.0268637492671608,-0.0260404867181554,0.0155586637556552,0.0063761286437511,0.0075021805241703
1772807774401442300,4.0564423828125,0.0460047953277826,-0.0054326925732195,-0.0584964665018022,0.03308891877532,0.0060754576697945,0.0112781133502721
1772807774421491200,4.0764912109375,0.1362508834421634,-0.0187226745180785,-0.0546348774365149,0.0269710104912519,0.0162023454904556,0.0115940123796463
1772807774441539300,4.096539306640625,0.1794949818849563,-0.002623918762803,-0.0768394575199112,-0.0081548979505896,0.0008054746431298,-0.0046063330955803
1772807774461588200,4.116588134765625,0.2065636060744524,0.0077513447791337,-0.0712461675575003,-0.0286686699837446,0.0025049825198948,-0.017088858410716
1772807774481637000,4.13663720703125,0.0791793351769447,0.0442022759504616,-0.0216684273800812,-0.0209039580076932,-0.0253847036510705,-0.0203099511563777
1772807774501686300,4.156686279296875,0.0366208809107542,0.0402456472791731,-0.0169740042198449,0.0133037893101572,-0.0262261424213647,0.0018513002432882
1772807774521735200,4.176735107421875,0.0788894123196601,0.0584158024810254,-0.0255263083846308,0.0072108646854758,0.0019247233867645,0.0023112164344638
1772807774541783300,4.196783203125,0.1133580836325883,0.0138026076421141,-0.0064164977124892,-0.0157460458576679,0.0096400752663612,-0.0048055723309516
1772807774561832200,4.216832275390625,0.0987573113501072,-0.0104613343901932,0.0101372535349801,-0.0343875922262668,-0.0128481881693005,-0.0093627609312534
1772807774581881300,4.23688134765625,-0.0540355415701866,-0.00973521207273,0.0680323748764581,7.79980327934e-05,-0.0279848929494619,-0.0035349428653717
1772807774601930200,4.25693017578125,0.0421697472095489,0.0447176781266927,0.0424942847224883,0.0460154935717582,0.0095542734488844,0.0105825895443558
1772807774621978400,4.276978271484375,0.1004424879580736,-0.0258522341370582,0.0756294058767147,0.0314565226435661,0.0198652353137731,0.0218874420970678
1772807774642027300,4.29702734375,0.1750526155233383,0.0442576593995094,0.0564759569922462,-0.021816186606884,-0.0131251672282814,0.0078644752502441
1772807774662076200,4.317076171875,0.0264800106465816,0.0119951198287308,0.0842928422657772,-0.0283260680735111,-0.0358318351209163,0.0005907914601266
1772807774682125300,4.337125244140625,0.1213695406526327,0.1684618389561772,0.0241942195306532,0.0246960427612066,0.0324308015406131,0.0180837530642747
1772807774702173200,4.357173095703125,0.0899035582870245,0.0775081870943307,0.0668977082907222,0.0203283373266458,0.0223811622709035,0.0321029685437679
1772807774722222300,4.377222412109375,0.1410346105873584,0.0336241833128035,0.1025417617922648,-0.0440403148531913,-0.0273113101720809,0.0302766188979148
1772807774742271200,4.397271240234375,0.1304974344819784,0.0322124168187379,0.0423091556802392,-0.0511903464794158,-0.0097422888502478,0.0281855873763561
1772807774762320400,4.4173203125,0.0481517442286014,0.0676790131278336,-0.0222083429430611,-0.0181625504046678,0.0143264634534716,0.0258083213120698
1772807774782368300,4.4373681640625,0.0316249723196029,0.0238202899180352,0.0061943976607173,-0.0008582477457821,0.0228166952729225,0.0321946516633033
1772807774802416000,4.457416015625,0.0064782561033964,0.0017607260622084,-0.0008917246753349,-0.0048182709142565,0.0019564647227525,0.0443575866520404
1772807774822465300,4.47746533203125,0.0193821613401174,0.0063495151571929,-0.0113607309153303,0.0020573257934302,0.0049761114642024,0.0507336072623729
1772807774842514200,4.49751416015625,0.0784434221178293,0.0262811270736157,-0.044139695575647,0.0033236099407076,0.0335965789854526,0.0438758991658687
1772807774862562300,4.517562255859375,0.0819236654490232,-0.0419070046201348,-0.0424299507820047,-0.0258979424834251,0.0327149368822574,0.0263523831963539
1772807774882611200,4.537611083984375,0.0574684386283159,-0.0327794030517339,-0.0127234158369712,-0.0171602070331573,0.0253802724182605,0.0187485702335834
1772807774902660000,4.55766015625,0.1001250925719738,-0.03554229189381,-0.0391014091474935,0.0092295883223414,0.0249773412942886,0.034176368266344
1772807774922709200,4.577709228515625,0.1245347266852855,-0.0937570188447833,-0.0666088448793627,0.0137250032275915,0.0049452930688858,0.0432223826646804
1772807774942757000,4.597757080078125,0.1318389122188091,-0.1423477390125394,-0.0634439693739637,-0.0069690640084445,-0.0133488643914461,0.0186485163867473
1772807774962806300,4.61780615234375,0.1659597930073738,-0.1569632704727351,-0.1340046571516431,-0.0246533248573541,0.0031841376330703,-0.0108271175995469
1772807774982855400,4.63785546875,0.0815215143889188,-0.1329725924238562,-0.1067145174322649,-0.0202036686241626,0.0013899727491661,-0.0396240316331386
1772807775002904000,4.657904052734375,0.0234755681335926,-0.1119191368706524,-0.033057032683026,-0.0124715194106101,-0.0098535241559147,-0.0536565259099006
1772807775022952200,4.6779521484375,0.0080126260638237,-0.0854204215236008,0.0283292187098413,0.0017844038084149,-0.0069571826606988,-0.0491368547081947
1772807775043001000,4.6980009765625,0.0064028527796268,-0.0384796605199575,0.0128436629494652,0.0017005654517561,0.0087184775620698,-0.0348322615027427
1772807775063050200,4.71805029296875,-0.0449666844516992,-0.0052919689282774,0.1031124926186166,-0.0051132789812982,-0.0104963248595595,-0.0411070510745048
1772807775083099100,4.73809912109375,-0.0806605136454105,0.0197638541340827,0.1070190533367917,0.0064039262942969,-0.0315006077289581,-0.0360445901751518
1772807775103147300,4.758147216796875,0.0081464815765619,0.1214089958801865,0.0549597620093263,0.0205672699958086,0.0108054988086223,-0.0257596354931592
1772807775123196200,4.778196044921875,0.0657446840643882,0.1403932439438998,0.0468899441318586,0.006668496876955,0.0333715304732322,-0.0139771737158298
1772807775143245300,4.798245361328125,0.0606441460549831,0.1572114000149071,0.0847939419220201,0.0049138152971863,0.0027586587239056,-0.0011298889294266
1772807775163294200,4.818294189453125,0.1834282296806574,0.2025952869653701,0.0504726797231473,0.021537821739912,0.0103511912748217,0.0091953258961439
1772807775183342300,4.83834228515625,0.226881586959958,0.1350548055253922,-0.0203725788832642,-0.0041490183211863,0.0035415780730545,0.013632696121931
1772807775203391200,4.85839111328125,0.1694569874733686,0.0855976777866482,-0.0458859547210857,-0.0373397544026374,-0.0392691455781459,0.0027583381161093
1772807775223440100,4.878440185546875,0.2083633489727973,0.1041819667473435,-0.1308314887419343,-0.0301960185170173,-0.0349826179444789,0.0039525344036519
1772807775243489300,4.8984892578125,0.1785106470227241,0.0751867584094405,-0.2139142428318969,-0.0296667981892824,-0.0226998310536146,-0.0148563534021377
1772807775263537200,4.918537109375,0.1004319665640592,0.001394961489737,-0.2019678575157187,-0.0248824302107095,-0.0394870638847351,-0.0320606417953968
1772807775283586300,4.93858642578125,0.1611333957642316,0.007453384745866,-0.2283329182794317,-0.017078086733818,-0.0332134813070297,-0.0445598736405372
1772807775303635200,4.95863525390625,0.1279173548609018,-0.0195600021250545,-0.1943602137899026,-0.0212216731160879,-0.0430566407740116,-0.0624472871422767
1772807775323684000,4.97868408203125,0.187203656566143,-0.0130570499718189,-0.1984567258559167,-0.0231557823717594,-0.0430126450955867,-0.0697182863950729
1772807775343732200,4.998732177734375,0.1621428650677204,-0.0235913034677505,-0.1617509796733036,-0.0447435602545738,-0.0721365213394165,-0.0863571017980575
1772807775363781000,5.018781005859375,0.0117465518951416,-0.006501344718039,-0.1289492734582163,-0.0664298981428146,-0.1119827106595039,-0.1067487001419067
1772807775383830300,5.038830322265625,-0.1442325298458337,0.0167835231490433,-0.0955901982218492,-0.046324722468853,-0.0916513949632644,-0.1186299845576286
1772807775403879200,5.058879150390625,-0.2256669504731893,0.0471674093663692,-0.0746791011482477,-0.0044541200622916,-0.0224268566817045,-0.120213933289051
1772807775423927300,5.07892724609375,-0.2361813302248716,-0.0077832012221217,-0.0126752019142266,0.0263852849602699,0.004402361344546,-0.1070669740438461
1772807775443976200,5.09897607421875,-0.1354232004463672,-0.0213173671863973,-0.0101849468679167,0.062917560338974,0.0109093133360147,-0.0863143354654312
1772807775464025300,5.119025390625,0.0121375970393419,-0.019872429075092,0.0197770424092188,0.0865001678466796,-0.0064126695506274,-0.0871672332286834
1772807775484074200,5.13907421875,0.1815951690346002,-0.055252516144514,0.0598577175181824,0.0751417577266693,-0.0457282550632953,-0.0995872914791107
1772807775504122400,5.159122314453125,0.3296235840320587,-0.0375936714656651,0.0896092789150308,0.0412917211651802,-0.0432510785758495,-0.1152049973607063
1772807775524171000,5.1791708984375,0.3302636355012655,-0.0212071848101913,0.0117272900722455,-0.0216694474220275,-0.0315121561288833,-0.1189367771148681
1772807775544220200,5.19922021484375,0.3050841860592365,0.0159507255867123,0.0306169551876839,-0.0401273854076862,-0.0284703690558671,-0.1322561055421829
1772807775564269300,5.219269287109375,0.2540934190124273,0.0303805252164602,0.0658703928032889,-0.0277353283017873,-0.0300873648375272,-0.1440035104751587
1772807775584317200,5.239317138671875,0.1763192744582891,-0.0350730669468641,0.1414114993420429,-0.0330350697040557,-0.0613374523818492,-0.1405148208141327
1772807775604366300,5.259366455078125,0.1012140568524599,0.010428016642481,0.126894679015968,-0.0403658561408519,-0.077579490840435,-0.1230505034327507
1772807775624415200,5.279415283203125,0.0678606533050537,-0.0140821552358567,0.1049694181974511,-0.0326304361224174,-0.0370062328875064,-0.0934968739748001
1772807775644464000,5.299464111328125,-0.0046370121508836,-0.0221620013169944,0.1476420642946846,-0.0178706180304288,-0.0187795404344797,-0.0805683359503746
1772807775664512300,5.31951220703125,0.0110252518832683,-0.0356250017412006,0.1746400526670739,0.0062551004812121,-0.0306276008486747,-0.0639218688011169
1772807775684561200,5.33956103515625,0.0330775092154741,-0.0426909946046769,0.1472383423320017,0.0127608198672533,-0.0551680214703083,-0.0527936145663261
1772807775704610000,5.359610107421875,0.1103752684295177,-0.0647375528484582,0.1214603059423156,-0.0034228009171783,-0.0340695902705192,-0.0581540167331695
1772807775724659200,5.3796591796875,0.0328425314158201,-0.096963413670659,0.1247587994984351,-0.02822888456285,-0.0329054296016693,-0.0661562532186508
1772807775744707000,5.39970703125,-0.0326116452693939,-0.0951323988512158,0.1450767803839407,-0.0138865280896425,-0.0407740548253059,-0.053480789065361
1772807775764756200,5.419756103515625,-0.1417325297236442,-0.0178346396371722,0.0663722048455849,0.0330647341907024,-0.0562211908400058,-0.0318183712661266
1772807775784805400,5.439805419921875,-0.1466582956880331,0.0226354640476405,0.0195648152974899,0.0697296112775802,-0.0477359257638454,-0.0235287174582481
1772807775804858000,5.459858154296875,-0.0147287825763225,0.0142087042249739,-0.0121666222044266,0.080488733947277,-0.0007466232054866,-0.0181847140192985
1772807775824906000,5.479906005859375,0.0238163443952798,0.0276133985906839,-0.0544729648730717,0.0602803975343704,-0.0002493818174116,-0.0105742570012807
1772807775844955100,5.499955078125,0.0510030420064926,0.023710692063719,-0.0620406875804532,0.0439724586904048,-0.0232661850750446,-0.0213924795389175
1772807775865004300,5.52000439453125,0.1736678831666707,0.0647338995866477,-0.0312529720858787,0.0557866767048835,-0.0037631071172654,-0.0377881862223148
1772807775885053200,5.54005322265625,0.1673532931923866,0.0835328542113304,-0.0283227410199935,0.0706527158617973,-0.0169918369501829,-0.0223824344575405
1772807775905101300,5.560101318359375,0.197974056905508,0.1077910971552133,-0.0207163827856769,0.0604379884898662,-0.0388336926698684,-0.0067144683562219
1772807775925150200,5.580150146484375,0.268670810419321,0.1088416291214525,-0.0241402951030409,0.0338012427091598,-0.0271313991397619,-0.0263447687029838
1772807775945199400,5.600199462890625,0.1990279498726129,0.1144232286460697,-0.0206838550558313,-0.0022281534038484,-0.0296224001795053,-0.049174528568983
1772807775965248000,5.620248046875,0.1509533625334501,0.1447318576700985,-0.0049121278813923,0.0074317855760455,-0.0326568819582462,-0.0392925143241882
1772807775985296100,5.640296142578125,0.1238619419902563,0.1567429057203233,0.0138409703160577,0.0164041426032781,-0.0277564618736505,-0.0282755009829998
1772807776005345000,5.660344970703125,0.1257750821352005,0.094019615303725,0.0437754288405179,-0.011405698955059,-0.0168063659220933,-0.0321669690310955
1772807776025394200,5.680394287109375,0.1536158597409725,0.0862299843408167,0.0517458140646573,-0.0469131134450435,0.0062338425777852,-0.0374998226761817
1772807776045443300,5.700443359375,0.1387690037429332,0.0677228522695601,0.0765447397565003,-0.075860247015953,0.0019184971461072,-0.0386612154543399
1772807776065491200,5.7204912109375,0.0476677601039409,0.0731919313304126,0.0931960056948475,-0.0699101388454437,-0.0143606951460242,-0.0392804257571697
1772807776085540400,5.740540283203125,0.0080582187712192,0.1266303837902843,0.0581352274073986,-0.0316134467720985,-0.0050663161091506,-0.0342845544219017
1772807776105589200,5.76058935546875,-0.0128501292228698,0.0925942586757242,0.0591214117334224,-0.0100703155621886,-0.0119041083380579,-0.0211613178253173
1772807776125638100,5.78063818359375,-0.1353168174624443,0.0669055445373058,0.1103487548819277,0.0035178824327886,-0.0456855334341526,0.0022233093623071
1772807776145686300,5.800686279296875,-0.0849345377027988,0.0587659310929477,0.0044039306224382,0.0339323915541172,-0.010278457775712,0.032529130578041
1772807776165735200,5.820735107421875,-0.0337684140890836,0.0559574495434761,-0.0306655275867437,0.0436889827251434,0.0204155836254358,0.0264687500894069
1772807776185784000,5.8407841796875,0.015507365733385,0.0229790167883038,-0.0421269903466338,0.057057611644268,0.0111867180094122,0.0226292237639427
1772807776205833200,5.860833251953125,0.1772685380071401,0.0079151570387184,-0.054199436028162,0.0490079410374164,0.0153076937422156,0.0282194651663303
1772807776225881000,5.880881103515625,0.206388834029436,-0.0480783867314457,-0.0505423108932562,0.0090851485729217,-0.0110837779939174,0.0316789001226425
1772807776245930200,5.90093017578125,0.1991571292102336,-0.0278334710821509,-0.0508251007568556,-0.0015079143922775,-0.0366106070578098,0.0323412977159023
1772807776265979400,5.9209794921875,0.1675233890622854,0.0159542327180504,-0.1029966659529134,0.0102234026417136,-0.0271661970764398,0.0230803750455379
1772807776286028000,5.941028076171875,0.1768394989401102,-0.0178635734707117,-0.0616664839731995,-0.0013947300612926,-0.008201602846384,0.0186121705919504
1772807776306076400,5.961076416015625,0.1132236435979604,-0.0114712420850992,-0.0090023426373605,-0.0113514168187975,-0.008083987981081,0.0378807075321674
1772807776326125000,5.981125,0.0815180072575807,-0.0213612063281238,-0.0282745407969807,0.0050647431053221,-0.0048597552813589,0.0557119473814964
1772807776346174200,6.00117431640625,0.1385164902865886,-0.0195307760305702,-0.0132060619544936,0.0055161961354315,-0.0024213546421378,0.0389979071915149
1772807776366223000,6.02122314453125,0.096553079304099,-0.029724399395287,-0.0351975381433265,-0.0231151320040226,-0.0116182742640376,0.0111922677606344
1772807776386271200,6.041271240234375,0.0045890813559293,0.0125173901371657,0.0366036671977606,-0.0232436694204807,-0.0082455957308411,0.0185639560222625
1772807776406320000,6.061320068359375,-0.0583469750285148,0.0995711119510233,0.0355092618404654,0.0132610332220792,-0.0025320767890661,0.0459830649197101
1772807776426369300,6.081369384765625,-0.019341829329729,0.0980487246893346,0.0445270783248823,0.0197580326348543,0.0101930145174264,0.0738127678632736
1772807776446417200,6.101417236328125,-0.0426589920312166,0.1072448614493012,0.0429590389902936,0.0149920135736465,0.0019266895251348,0.0833230465650558
1772807776466466300,6.12146630859375,0.0136953478753566,0.1332883803747594,0.0012382639575283,0.0346336513757705,0.0277866553515195,0.0929686203598976
1772807776486515200,6.14151513671875,0.1217389584869146,0.1107676287479698,-0.0302279878361383,0.0337000414729118,0.052238505333662,0.097536489367485
1772807776506564000,6.161564208984375,0.2217483157247304,0.0118093879982829,-0.0319620428038411,-0.0055152704007923,0.0270844157785177,0.0981141254305839
1772807776526613200,6.18161328125,0.2516553782105445,-0.0075825640834867,-0.0407957645757589,-0.0323125049471855,0.0031326157040894,0.0809787884354591
1772807776546661000,6.2016611328125,0.2093745718419551,0.0109327512942254,-0.0866962044799234,-0.026340365409851,-0.0117983724921941,0.0690336599946022
1772807776566710300,6.221710205078125,0.2171422832340002,0.0158104403331875,-0.123354832718335,-0.0226552281528711,0.0032148582395166,0.0620514787733554
1772807776586759200,6.24175927734375,0.2192921547442674,-0.013187398353219,-0.110339165069675,-0.0338192731142044,0.0177214611321687,0.0606740564107894
1772807776606808000,6.26180810546875,0.1363794782578945,-0.0570627804368734,-0.1051237685089465,-0.066888689994812,-0.0144285866990685,0.0444065555930137
1772807776626856200,6.281856201171875,0.0142775316774845,-0.056776364710927,-0.080940042972844,-0.0615713745355606,-0.0268638990819454,0.0212253332138061
1772807776646905000,6.301905029296875,-0.0212304195553064,-0.0247474877655506,-0.124139982613502,-0.0504652112722396,0.016473039984703,0.0065086246468126
1772807776666954200,6.321954345703125,-0.0907160437136888,-0.0306007438383996,-0.1023930009713396,-0.045073427259922,0.0424090065062046,0.0101477764546871
1772807776687003100,6.342003173828125,-0.0979401497483253,-0.0180894911810755,-0.0112161804786417,0.0011174066457897,0.0532778576016426,0.0303624887019395
1772807776707051300,6.36205126953125,-0.0604389788717031,0.0071292673580348,-0.0471681308855768,0.0532753467559814,0.0304035264998674,0.0536666065454483
1772807776727100200,6.38210009765625,0.1255646542549133,0.0132049340099096,-0.0527433646014891,0.0475983694195747,0.0209330525249242,0.0291227176785469
1772807776747149300,6.4021494140625,0.2520283031761646,0.01331599316895,-0.0559299861478153,-0.0145420292392373,0.0161123480647802,-0.011398434638977
1772807776767197200,6.422197265625,0.14464987847507,0.0378803794525563,-0.0271655634916387,-0.0503883212804794,0.0009959123563021,-0.0234109591692686
1772807776787246300,6.442246337890625,0.1223287410736083,0.1146484157040715,-0.0239151171781937,-0.0305041931569576,0.0337671302258968,-0.0056242514401674
1772807776807291600,6.462291748046875,0.0861000743508338,0.0906667977444827,-0.0008947317664627,-0.0175694655627012,0.0241865273565053,0.0139694586396217
1772807776827340800,6.4823408203125,0.0246872820109128,0.0659152183257043,0.0501379176437156,-0.0081954756751656,-0.0046974807046353,0.0176661573350429
1772807776847388700,6.502388671875,0.0065641808211803,0.1082856026738882,-0.0155372265821089,0.0111027350649237,-0.0027405025903135,0.0173913314938545
1772807776867437800,6.522437744140625,0.0295212780386209,0.0302836407132446,-0.0331696787276654,0.0049448274075984,0.0262194219976663,0.015395013615489
1772807776887487000,6.542487060546875,0.0937204862266778,0.0296111482791602,-0.009344876460472,-0.0157316140830516,0.0528014115989208,0.0090344585478305
1772807776907536000,6.562535888671875,0.0835240863829851,-0.0123421797007322,-0.0430833731894381,-0.0233482364565134,0.0202366635203361,0.0128857959061861
1772807776927584000,6.582583984375,0.0169710085451602,-0.0069897127568721,-0.0311165821227594,-0.0099518839269876,-0.0226845182478427,-0.0022517861798405
1772807776947633000,6.6026328125,0.0392237568855285,0.0385430811449885,-0.0375930755273322,0.0344079360365867,0.0044519705697894,-0.01402516849339
1772807776967681800,6.622681884765625,0.0242167418897151,0.0437945719324052,-0.0607139918542234,0.0440532751381397,0.02827282063663,-0.0019150348380208
1772807776987730700,6.642730712890625,0.0533013820767402,-0.0093543960615992,0.0087830892756901,0.0226781815290451,0.0097018908709287,0.0106759387999773
1772807777007778800,6.66277880859375,0.095728903439641,0.0091946754552423,-0.0335579884920851,0.000411232933402,-0.0033789870794862,0.0012429642956703
1772807777027827700,6.68282763671875,0.1096136364072561,0.0235831201612949,-0.0336877934507909,0.0064702592790126,-0.0014837337657809,-0.0127317756414413
1772807777047876900,6.702876953125,0.0525789130210876,0.0019914660781621,-0.0089459596787142,0.0137219978496432,-0.0122157661244273,-0.0102931773290038
1772807777067926000,6.722926025390625,0.0251601602196693,0.0007635317184031,-0.0436274443377275,0.0028160919900983,-0.0166451074182987,-0.0033399886451661
1772807777087974000,6.742973876953125,-0.0112035310596227,-0.0220187934540212,-0.021765403214842,0.0041511822491884,-0.0233104526996612,-0.0101457424461841
1772807777108023000,6.76302294921875,-0.0108627547979354,0.0121320440813899,-0.0375919635657686,0.0062125632539391,-0.0035937041975557,-0.0286714807152748
1772807777128071700,6.78307177734375,0.0365542454153299,0.0063316872395575,-0.028718656418845,0.0178565364331007,0.0156221343204379,-0.0330460332334041
1772807777148120800,6.803120849609375,-0.0395890830665826,0.0352213893763721,0.0092660122419591,0.0309569630771875,-0.0234747603535652,-0.0306197553873062
1772807777168168700,6.823168701171875,-0.0026730186015367,0.0799393597640097,0.0204319580874172,0.0580097362399101,-0.0298358239233493,-0.0146052166819572
1772807777188217900,6.8432177734375,0.125966220793128,0.135931880620867,-0.0416055191892199,0.0492488369345665,0.0015072542009875,-0.0107934810221195
1772807777208266800,6.863266845703125,0.1769593259274959,0.1061142499841749,-0.037100914946082,-0.00029939529486,0.0112611660733819,-0.0183664355427026
1772807777228316000,6.88331591796875,0.1881447368085384,0.1096656588554382,0.0056085263474495,-0.0274005457758903,-0.0087776686996221,-0.0260962359607219
1772807777248363800,6.90336376953125,0.0446399367153644,0.0968526467725634,0.0781033947748132,-0.0096612051129341,-0.0469685904681682,-0.01706531830132
1772807777268413000,6.923412841796875,0.059281041008234,0.1274843702711164,0.0806626599367242,0.0361538305878639,-0.024107675999403,0.0036888697650283
1772807777288461800,6.9434619140625,0.0585842909157276,0.1122926463581621,0.0670806134098442,0.0434775277972221,-0.0111569901928305,0.016403067857027
1772807777308510700,6.9635107421875,0.0458756159901618,0.0433496046438813,0.1005399569831788,0.0205252654850482,-0.0169330220669507,0.0148096624761819
1772807777328558800,6.983558837890625,0.1041688150048255,0.0602650836095213,0.0932214506633579,0.0267938785254955,0.0139643065631389,0.0183163397014141
1772807777348607700,7.003607666015625,0.0610398673743009,0.0497927894338965,0.0999296430651098,0.0258948244154453,0.000853456382174,0.0182722117751836
1772807777368657000,7.023656982421875,0.059476855841279,0.0454044913470745,0.0933417799742426,0.0223650746047496,-0.034117292612791,0.0104029420763254
1772807777388705800,7.043705810546875,0.0740980863898992,0.0538534630015492,0.0548136087040184,0.0326474644243717,-0.0203555878251791,0.0146928895264863
1772807777408754000,7.06375390625,0.0792506468474864,0.0574003418281674,-0.0244513817626517,0.0312131065875291,-0.0018299708608537,0.0333168841898441
1772807777428802800,7.083802734375,0.080275313720107,-0.0167604345344007,-0.0426540783940814,0.0086983125656843,-0.0045902598649263,0.0405125394463539
1772807777448851700,7.103851806640625,0.0638052404344081,-0.0495798773355782,-0.0480881729065207,0.008168245665729,-0.023266801610589,0.0325132459402084
1772807777468900900,7.12390087890625,0.0419260015815496,-0.0622770079538226,-0.0980439937152899,0.0325390957295894,-0.055192794650793,0.0333227440714836
1772807777488948700,7.14394873046875,0.0026280104160308,-0.0778758513629436,-0.1054152074698824,0.051472283899784,-0.065925732254982,0.0241327285766601
1772807777508998000,7.163997802734375,0.0228530523210763,-0.0622869448259472,-0.1337297492003999,0.0599857345223426,-0.0445278286933898,0.0037887732032686
1772807777529046800,7.184046875,0.0709416681855917,-0.0469262940868735,-0.1212645915739703,0.0471484288573265,0.0030467130709439,-0.0243699289858341
1772807777549096000,7.204095947265625,-0.0504962615281343,-0.0623756460227072,-0.1231800150075461,0.0437522418797016,0.0082122441381216,-0.0392657145857811
1772807777569143800,7.224143798828125,0.034866146197915,0.0436710916832089,-0.0532322349638212,0.0554801225662231,0.0433597676455974,-0.0568717829883098
1772807777589193000,7.24419287109375,0.0445645333915948,0.0431787781216204,-0.028984120688308,0.0634128749370575,0.0461350232362747,-0.0474158003926277
1772807777609241600,7.26424169921875,0.1629173565715551,0.0917901026859879,0.0379194739205064,0.0535560138523578,0.0230804812163114,-0.0327911339700222
1772807777629290000,7.2842900390625,0.1381277832299471,0.1105152614220976,0.0518621567535912,0.0465427748858928,-0.0282446686178445,-0.0187902376055717
1772807777649338600,7.304338623046875,0.2507055301398038,0.1502867153182625,0.0123169447947759,0.0423982888460159,-0.0054694688878953,-0.0100225079804658
1772807777669387800,7.3243876953125,0.2428688451647758,0.1179378126382827,0.0024223728752927,0.0127564370632171,0.0152220511808991,-0.0165316797792911
1772807777689437000,7.34443701171875,0.1296300039976835,0.0583976823024451,0.0720485517152585,-0.0110987797379493,-0.0041862418875098,-0.0136412922292947
1772807777709484800,7.36448486328125,0.0827051712155342,0.0626234833039343,0.057103706102306,-0.0034481023903936,0.0001035363529808,-0.0081201884895563
1772807777729534000,7.384533935546875,0.0235147311002016,0.0164911160737276,0.0507396783625707,0.0155229968950152,0.0190622098743915,-2.33454629778e-05
1772807777749582800,7.404582763671875,-0.097500589287281,0.0172778825372457,0.0508148944566724,0.0420980527997016,-0.0011442913673818,0.0043436945416033
1772807777769631700,7.4246318359375,0.0100718966811895,-0.0129730249501764,0.0177318596827099,0.0688666254281997,0.0217002164572477,0.0203204024583101
1772807777789679900,7.444679931640625,0.0598988806456327,-0.0180687406539916,-0.0219515186377801,0.0482148267328739,0.0380980744957923,0.0144078619778156
1772807777809729000,7.46472900390625,0.1959551182985305,-0.0618719342842698,-0.0450362699560355,-0.0014986908063292,0.0456061698496341,-0.001967997290194
1772807777829778200,7.484778076171875,0.0265641817986965,-0.0695960987955331,0.0080934795975568,-0.0124755138531327,-0.0076934345997869,-0.0155498869717121
1772807777849827000,7.5048271484375,0.0540185904353857,0.0488429413631558,-0.0749774630403146,0.0417195968329906,0.0022172783501446,-0.012866960838437
1772807777869875200,7.524875244140625,0.1198965454906225,0.0381023516401648,-0.0757982231049798,0.0684840679168701,0.0417181961238384,0.0020408011041581
1772807777889924000,7.544924072265625,0.2029196966141462,0.0276329800739884,-0.062710029076226,0.028040487319231,0.0424213968217372,0.0060137282125651
1772807777909973200,7.56497314453125,0.2065501620709895,-0.0101693657062947,-0.0267292772664921,-0.0185696501284837,0.0156697910279035,0.0055289519950747
1772807777930022000,7.58502197265625,0.1704196950256824,0.0252691735520958,-0.0182466590707423,-0.0075273839756846,0.0015268218703567,-0.0043320967815816
1772807777950070000,7.605070068359375,0.1760907263994217,0.0548145631186664,-0.0214071369622368,0.0055421255528926,0.0049844151362776,-0.0138396276161074
1772807777970119200,7.625119140625,0.1468389129519462,0.0048524084672331,0.0257204723999951,-0.0045953886583447,-0.0045127621851861,-0.0074906749650835
1772807777990168000,7.64516796875,0.1381400581896305,0.0170411511719226,0.05852924082682,-0.0203922465443611,-0.0070353597402572,0.0128649296239018
1772807778010217200,7.66521728515625,0.1227560265749692,0.0181270467124879,0.0089439566637622,-0.0215808600187301,0.0081638256087899,0.0156855303794145
1772807778030265000,7.68526513671875,0.1595756449282169,0.0186601306758821,0.0104781747854955,-0.0198193751275539,0.0227485243231058,0.0115864276885986
1772807778050314200,7.705314208984375,0.0533422986090183,-0.0276680513873696,0.066944433509279,-0.0265602227300405,-0.0173087902367115,0.0105335293337702
1772807778070363100,7.725363037109375,0.0843880097359418,-0.0026030221052467,0.0159036647247266,-0.0245521534234285,-0.0045538521371781,0.0193557944148778
1772807778090412000,7.745412109375,0.0628840339362621,0.0061574997164309,0.0085001629855949,-0.0076703722588717,0.0255305636674165,0.0229458399116992
1772807778110460200,7.765460205078125,0.0451771123319864,-0.012827332869172,0.0446374890299513,-0.0034265045542269,0.0194014888256788,0.0340859331190586
1772807778130509000,7.785509033203125,0.1330927116721868,-0.0007500877149403,0.0197254948850721,-0.0110930176451802,0.0062722167931497,0.0450390540063381
1772807778150558200,7.80555810546875,0.1983364604771137,0.0040234102971851,-0.001124591289238,-0.0277609936892986,0.0124919945374131,0.0381948351860046
1772807778170606000,7.825606201171875,0.1970692170202732,0.0413499552592635,-0.0254376756865298,-0.0415193885564804,0.0086721079424023,0.0252599418163299
1772807778190655200,7.8456552734375,0.1518003347516059,0.0483962205089628,-0.0026300473949013,-0.0376205258071422,-0.0093654952943325,0.0322130843997001
1772807778210704100,7.8657041015625,0.2144394540160894,0.1026001043833792,-0.035851058732171,-0.0401911027729511,-0.0005997305270284,0.039679616689682
1772807778230753300,7.885753173828125,0.2154617828011512,0.0486817594520747,-0.0103746390624961,-0.0739459618926048,-0.0070395693182945,0.0439232438802719
1772807778250801200,7.90580126953125,0.0777460875034332,0.0339947701908648,-0.0058507604383747,-0.0947967991232872,-0.0356265604496002,0.038122072815895
1772807778270850300,7.925850341796875,0.0444815312832593,0.0242886380821466,-0.0122403701439383,-0.0676137432456016,-0.0172569099813699,0.0362330824136734
1772807778290899000,7.94589892578125,0.0060427872955799,-0.0043979426980018,-0.0045466510032885,-0.0484819114208221,0.013495123013854,0.0437586866319179
1772807778310948000,7.965947998046875,0.0331458982765674,-0.0103182726576924,0.0057232182187028,-0.0430874601006507,0.0147936502471566,0.0491684712469577
1772807778330996000,7.985995849609375,0.0312567235291004,-0.0654952393479645,-0.0172269378012977,-0.049947302788496,-0.0131060695275664,0.0458660125732421
1772807778351045000,8.006045166015625,-0.0138338795632123,-0.0491490847028791,-0.0382656935422914,-0.04103709384799,-0.0233217906206846,0.0320812575519084
1772807778371094300,8.02609423828125,-0.0267220027089118,-0.0448943498678505,-0.0993133195313624,-0.0050566000863909,0.0053840936161577,0.0313288457691669
1772807778391143200,8.04614306640625,-0.0150491005718708,-0.0677840809375047,-0.1252970254278276,-0.0073068505153059,0.0096535980701446,0.0292378235608339
1772807778411191300,8.06619140625,-0.0006686930418014,-0.1366869367718696,-0.1397052251471206,-0.0378853641450405,-0.002324286615476,0.0112254191190004
1772807778431240200,8.086240234375,-0.0310047945946454,-0.155085493902117,-0.1604203886566683,-0.0283254366368055,0.0063689383678138,-0.0013067573308944
1772807778451289000,8.1062890625,-0.0057557870477437,-0.1150106731452047,-0.1662009996184147,0.0229011923074722,0.0260122399777174,-0.0047953715547919
1772807778471338000,8.126337890625,0.0740378806352615,-0.1255985565245151,-0.1656623809633776,0.0490303337574005,0.02126956731081,-0.0087116193026304
1772807778491386000,8.14638623046875,0.181284203389287,-0.14907909309417,-0.15362053591609,0.0217764433473348,-0.0170063748955726,-0.0162139516323804
1772807778511435000,8.16643505859375,0.2528694301754236,-0.1000343455485999,-0.144222556441091,-0.0037253580521792,-0.0321682393550872,-0.0342632494866848
1772807778531484200,8.186484130859375,0.2531868255615234,-0.0123300508715212,-0.1284952186809387,-0.0224349610507488,-0.0307917036116123,-0.0563340447843074
1772807778551532000,8.206531982421875,0.1342500650137662,0.0087955931350588,-0.0116100523341679,-0.0494307726621627,-0.0504946410655975,-0.068576768040657
1772807778571581200,8.226581298828124,-0.0846545517176389,0.099546415901184,-0.0114529483765829,-0.0361553020775318,-0.0756305605173111,-0.054696038365364
1772807778591630300,8.24663037109375,-0.1484539469331502,0.1299232878558337,-0.0561012008291436,0.0010756677947938,-0.0408138521015644,-0.0479597114026546
1772807778611679000,8.266678955078126,-0.0658691872268915,0.1359394794054329,0.0186029753948561,0.0167237222194671,0.0388039238750934,-0.0891148820519447
1772807778631727000,8.28672705078125,-0.0668412471294403,0.1062934059433639,0.0824008819061797,0.0120635535567998,0.0558577924966812,-0.0769949853420257
1772807778651776000,8.30677587890625,-0.0015139116942882,0.1401075588703155,0.163819785303995,0.0231900699436664,0.0155016146600246,-0.0313641056418418
1772807778671825200,8.3268251953125,0.124401455694437,0.1579142875872552,0.1535846974177286,0.0238202009350061,-0.0149586526677012,-0.0021972488611936
1772807778691874000,8.3468740234375,0.2242640979379415,0.1475350785225629,0.0471683592144399,-0.0103036807850003,-0.0304702334105968,-0.0076119881123304
1772807778711922200,8.366922119140625,0.2066337487012148,0.1491783156849443,0.0373996147648664,-0.0328433699905872,-0.0243544373661279,-0.031529389321804
1772807778731971000,8.38697119140625,0.1452069278359413,0.157379450058192,0.0409930772461462,-0.0145298307761549,-0.0153260454535484,-0.0167041476815938
1772807778752020200,8.407020263671875,0.1137573120832443,0.1373166129775345,0.0614718655833974,-0.0006790892221033,-0.0176206491887569,0.0119044203311204
1772807778772069000,8.427069091796875,0.1752478458344936,0.0689786975495517,0.0506839021878782,-0.011808612383902,-0.0224856883287429,0.0183441173285245
1772807778792117000,8.447116943359376,0.0723012661010027,-0.0126924544431269,0.0401993010865291,-0.0394473820924758,-0.0551988407969474,0.0127972858026623
1772807778812166000,8.467165771484375,0.1031587611794471,-0.0272685306757688,0.0053153452372876,-0.0146025549620389,-0.0356625989079475,0.0092221200466156
1772807778832215000,8.487215087890625,0.0048065234988927,-0.048581367817521,-0.0133298024985939,0.0046694297343492,-0.0457723699510097,0.0151208937168121
1772807778852263000,8.507262939453126,0.0157008424788713,-0.0710417675592005,-0.0397125907152425,0.0065729380585253,-0.0533239506185054,0.0102030076086521
1772807778872312000,8.52731201171875,0.0603027852714061,-0.0333395211525261,-0.1025903958401177,-0.0155235733836889,-0.0204661190509796,-0.0143802603706717
1772807778892361000,8.54736083984375,0.0209890120148658,-0.0403504228278994,-0.0922333529414609,-0.0258927382528781,-0.0031013207044452,-0.0176800917834043
1772807778912410000,8.56741015625,0.013991115951538,-0.0671916680023074,-0.1620814172040671,-0.0161460805684328,0.0164962001144886,-0.0065298303961753
1772807778932458000,8.5874580078125,0.0679261197566986,-0.0330120427638292,-0.0716114937385544,-0.0022132403682917,0.0144481118768453,-0.0392354503273963
1772807778952507100,8.607507080078125,0.0778401955276727,-0.0136227210305631,0.0121851168423425,-0.0001141601242125,-0.0179373975843191,-0.0594533458352088
1772807778972555800,8.6275556640625,0.1558124930024147,0.0414103071443736,0.0298392305471468,0.0030475193634629,-0.0236100833863019,-0.0339075922966003
1772807778992605000,8.64760498046875,0.1480260769098997,0.0700913349665701,0.0376296469613444,-0.029205759987235,-0.0289832949638366,-0.0177433714270591
1772807779012652800,8.66765283203125,0.1036164418190717,0.0365283803217113,0.0848393793657887,-0.0604632124304771,-0.0267245080322027,-0.0263426825404167
1772807779032702000,8.687701904296874,0.0094569796532392,0.0817559076666832,0.0731598008927889,-0.0493298135697841,-0.0109649384394288,-0.0288160629570484
1772807779052751000,8.707751220703125,-0.0990758757799863,0.0635537498913705,0.0825307005646172,-0.0011529154144227,-0.029740996658802,-0.0058547649532556
1772807779072800000,8.727800048828126,-0.0610334376335144,0.0987282313860952,0.131864695114037,0.0532584115862846,-0.0171934012323617,0.0104985134676098
1772807779092848000,8.74784814453125,0.0179366387069225,0.0753353730998933,0.0993352391022257,0.0518969632685184,0.0246017295867204,0.0213710200041532
1772807779112897000,8.76789697265625,0.1329758072942495,0.0065241410717368,0.1065956311597954,0.0214271042495965,0.046869684010744,0.0454393848776817
1772807779132946000,8.78794580078125,0.1107061078190803,0.0264870249092578,0.1202186535844579,0.0025116608012467,-0.0082510113716125,0.0541208833456039
1772807779152994800,8.807994873046875,0.1019119759887456,0.0690093849487602,0.065108979976736,0.0161561705172061,-0.0438882075250148,0.0399425141513347
1772807779173043000,8.82804296875,0.1083393786877393,0.1194577156819403,0.0107379776407964,0.0295524783432483,-0.0181871857494115,0.0357859916985034
1772807779193091800,8.848091796875,0.0419967287302017,0.1160202885791659,-0.0311057250853162,0.0217336826026439,-0.0045127868652343,0.045733455568552
1772807779213141000,8.86814111328125,0.1169300969004631,0.1169150454618036,-0.0237649795342236,0.0096503430977463,0.0275644455105066,0.0637242197990417
1772807779233188900,8.88818896484375,0.0614151304274797,0.0963552186444401,-0.0352021640860941,0.0108819063752889,0.0143018085509538,0.0685045793652534
1772807779253238000,8.908238037109374,0.1067114852249622,0.0525498330570757,-0.0461452815107069,0.025029893964529,4.98472654726e-05,0.0661850720643997
1772807779273287200,8.928287109375,0.1541968744993209,0.0120123632244765,-0.1072701511541847,0.0190807431936264,-0.0236003939062356,0.0535857416689395
1772807779293335800,8.948335693359375,0.1340869834065437,-0.0333813144676387,-0.1335121335275005,-0.0128106893971562,-0.0261263344436883,0.0228510200977325
1772807779313384000,8.968384033203124,0.1396171450048685,-0.0352824719138443,-0.1569069189093075,-0.0285101234912872,0.0073154587298631,0.0002382695674896
1772807779333432800,8.988432861328125,0.0515858103305101,-0.0509736697815358,-0.1447910313782748,-0.0259800646454095,0.0134221343323588,-0.0032263412140309
1772807779353482000,9.00848193359375,0.0347884047865867,-0.0632988983474671,-0.0711066586221102,-0.0142435375601053,-0.0023156881798058,-0.009891677647829
1772807779373531000,9.02853076171875,0.0104658644348382,-0.0247682382926344,-0.0705620851503219,0.0077208830043673,-0.0261184889823198,-0.0176515951752662
1772807779393579000,9.0485791015625,0.0336216990947723,0.0204445298746228,-0.0644140382488258,0.0188437849283218,-0.0053309886716306,-0.0303783100098371
1772807779413628000,9.0686279296875,0.0777682993352413,0.0527650832429528,-0.0580478002856951,0.0115920733660459,0.0174522753804922,-0.0298849567770957
1772807779433677000,9.088677001953124,0.095124507805705,0.0505598282836377,0.0045915473076514,-0.0044412217102944,0.0084225609898567,-0.0193886384367942
1772807779453726000,9.108725830078123,0.1464624808549881,0.0673680474825203,0.0336429702116642,-0.0144743882119655,-0.0021817223168909,-0.0094288662075996
1772807779473774000,9.128774169921876,0.1421323426961898,0.0672515814960002,0.0541184340806677,-0.0187408700585365,-0.0129223028197884,-0.0098731974139809
1772807779493823000,9.148822998046874,0.0932049379199743,0.0583206715434789,0.0529753284601494,-0.0043494775891304,-0.0266525838524103,-0.0100295264273881
1772807779513872000,9.168871826171875,0.1126274312704801,0.0428109677225351,0.0595914586642757,-0.0009320513345301,-0.0118195135146379,-0.0029221852310001
1772807779533920000,9.188919921875,0.0905950476825237,0.0071640464104712,0.0674150923614855,-0.0096196196973323,-0.0015694324392825,-0.0026380610652267
1772807779553969000,9.208968994140625,0.0515881484180688,0.0445654101744294,0.0401458675659727,-0.0111312475055456,-0.0041035446338355,-0.0025428575463593
1772807779574018000,9.22901806640625,0.1255377662479877,0.0243330617457628,0.0029834088581148,-0.0041013322770595,0.0107196969911456,0.0052704042755067
1772807779594067000,9.24906689453125,0.0329617738813161,0.0072150459453463,0.0035531533037777,-0.0054088644683361,-0.0288554709404706,0.0054855654016137
1772807779614115000,9.269114990234376,0.002485971596837,0.0105216862753033,-0.0455670797639526,-0.0198809690773487,-0.0448552034795284,-0.0095173986628651
1772807779634164000,9.2891640625,0.0239887783527374,-0.0273715526588261,-0.0620721330314874,-0.0221560560166835,0.0093055479228496,-0.0077632782049477
1772807779654212900,9.309212890625,-0.0107984573900699,0.0042190789997577,-0.0681091116407886,-0.004730436950922,0.0333894528448581,-0.0019173971377313
1772807779674260700,9.3292607421875,-0.0020025719940662,-0.0006027881987392,-0.0464063801323063,0.0246469900012016,0.0140629420056939,0.0053859055042266
1772807779694310000,9.349309814453123,0.1250941141337156,-9.776128605e-05,-0.0496391149758361,0.0350550822913646,0.0087758544832468,0.0004464015364646
1772807779714359000,9.369359130859374,0.1910591629505157,-0.0270538650117814,-0.0203358636020682,0.0126386024057865,-0.0006178360199555,-0.0109909027814865
1772807779734408000,9.389407958984377,0.1660170761525631,-0.0158846746131777,-0.0055294766117352,-0.0171700939536094,-0.021255599334836,-0.0305968970060348
1772807779754456000,9.4094560546875,0.0351484702706337,0.0415048535600304,-0.0056224886574316,-0.0021001528948545,-0.0483045354485511,-0.0359715968370437
1772807779774505000,9.4295048828125,-0.0087473700791597,0.0871146582208573,-0.0337665874581784,0.0513926520943641,-0.0110214967280626,-0.0268722362816333
1772807779794554000,9.44955419921875,0.0281844764769077,0.0794793410368263,0.0255873543894849,0.0779712498188018,0.0027599798049777,-0.0191808976233005
1772807779814602500,9.4696025390625,0.0227723883002996,0.0320795842193067,0.0719209980791434,0.0606645755469799,-0.0097637418657541,0.0018520180601626
1772807779834650600,9.489650634765624,0.1423655669301748,0.0574298601835966,0.0011827435111626,0.0265978015959262,0.0151186259463429,0.0167905800044536
1772807779854699500,9.509699462890625,0.1589502065062522,0.017247487398982,0.0405507129066623,-0.0198371317237615,0.0250977035611867,0.0082991942763328
1772807779874748400,9.52974853515625,0.1016378352224826,-0.004791033668816,0.0102800412728451,-0.0311754401773214,0.0087720472365617,0.0140549335628747
1772807779894797600,9.549797607421874,0.0827379044413566,0.0286000715404748,-0.0246793635659385,0.0005693510174751,-0.0033293636515736,0.0143487742170691
1772807779914845400,9.569845458984377,0.0156605104684829,0.0126261112086474,-0.0373583374729845,0.0138361044228076,-0.021434623748064,-0.0003780322149395
1772807779934894600,9.58989453125,0.1342126556128263,0.0026810557775199,-0.0426520691000856,0.001517072552815,-0.0008127278415486,-0.0066572912037372
1772807779954943500,9.609943603515624,0.0748246470987796,0.0036209669761359,-0.0638221093708183,-0.0141614666208624,0.0007227213354781,-0.0044884360395371
1772807779974991600,9.62999169921875,0.0370896674662828,0.0270399826169013,-0.0514017133347224,-0.0148807372897863,0.0054626413621008,-0.0096418615430593
1772807779995040500,9.65004052734375,0.0704220282256603,0.0044680853247642,-0.0465730419361032,-0.0017062749247998,0.0198745001107454,-0.0107278637588024
1772807780015089400,9.67008935546875,0.0599608399659395,0.0168359839886426,-0.023527006059885,0.0043067508377134,0.0100205903872847,-0.0125331506133079
1772807780035138600,9.690138671875,0.0663496642202138,0.0332503815643489,-0.0155996836593374,0.0041826302185654,-0.0140070924535393,-0.015649989247322
1772807780055186400,9.7101865234375,0.0785211635291576,0.028663199904561,-0.0099155005430802,0.0032404912635684,-0.0174982268363237,-0.0200357735157012
1772807780075235600,9.730235595703125,0.0804360572397708,0.0633038667835295,0.0197860294332727,0.0001857096794992,0.003972946666181,-0.0211595930159091
1772807780095284500,9.750284423828123,0.0794265879362821,0.0407835535481572,0.0349574594768695,0.0026774078141897,0.0163997933268547,-0.0053465878590941
1772807780115333600,9.770333740234374,0.1195376490503549,0.0358744464576244,0.0354915115546435,0.0047020674683153,0.0093239853158593,0.0021658537443727
1772807780135381500,9.790381591796876,0.0863975959926843,0.021385902377963,0.1116074588392861,-0.005793304182589,-0.0129873687401413,-0.0105785299092531
1772807780155430700,9.8104306640625,0.1357774207115173,0.0581213495790958,0.0435605439808219,-0.0002241339534521,0.0026760983746498,-0.0054446728900074
1772807780175479300,9.830479248046874,0.175847565293312,0.0600955722615122,0.0447831263120286,-0.003650578437373,0.0140266241505742,0.0043693650513887
1772807780195527700,9.850527587890625,0.1177419978052377,0.0353593365423381,0.0499525465728715,-0.0127656608819961,-0.0184664167463779,0.0110553223639726
1772807780215576300,9.870576416015624,0.0850643015623092,0.0561741610340774,0.0009338650503195,-0.0194259993731975,-0.0322301499545574,-0.0020536696538329
1772807780235625500,9.89062548828125,0.0665443100094795,0.0170692082226276,-0.0237409045388922,-0.0266543067991733,-0.0006242796080186,-0.0090892557054758
1772807780255674600,9.910674560546877,0.0313280351996421,-0.016661796465516,-0.0361279462946578,-0.0397478118538856,0.0343026295304298,-0.0124455103650689
1772807780275722500,9.930722412109375,0.0129886609107255,-0.0163283267274498,-0.0030616069271694,-0.0250792074948549,0.0366606377065181,-5.24679198861e-05
1772807780295771600,9.950771728515624,0.0147451491892337,0.0110512631073594,-0.0300570197499822,0.0126362908631563,0.005812101997435,0.0076508647762238
1772807780315820500,9.970820556640623,0.0195990189611911,0.0218884450726211,-0.0305928436597343,0.0299280267208814,-0.009459207765758,-0.000731052365154
1772807780335868700,9.99086865234375,0.1048000986456871,0.0163217508561909,-0.090623579657264,0.023150885477662,0.0490471385419368,-0.0155304707586765
1772807780355917600,10.01091748046875,0.0874321997374296,0.008173223453015,-0.0768677428994793,-0.033502671867609,0.0899844169616699,-0.0329158157110214
1772807780375966500,10.030966552734377,0.1529641178339719,0.0339874636672437,-0.07187613602411,0.0105823278427124,0.1981335878372192,-0.0436551608145237
1772807780396015400,10.051015380859376,-0.1781429827541112,0.179321232753247,0.1483432257008273,0.1748687028884887,0.1150678098201751,-0.1131374835968017
1772807780416063500,10.0710634765625,-0.1232815117537975,-0.0817563460581004,0.1046001099610235,0.2361443489789962,-0.0580063425004482,-0.0643000975251197
1772807780436112400,10.0911123046875,0.216383573821187,0.0948049204625189,0.0666543188557494,0.1795469671487808,-0.0464520081877708,-0.0297496430575847
1772807780456161500,10.11116162109375,0.1759872660249471,0.0218681329369545,0.0400700897828675,0.0512592680752277,0.0134601406753063,0.0215463824570179
1772807780476210700,10.131210693359376,0.0638508331418037,0.0700838823124766,0.0093768955877749,-0.0628729537129402,0.0642457082867622,0.0541127547621727
1772807780496258600,10.151258544921877,-0.0761620331823825,0.0009798048175871,0.0281831795689649,-0.0983925610780716,0.0251006875187158,0.0748309344053268
1772807780516307700,10.1713076171875,-0.0792921479016542,-0.0141584353424608,8.44497133279e-05,-0.0948077961802482,-0.0391424000263214,0.0821590572595596
1772807780536356400,10.1913564453125,-0.0061608607172966,0.0081814067594707,0.0044142271125223,-0.0802692398428917,-0.068510890007019,0.0654560998082161
1772807780556404500,10.211404541015623,0.1770645398676395,0.0309806830666959,-0.0707938846122007,-0.0266402252018451,-0.0360263958573341,0.0327578745782375
1772807780576453400,10.231453369140626,0.1450882698923349,-0.0062689972668886,-0.0911546451935078,0.0452353991568088,-0.0216500405222177,-0.0041434639133512
