time,seconds_elapsed,accel_z,accel_y,accel_x,gyro_x,gyro_y,gyro_z
1772807697039963400,0.08196337890625,0.1208323650360107,0.0624789602667093,-0.0717308138358639,0.0419257432222366,-0.0026183137670159,0.0332599170506
1772807697060012300,0.10201220703125,0.1232253976523876,0.0093438746675848,-0.0368413826604839,0.012008860707283,-0.0544341094791889,0.0124643575400114
1772807697080061400,0.1220615234375,0.1009241339951753,0.0257657248973846,-0.001495506104629,0.0193710997700691,-0.0489688031375408,0.0051963222213089
1772807697100110300,0.1421103515625,0.0463221907138824,0.0567927313238382,-0.0450539974089711,0.0148940347135066,-0.0352469161152839,-0.0008615157566964
1772807697120159500,0.162159423828125,0.1655015278458595,0.0248924491941928,-0.0518822040277766,-0.0242920778691768,-0.0091702910140156,-0.0094941891729831
1772807697140208400,0.18220849609375,0.2011772368609905,0.0262637375473976,-0.0139566919504839,-0.0517792850732803,-0.0281756464391946,-0.0060404106043279
1772807697160257300,0.20225732421875,0.0406371308147907,0.0781523302167654,0.0626009244122542,-0.0249752309173345,-0.0944667905569076,0.0224581696093082
1772807697180306400,0.222306396484375,0.0125175362676382,0.1219122692272067,0.0580937080869218,0.0377467237412929,-0.1045345738530159,0.0693123862147331
1772807697200356600,0.242356689453125,-0.0025035072535276,0.0994204514339566,-0.1099778300771489,0.036819539964199,-0.0886509418487548,0.0657867938280105
1772807697220405200,0.2624052734375,0.1599199283212423,0.0172349201783537,-0.1120312189429998,-0.0031231082975864,-0.0417785421013832,-0.0011322619393467
1772807697240454400,0.282454345703125,0.1378513043761253,-0.0201864634603261,-0.0240458149027545,-0.0415932908654212,-0.0136953173205256,-0.0479466617107391
1772807697260503300,0.30250341796875,0.0887415287703275,-0.0278238264709711,-0.0745792803358519,-0.0509271062910556,-0.0321554988622665,-0.0426776520907878
1772807697280552400,0.322552490234375,-0.024299159476161,0.0277484231472015,0.0313431003380334,0.0029331776313483,-0.0242836885154247,-0.009076127782464
1772807697300601600,0.3426015625,-0.0289817643344402,0.0576981557309627,-0.0540335231430362,0.0390793494880199,0.0066672544926404,0.0097219999879598
1772807697320650200,0.362650146484375,0.0288490778654813,-0.0047597617477178,-0.0576564217813545,0.0205675046890974,0.0133819598704576,0.0088409185409545
1772807697340699400,0.382699462890625,0.1523228973209857,-0.0079766779676079,-0.0182191226098453,-0.0076901838183403,0.0381931811571121,-0.0159692894667387
1772807697360748300,0.402748291015625,0.1804664572656154,-0.0001093055933713,-0.0203815202415455,-0.0310424510389566,-0.0016779826255515,-0.01835229806602
1772807697380797400,0.42279736328125,0.1777776565730571,0.0255506208419799,-0.0357519525891169,-0.0271890461444854,0.0021292942110449,-0.0248912330716848
1772807697400846600,0.4428466796875,0.1504915902405977,0.0794350635036826,0.0001075611608568,-0.0092428894713521,-0.0083222864195704,-0.0302283242344856
1772807697420895200,0.462895263671875,0.0792699360698461,0.0706529143720865,0.0248085794361773,0.0086137168109416,-0.0401188842952251,-0.0078786592930555
1772807697440944400,0.4829443359375,0.0573521187722682,0.0792453861504793,0.0277797042014542,-0.0030876104719936,-0.0435148999094963,-0.0020649754442274
1772807697460993300,0.5029931640625,0.0859177035212516,0.0162125913932919,-0.0477666356348432,-0.0535890236496925,0.0071586114354431,-0.0184115748852491
1772807697481043500,0.52304345703125,0.0854804811477661,0.0213242353186011,-0.0435645443025045,-0.0807919800281524,0.0324988700449466,-0.0306272655725479
1772807697501092400,0.54309228515625,-0.0573427664220333,0.0638464492276311,-0.017725772435218,-0.0259564034640789,0.0347627475857734,-0.0073946141637861
1772807697521141200,0.563141357421875,-0.0457908603161573,0.094913787664473,-0.0264294495031237,0.0511737205088138,0.0355066806077957,0.023515161126852
1772807697541190400,0.5831904296875,0.0584130260020494,0.0398299060851335,-0.0228720036167185,0.0547380708158016,0.0204224940389394,0.0222629979252815
1772807697561239600,0.603239501953125,0.0898170490473508,0.0179129655703902,0.0053800764699932,0.0197541732341051,-0.0097183967009186,-0.0018342747353017
1772807697581288400,0.623288330078125,0.0390869787633419,0.0075982000440359,-0.0335094297927571,-0.0068846209906041,-0.0345875546336174,-0.0221558678895235
1772807697601337300,0.64333740234375,0.0835743552654981,0.0505634815454483,-0.0093409246586728,-5.5484008044e-05,0.0137813361361622,-0.0255750250071287
1772807697621386200,0.66338623046875,0.0504231962919235,0.0765212218835949,-0.0444540541878668,-0.0035745571367442,0.0539016388356685,-0.0176079664379358
1772807697641435400,0.683435302734375,0.033780689048767,0.057296589192748,-0.0195015499360859,-0.0036263440269976,0.0037023534532636,-0.0085880886763334
1772807697661484500,0.703484619140625,0.0010234978288412,0.0952533948823809,0.0403624831584515,0.0406711772084236,-0.0047950376756489,0.0093557182699441
1772807697681533400,0.723533447265625,0.0550730679243803,0.0870592747718095,-0.0192405380794545,0.0494350381195545,0.0005683907074853,0.0196695942431688
1772807697701582300,0.743582275390625,0.1780523818612098,0.0506689877465367,-0.0260349337602034,0.0192629918456077,0.0165979117155075,0.0205934979021549
1772807697721631200,0.76363134765625,0.1444452958136796,0.0303033683270215,-0.0287863376604625,-0.014502240344882,-0.0057873222976922,0.0056476471945643
1772807697741683700,0.78368359375,0.1782873596608638,0.0431856462538242,-0.0340580949177732,-0.0242290403693914,-0.0393151752650737,-0.0015565641224384
1772807697761734000,0.80373388671875,0.164793671837449,0.04906827455163,-0.0511048127473797,-0.0206601247191429,-0.0531474277377128,-0.0124301398172974
1772807697781782500,0.823782470703125,0.1205260755658149,0.071586395829916,-0.0792033005744218,-0.0246079079806804,-0.053043283522129,-0.0129762385040521
1772807697801831700,0.843831787109375,0.0392331092357635,0.048879766242206,-0.0865237522561568,-0.0291109904646873,-0.0420512445271015,-0.0190784484148025
1772807697821880800,0.863880859375,-0.0297942497611045,0.0277092601805925,-0.0956361471222713,-0.0160449035465717,0.0195314288139343,-0.0416068099439144
1772807697841929700,0.8839296875,0.0074222589552402,0.0181608028516173,-0.0457580494585214,-0.0053098071366548,0.046926487237215,-0.0404031984508037
1772807697861979000,0.903978759765625,-0.0701467184156179,-0.0140635966658592,0.0722528695151675,-0.0095661729574203,-0.0071723908185958,-0.018294395878911
1772807697882027500,0.924027587890625,0.0250631295859813,-0.0002019523128867,0.0300367258806247,0.005730484612286,-0.0209776647388935,-0.0153909409418702
1772807697902076700,0.94407666015625,0.1194914718210697,0.0247501181140542,0.0145899175283266,0.0066336994059383,0.0155086973682045,-0.0281899999827146
1772807697922125800,0.964125732421875,0.2252098543554544,0.0162125913932919,0.01781265156765,-0.0385088808834552,0.0145427798852324,-0.0352996662259101
1772807697942174700,0.9841748046875,0.2110848828911781,0.025806056907773,0.0766883038125,-0.0785650536417961,-0.0026822667568922,-0.0457486175000667
1772807697962223900,1.004223876953125,0.0796750097393989,0.0851022954851388,0.0927750129369553,-0.0511841960251331,-0.0495211593806743,-0.0096835205331444
1772807697982272500,1.0242724609375,0.0156815532565116,0.0925502734035253,0.0328410701110959,-0.0058780899271368,-0.0401306189596653,0.0073210466653108
1772807698002321700,1.04432177734375,0.0982166286021471,0.1141702767983079,-0.0174827300601173,-0.0094627635553479,0.0151119036599993,-0.0295649673789739
1772807698022370800,1.064370849609375,-0.0240180044472217,0.0249418412938714,0.0144584138028789,-0.0306095778942108,0.0162354465574026,-0.0449555292725563
1772807698042420700,1.084420654296875,-0.0209241300851106,0.0519452912926673,0.0342359037366695,0.008605521172285,0.0391674749553203,-0.0155056063085794
1772807698062469600,1.1044697265625,0.0208206697106361,0.079012746438384,0.0498553150097839,0.0443154722452163,0.018013946712017,0.0307992473244667
1772807698082518800,1.124518798828125,0.0396001889824867,0.0082528645604848,0.0558351246383273,0.0232647787779569,-0.0170220676809549,0.0338078215718269
1772807698102567700,1.144567626953125,0.1478250013798475,0.0036000703185796,-0.0143665936338482,-0.0123898703604936,-0.0017629023641347,0.0061732865869998
1772807698122616800,1.164616943359375,0.0424169999688863,0.012135551212728,-0.0294013597196899,-0.017826996743679,0.0006988729001022,-0.0044239866547286
1772807698142665700,1.184665771484375,-0.0105471129775047,0.0582312396943569,-0.0270364617858314,0.0369018502533435,0.0135675398632884,0.0106829088181257
1772807698162714600,1.204714599609375,0.0840273597300052,0.0809106890141963,-0.0379934159395517,0.0650562942028045,0.0350970700383186,0.029152788221836
1772807698182763800,1.224763671875,0.1995727242738008,0.0227089676752686,-0.0740897341200849,0.0154067855328321,-0.002037312136963,0.0285312980413436
1772807698202812700,1.244812744140625,0.2203852106779813,-0.0018187398597598,-0.0058892041690647,-0.0181617978960275,0.0011638575233519,0.0010868357494473
1772807698222861800,1.26486181640625,0.1850730742782354,0.0350818347752094,-0.07193480284221,-0.0320492051541805,0.0037697537336498,-0.0166240986436605
1772807698242910700,1.28491064453125,0.1468143630325794,0.0161468326807022,-0.0166645272787194,-0.0364707186818122,0.0119342170655727,-0.0082365684211254
1772807698262959600,1.304959716796875,0.1903659199893474,0.0335118089795112,-0.0717289369726087,-0.066408671438694,-0.0211055409163236,-0.0078783184289932
1772807698283008800,1.3250087890625,-0.0912590645492076,0.0073290277138352,0.0998547146653756,-0.0371553637087345,-0.0552467256784439,-0.0177854299545288
1772807698303058700,1.34505859375,-0.11466039840281,0.1549263578176498,-0.0039586014326661,0.083952821791172,0.0025164512917399,0.0243267752230167
1772807698323107800,1.36510791015625,-0.1298801793664693,0.1047325863674283,0.016328121231473,0.1024683490395546,0.0048563196323812,0.0605143010616302
1772807698343156700,1.38515673828125,0.1229647008895874,0.0068070496663451,0.0384162124954629,0.0029078223742544,0.012134944088757,0.032813373953104
1772807698363205600,1.40520556640625,0.2829197005242109,-0.065267714202404,-0.0240069578968221,-0.0911507382988929,0.0343036837875843,0.0008154395036399
1772807698383254800,1.4252548828125,0.1780266628980636,-0.0212897485271096,-0.0044404027333948,-0.0790988504886627,0.0089189149439334,-0.0103731881827116
1772807698403303700,1.4453037109375,0.0273269828647375,0.0371747154012322,-0.0083600558285834,0.0173369590193033,-0.0142337996512651,0.0158875584602355
1772807698423352800,1.465352783203125,-0.0058446343749761,0.0660477586641907,-0.0336963945990661,0.0698978528380394,-0.0402195714414119,0.0218983348459005
1772807698443401700,1.485401611328125,0.057492404025793,0.0460068411543965,-0.0347613889154978,0.0513782501220703,-0.0142946997657418,0.0033598260488361
1772807698463450600,1.50545068359375,0.0675865125387907,0.0194289230912923,-0.0628310342405457,0.0070008039474487,0.0097839962691068,0.0067626419477164
1772807698483499800,1.525499755859375,0.1210106442123651,0.0144771459028124,-0.0488670209250645,-0.0293308235704898,0.0184096693992614,0.0085007324814796
1772807698503548700,1.545548583984375,0.1354097564429044,0.0060904258295893,-0.0283859447326045,-0.0483638606965541,0.0005806073313578,-0.0085714049637317
1772807698523597800,1.565597900390625,-0.0490326187163591,0.0445651179134845,0.0568138060779077,0.015082973986864,-0.0308052599430084,0.0098196072503924
1772807698543646700,1.585646728515625,-0.0136947633534669,0.097588267570734,-0.0411462585138622,0.0632812902331352,-0.0348517820239067,0.0243389457464218
1772807698563695600,1.605695556640625,0.1499088219165802,0.0362453255966305,-0.0303857402476947,0.0415719896554946,-0.000200804992346,0.0175549648702144
1772807698583745800,1.625745849609375,0.2552858436673879,0.0031681086421012,-0.0478907186722382,-0.028749942779541,0.0306594148278236,-0.0144077204167842
1772807698603794700,1.645794677734375,0.0568026681959629,0.0024096914902329,0.0162248937524389,-0.0336588993668556,-0.0097855003550648,-0.0122836045920848
1772807698623843600,1.665843505859375,0.0698655633866787,0.0614607231348752,-0.0244639763827435,0.0182478465139865,-0.0219409801065921,0.0123613821342587
1772807698643892700,1.685892822265625,0.0803635765254497,0.0377753116428852,-0.010435962486919,0.0372861251235008,-0.0027326769195497,0.0085595473647117
1772807698663942000,1.70594189453125,0.1251028819620609,0.0265741186708211,-0.0493670017698779,-0.0031161496881395,0.0042126718908548,-0.0192661248147487
1772807698683990800,1.72599072265625,0.1699766274333,0.017775310665369,-0.0331414047645404,-0.0325313173234462,0.0070182471536099,-0.0189156737178564
1772807698704040000,1.7460400390625,0.069747489964962,0.0522474891096353,-0.0041992965870536,-0.0198131222277879,0.0055268765427172,0.0016828109510242
1772807698724088600,1.766088623046875,0.1488701265186071,0.0960609118729829,-0.0155609408178366,0.0016763191670179,-0.0108781829476356,0.0127481501549482
1772807698744138200,1.78613818359375,0.0905517930626869,0.0583174566730856,0.0160392349872272,-0.0042365328408777,-0.0602957643568515,-0.0002008969895541
1772807698764187400,1.8061875,0.030483401069045,0.0577247514769434,0.0397762762017548,0.0027910168282687,-0.0465266890823841,7.31418840587e-05
1772807698784236300,1.826236328125,0.029122049587965,0.035824762097001,-0.0270860045825596,-0.0022817379795014,-0.0201640371233224,0.0150439701974391
1772807698804285200,1.84628515625,-0.0108270989626646,0.0307142872154712,-0.0539955931522883,0.0035826300736516,0.0130651518702507,0.0090346727520227
1772807698824334300,1.866334228515625,0.0360211614519357,0.0259857973888516,-0.0554051950887311,0.0224988479167222,0.0116450162604451,0.0089856386184692
1772807698844383200,1.88638330078125,0.0403197354286909,-0.0046416883260011,-0.0817706577112432,0.0112913371995091,-0.0021714724134653,-0.0119949141517281
1772807698864432400,1.906432373046875,0.1529834070563316,0.0055620180413126,-0.1048366769295651,-0.0109735522419214,0.0070701530203223,-0.0483173169195652
1772807698884482300,1.926482421875,0.1143874266803264,0.0078466218471527,-0.0436906640333589,-0.0095945559442043,-0.0001983216789085,-0.0431634671986103
1772807698904531200,1.94653125,0.0668020841628313,0.0387874112948775,-0.0347100514539051,-0.0092571675777435,-0.0145812770351767,-0.0282917115837335
1772807698924580400,1.966580322265625,0.1336082599788904,0.0545370613515377,-0.0385105579817201,-0.0257322210818529,0.01575767993927,-0.03612070530653
1772807698944629200,1.986629150390625,0.0843120218902826,0.0316401698887348,0.0217229705789126,-0.0309536959975957,0.0080145057290792,-0.0341094098985195
1772807698964678400,2.006678466796875,-0.0095370591521263,0.0796297092929482,0.0667569024473894,0.0164190661162138,-0.0287789683789014,-0.0142591977491974
1772807698984727300,2.026727294921875,0.0167670104056596,0.1061889226555824,0.0160514277485199,0.060830146074295,-0.0048240232281386,-0.0064644836820662
1772807699004776200,2.046776123046875,0.1962187376707792,0.0723193862795829,0.0214913811795879,0.0219191368669271,0.0390398502349853,-0.0186215825378894
1772807699024825300,2.066825439453125,0.2741401817411184,0.0006827215671539,0.0774490499187726,-0.0506480224430561,0.0117588164284825,-0.0079347640275955
1772807699044874200,2.086874267578125,0.1461228736370801,0.0494487983018159,0.1121245141164865,-0.0331694930791854,-0.026919487863779,0.0177538078278303
1772807699064923400,2.10692333984375,0.1466086113274097,0.1193850888371467,0.0400286435276269,0.0032573586795479,-0.0318990796804428,0.024804089218378
1772807699084972300,2.12697216796875,0.1380611477345228,0.0594280482634902,-0.0063134574631229,-0.0064696641638875,-0.0277035180479288,-0.0045218793675303
1772807699105021200,2.147021240234375,0.1594014574050903,0.0570613191321492,0.0380484386289957,-0.0258293338119983,-0.0044408151879906,-0.0220631696283817
1772807699125070300,2.1670703125,0.1220697978764772,0.0634419600799679,-0.0293559953411575,-0.0598629489541053,-0.0182780213654041,-0.0053213196806609
1772807699145119200,2.187119140625,-0.0079570964843034,0.0308776610836386,0.0396329404746182,-0.0554687045514583,-0.027082534506917,0.0105257760733366
1772807699165169200,2.207169189453125,-0.0386269600361585,0.0525657612785697,-0.0017021642753854,-0.033381525427103,-0.0161797627806663,0.0172743815928697
1772807699185218300,2.22721826171875,-0.1286176120847463,0.01382891112715,-0.0502938708238303,-0.012943566776812,0.0092831701040267,0.0071480688638985
1772807699205267200,2.24726708984375,-0.0417173272669315,0.0133203770831227,-0.0662637943013571,-0.0068580326624214,0.0373015441000461,-0.0121240653097629
1772807699225316400,2.26731640625,-0.0823497819066047,-0.0601461334049701,-0.0246779387938324,-0.0071244351565837,0.0102038709446787,0.000597741222009
1772807699245365500,2.287365478515625,-0.0560281766921281,-0.0379763871729373,-0.02097832622407,0.0048318188637495,-0.000964333245065,0.015091273933649
1772807699265414100,2.3074140625,0.0035427871733903,0.00676993252635,-0.0768177845442201,0.033020831644535,0.0259062107652425,0.008151764050126
1772807699285463300,2.32746337890625,0.126749480125308,-0.0085734748169779,-0.0849458354149479,0.0088063273578882,0.048294797539711,-0.0098825963214039
1772807699305512200,2.34751220703125,0.1885661770910024,-0.0324725290596485,-0.0534281411284115,-0.0168527029454708,0.0269053820520639,-0.0220883190631866
1772807699325561300,2.367561279296875,0.1391746619343757,0.0334840441897511,-0.0117450631909538,-0.0032892669551074,-0.0349907465279102,-0.0253382325172424
1772807699345610500,2.387610595703125,0.0350239671081304,0.1181459024310112,-0.0086595547983888,0.0591474175453186,-0.0455983392894268,-0.0035795751027762
1772807699365659100,2.4076591796875,0.0407230555325746,0.1214198095351457,0.0030043146488256,0.0690442770719528,-0.005774543620646,0.0147417522966861
1772807699385708300,2.427708251953125,0.1300099432259798,0.0469064203426241,0.0282293202656321,0.011255083605647,0.0186696033924818,0.0043575577437877
1772807699405757200,2.447757080078125,0.0688730452179908,0.0066986208558082,0.0638976405587513,-0.0382143072783947,-0.0199929270893335,-0.0110004972666502
1772807699425806300,2.467806396484375,0.0641109453827142,0.0257888135120272,0.0518716324014123,-0.0133029324933886,0.0027462535072118,-0.0084459520876407
1772807699445856300,2.487856201171875,0.0855979700475931,0.0722957131430506,0.0107148707598447,0.0088462680578231,0.042928822338581,0.0101921223104
1772807699465905200,2.5079052734375,0.172796361029148,0.0443134812399744,0.0185230420264415,0.0105626750737428,0.0223290063440799,0.0339435264468193
1772807699485954300,2.527954345703125,0.0563835660010576,0.0294452901929616,0.0304119524011854,0.0121815176680684,-0.047521699219942,0.0418083369731903
1772807699506003500,2.54800341796875,0.1601321097671985,-0.0031941198661923,-0.0177243567962665,0.0247224941849708,-0.0270780120044946,0.016809981316328
1772807699526052400,2.56805224609375,0.1262438686907291,-0.0225903097316622,-0.0494158458802849,-0.0105633391067385,-0.0073990584351122,-0.0155440755188465
1772807699546101200,2.588101318359375,0.078121350556612,-0.0300759893119335,-0.0228248765393625,-0.0325459986925125,-0.0052091549150645,-0.0259122010320425
1772807699566150100,2.608150146484375,-0.096043960738182,0.0472059878110885,0.0385643157292623,0.0318096354603767,-0.0067737274803221,0.0008048240561038
1772807699586199300,2.62819921875,-0.2406634440749883,0.0975213398143649,0.0852034086389001,0.1006581559777259,-0.0307080689817667,0.0370816253125667
1772807699606248400,2.64824853515625,-0.0758773710221052,0.0421910822585225,0.0752446078102104,0.0855244398117065,-0.0210091304033994,0.042372927069664
1772807699626297300,2.66829736328125,0.1620487570434808,0.0105389296710491,-0.070385358610237,0.0283068735152483,-0.0224674865603446,0.0292775146663188
1772807699646346200,2.68834619140625,0.2209481052577495,-0.0534074727997183,0.0442530836890917,-0.0087115429341793,-0.061686310917139,0.0001046182587742
1772807699666395100,2.70839501953125,0.0568652120381593,0.0360585708528757,0.0702741441875696,0.0811353251338005,-0.0725474134087562,0.0295003280043602
1772807699686444300,2.7284443359375,-0.0013280337333679,0.1378065884515643,0.0151513371036387,0.1352173388004303,-0.082617349922657,0.0302488468587398
1772807699706493400,2.748493408203125,0.1341828449964523,0.05495236415416,-0.0406381902607157,0.0984068289399147,-0.0440835990011692,0.0352164953947067
1772807699726538800,2.768538818359375,0.217687057635188,0.070056994305551,-0.0142382591130211,0.0399936586618423,-0.0159978419542312,0.0368016138672828
1772807699746587600,2.788587646484375,0.0900467661499977,0.091905545759201,0.0908411496643908,0.011280626989901,-0.0398089662194252,0.0522707290947437
1772807699766637800,2.808637939453125,0.2247644486755132,0.0784127347186207,-0.0670539034994319,-0.0005770246498286,0.0094236228615045,0.042010374367237
1772807699786686700,2.828686767578125,0.093020813524723,0.053421209064126,-0.1204377579615451,-0.0158665347844362,-0.0115384142845869,0.0120933530852198
1772807699806736000,2.84873583984375,-0.0580430236458778,0.1471238673731684,-0.0155011917209252,0.0665471777319908,-0.0318904109299182,-0.0088356174528598
1772807699826784800,2.86878466796875,0.0141179572016,0.1443801216229796,0.0149922558180987,0.1121787801384925,0.048156339675188,0.0298121627420187
1772807699846833700,2.888833740234375,0.1650461852937936,0.0696785163819789,-0.0854161654735915,0.0547106191515922,0.0577657558023929,0.0701944679021835
1772807699866882800,2.9088828125,0.1537345176845788,-0.0242243406742811,0.0560491281486116,-0.0419133156538009,0.0141285993158817,0.0408496335148811
1772807699886931700,2.928931640625,0.1791886924147605,-0.057378714518249,-0.1020643718051724,-0.0418293997645378,0.0507389456033706,-0.0011247578077018
1772807699906980900,2.94898095703125,0.2237818673789501,0.0407604649335145,-0.1117569685788825,-0.0165771897882223,0.0597343929111957,-0.0300671327859163
1772807699927029800,2.96902978515625,0.2044593272715806,-0.0450362425565719,0.0079454425791278,-0.0309596620500087,0.0033100955188274,-0.0217908397316932
1772807699947078700,2.98907861328125,0.1560410410612821,0.0140361241370439,0.0448237505833618,-0.0378660894930362,-0.0919635742902755,0.0002311347052454
1772807699967127800,3.0091279296875,0.1072697036296129,0.0808411309093236,-0.0469220380368642,-0.0103834327310323,-0.0671322047710418,0.0039276434108614
1772807699987176700,3.0291767578125,0.1737339341402053,0.1460506851837039,-0.1141157883984036,-0.0234559178352355,0.0215758457779884,-0.034703142940998
1772807700007225900,3.049225830078125,0.0491033458650112,-0.0190428463831543,-0.0314699826872907,-0.0765345022082328,0.0159776490181684,-0.0441774129867553
1772807700027274800,3.069274658203125,-0.1139525423943996,0.0013490765213966,0.0753280483099631,-0.0439801849424839,-0.0056310179643332,-0.0034294910728931
1772807700047323600,3.08932373046875,-0.165713124769926,0.0250996622040867,0.0365535147629678,0.0213676709681749,0.0028103401418775,0.0210796911269426
1772807700067372800,3.109372802734375,0.0018277999490499,0.0278267490804195,0.0063640003402717,0.0460844598710536,0.0177134536206722,0.0002936082892119
1772807700087422700,3.129422607421875,0.0604927548855543,0.0302136442169547,0.0835245430407114,0.0428116060793399,0.0175198595970869,-0.002332838717848
1772807700107471600,3.1494716796875,0.1893915219992399,0.0222287829428911,-0.0355771622777916,0.0216811001300811,0.0291949249804019,0.0085455682128667
1772807700127520800,3.169520751953125,0.3084206370055675,0.0251198282092809,0.0119951563613489,-0.0295220650732517,0.0244347490370273,-0.0087836617603898
1772807700147569700,3.189569580078125,0.2376724455654621,0.0049158290922641,0.0042793943522498,-0.0731431692838668,-0.0687791034579277,-0.028500547632575
1772807700167618800,3.209618896484375,-0.0087596450388431,0.0729889561042189,0.0136670168300159,-0.024718802422285,-0.0721692368388176,-0.0292102172970771
1772807700187668000,3.22966796875,0.0383580799669027,0.1701400013014674,-0.1258562941452488,0.0140361078083515,0.0388589687645435,-0.0160929150879383
1772807700207716600,3.249716552734375,0.0758224259644746,0.0409077644497156,-0.079139240628574,-0.0210895258933305,0.0694219544529914,-0.0088026076555252
1772807700227765800,3.269765869140625,-0.0026467151165008,-0.0252469617202878,0.0646200091497041,-0.0421680361032485,0.0055638309568166,0.002821575384587
1772807700247814700,3.289814697265625,-0.0490039771437644,-0.0029947979018092,0.066590231510438,0.0186192449182271,-0.0207418631762266,0.030907230451703
1772807700267863800,3.30986376953125,0.0415162517368793,0.058143269149959,-0.020183632182423,0.0453467853367328,-0.0006439031567424,0.0126131484284996
1772807700287913000,3.329912841796875,0.1509510244458913,-0.0476350268781185,-0.099062577906996,-0.0065543828532099,0.0104430075734853,-0.0179806426167488
1772807700307961600,3.349961669921875,0.1170095918774604,-0.049754503250122,-0.0505431876760907,-0.0417465418577194,-0.0289973840117454,-0.0417484790086746
1772807700328010800,3.3700107421875,0.1128431198477745,0.0091784549728035,-0.0271589693540707,-0.0227333083748817,-0.0207585822790861,-0.0378357805311679
1772807700348059600,3.3900595703125,0.105042675229907,0.0507458523750305,-0.0567141679286025,-0.0089806588366627,-0.011757087893784,-0.0090061500668525
1772807700368108800,3.41010888671875,0.1111123505324125,0.0496934207126498,-0.0431876190152019,-0.0320011042058467,-0.0276652537286281,-0.0182800032198429
1772807700388158000,3.430157958984375,0.0708130733698606,0.053751171670854,0.0253049572515301,-0.0270907618105411,-0.0196489058434963,-0.0344997979700565
1772807700408206600,3.45020654296875,0.0630675738096237,0.1031093690797686,-0.0255341811638325,-0.0025402065366506,0.0050061936490237,-0.0151003561913967
1772807700428256800,3.4702568359375,-0.0152794021964073,0.082089961926639,0.0454907448584213,0.0090626217424869,-0.0033506052568554,0.0017604369204491
1772807700448306000,3.490305908203125,0.0243932675004005,0.0575265985563397,0.0398144345213659,-0.0118001848459243,0.02226023375988,0.0010841658804565
1772807700468354800,3.510354736328125,0.0385556483656168,0.008638649007678,-0.0197241249118931,-0.0332367680966854,0.0340590998530387,-0.0093879159539937
1772807700488403700,3.53040380859375,0.0582037671655416,0.0023033085063099,0.0403205026136711,-0.0156793948262929,0.0319722741842269,-0.0078432625159621
1772807700508452600,3.55045263671875,-0.0091045129537582,-0.016057693092525,0.0603063106690533,0.0190480407327413,-0.0189611762762069,0.019522774964571
1772807700528501800,3.570501708984375,0.0576093084037303,-0.0074053078204393,0.045623705322016,0.0277407150715589,-0.0230594407767057,0.0197977945208549
1772807700548551000,3.590551025390625,0.1588227807343006,-0.0145265380024909,-0.0086523852720856,0.0087311509996652,-0.0019655178766697,0.0070361956022679
1772807700568599800,3.610599853515625,0.0200607912540435,0.0307516966164112,0.0019683226645924,0.0170086845755577,0.0304947718977928,0.0057593286037445
1772807700588648700,3.630648681640625,0.101060912117362,0.0727878805741667,-0.0521893109153024,0.0257597863674163,0.0191534291952848,0.0197576452046632
1772807700608697600,3.650697509765625,0.0804950939506292,-0.0001075520277023,0.0180717728612944,-0.0019447115482762,-0.0126229282468557,0.0083534158766269
1772807700628746800,3.670746826171875,0.0286047477155923,0.0218310157969594,0.0430690889357589,-0.0179688483476638,-0.0152835696935653,-0.0214657839387655
1772807700648796000,3.6907958984375,0.0263701205313205,0.0213961315110325,0.0057899998445995,0.0152573240920901,0.0207439940422773,-0.0020694588311016
1772807700668844800,3.7108447265625,0.00716156219244,0.0585977349191904,-0.0149804740487597,0.0388185977935791,0.031510230153799,0.0295751206576824
1772807700688893700,3.730893798828125,0.1192681844592094,0.0496007739931345,-0.0169666063646785,0.0229012221097946,0.043545912951231,0.0325560010969638
1772807700708942600,3.750942626953125,0.2689846986740827,0.0205257784172892,-0.0297579728713259,-0.0067886179313063,0.0439914241433143,0.0325299203395843
1772807700728991200,3.7709912109375,0.1408645147174596,0.0332931977927684,0.000457497976534,-0.0108658177778124,-0.0262444373220205,0.0222647227346897
1772807700749040400,3.791040283203125,0.1362257490009069,0.0604962620168924,-0.0349315213180147,0.0172995943576097,-0.0206286199390888,0.0101314764469861
1772807700769089500,3.811089599609375,0.1058680201381444,0.0460854593485593,-0.0674449669099412,-0.0058015505783259,-0.0230323988944292,-0.00380948651582
1772807700789139200,3.83113916015625,0.0718950233876705,0.0160346044778823,-0.0586049135786481,-0.0407822504639625,-0.0108290389180183,-0.0203015711158514
1772807700809188400,3.851188232421875,-0.0313484934657812,0.0522699932023882,-0.01154951321939,-0.0074386452324688,0.0416116006672382,0.0086370827630162
1772807700829237500,3.871237548828125,-0.0567699349701404,0.0393251714333891,-0.0382018299592658,0.0392512753605842,0.0256531294435262,0.0462682321667671
1772807700849286400,3.891286376953125,0.0307715703606605,-0.0215510298117995,-0.0116720436205156,0.0230868179351091,0.0074009038507938,0.0290737058967351
1772807700869335300,3.911335205078125,0.1554898369193077,-0.0520250785306096,-0.0455708060909993,-0.0203103497624397,0.0106799341738224,-0.0146574582904577
1772807700889384200,3.93138427734375,0.2721113062620163,-0.0319397373571991,-0.0868764838171191,-0.0442347787320613,0.0309328213334083,-0.0367076322436332
1772807700909433300,3.951433349609375,0.1769090570449829,0.0212412332102656,-0.0081706296371296,-0.044231541454792,0.0086147375404834,-0.0244479775428771
1772807700929482500,3.971482421875,0.1126180789202451,0.0434857982441782,0.0336878231335431,-0.031009554862976,-0.0404913686215877,-0.0061003994196653
1772807700949531400,3.991531494140625,-0.0643447541385889,0.0590261894643306,0.0115926034424453,-0.0056542721576988,-0.0275241173803806,-0.01649153791368
1772807700969580300,4.011580322265625,0.0241290636062622,0.1080053244277834,-0.1375572168003767,0.0030038689728826,0.0554155893623828,-0.0489156171679496
1772807700989629200,4.031629150390625,-0.1135053831487894,0.0444052511766552,-0.0009390709483996,0.0106207393109798,0.0679771527647972,-0.0367568209767341
1772807701009678300,4.05167822265625,-0.0930845264106988,0.0768707659736275,0.0651239674833137,0.0614872202277183,0.0644438490271568,0.0189739670604467
1772807701029727500,4.0717275390625,0.0220960964739322,0.0628247049644589,0.0415144890380557,0.0603610314428806,0.03608238697052,0.041116178035736
1772807701049776400,4.0917763671875,0.2203250049233436,0.0283262230351567,0.0230218512830324,0.0095932595431804,0.0255191102623939,0.0178849063813686
1772807701069825500,4.111825439453125,0.3586807516902685,0.0268617034405469,0.0167478764469269,-0.037466075271368,-0.0059432769194245,-0.0112467128783464
1772807701089874200,4.131874267578125,0.3140425685405731,0.0754234897747635,0.0011406214024871,-0.0434383265674114,-0.0178706217557191,-0.014822531491518
1772807701109923300,4.15192333984375,0.1410492236346006,0.1030108771413564,-0.048133395721158,-0.0096756508573889,-0.0290391594171524,0.0098602529615163
1772807701129972500,4.171972412109375,0.1222217735677957,0.0887204859822988,-0.0462538655848707,0.0071463473141193,-0.0116208028048276,0.0123319495469331
1772807701150021400,4.192021484375,0.0658721098363399,0.0298804667398333,-0.0163551873349118,-0.011956475675106,-0.0125304702669382,0.0006118561141192
1772807701170070500,4.212070556640625,0.0131716162621974,0.0172243987843394,0.0273643465999048,-0.0273322276771068,-0.007694199681282,-0.0084767919033765
1772807701190120400,4.232120361328125,0.0269388603299856,0.0477373182088136,0.0176621234813239,-0.0031633304897695,-0.0030294172465801,0.018238328397274
1772807701210169300,4.25216943359375,0.0458002126663923,0.0170019882053136,0.0241795790839474,-0.0015999628230929,-0.0288349371403455,0.0297855641692876
1772807701230218500,4.272218505859375,0.12689502607584,-0.0168675481706857,-0.019894604374282,-0.0476075857877731,-0.0240233615040779,0.0045752096921205
1772807701250267400,4.292267333984375,0.1627688880115747,-0.0402899248123168,-0.0687269878108054,-0.0795090943574905,0.0035496046766638,-0.0217391662299633
1772807701270316300,4.31231640625,0.0543278025150299,0.0021785130828619,-0.0339431678677909,-0.050818745046854,0.0036405296996235,-0.0226173382252454
1772807701290365400,4.332365478515625,0.0223638074994087,0.0688020258083939,-0.0368847012124024,0.0062682596035301,-0.0048103062435984,0.0022869803942739
1772807701310414300,4.352414306640625,0.0251858791828155,0.0375558236733078,-0.0064475139052607,0.0241917893290519,-0.0078788883984088,0.0169990770518779
1772807701330463500,4.37246337890625,0.1389034437775611,0.0077203651189804,-0.0309231441931799,-0.0116365365684032,-0.0237408000975847,0.0056841499172151
1772807701350512400,4.392512451171875,-0.0233650934964418,-0.0058282677620649,0.0689085914554074,-0.0226070750504732,-0.0357817411422729,-0.0151174198836088
1772807701370561300,4.412561279296875,-0.0473801753342151,0.0524807133436203,-0.0402420305499807,0.0040575587190687,-0.0066787153482437,-0.0148527026176452
1772807701390610400,4.4326103515625,-0.1172287875860929,0.0257467279359698,-0.0081921656155027,0.0242885332554578,0.0387393347918987,-0.0105887930840253
1772807701410659300,4.452659423828125,-0.0342348625570535,0.0429842784628272,0.0002799677188508,0.0296581368893384,0.0498327128589153,-0.0070640044286847
1772807701430708500,4.47270849609375,0.0333025501430034,0.005958616143465,0.06828012082614,0.0282058734446764,0.0209714658558368,0.0098679717630147
1772807701450757400,4.49275732421875,0.0875362446337938,0.0571861145555973,0.0478742789940908,0.0277815405279397,0.006686826236546,0.0170619320124387
1772807701470806300,4.51280615234375,0.2726286081343889,0.0271647780403494,0.0011793094450607,0.0089114559814333,0.0218981951475143,0.0150452312082052
1772807701490855400,4.53285546875,0.2674351311445236,0.0161631992936134,0.002829067679774,-0.0154823530465364,-0.0203748922795057,0.0134330503642559
1772807701510904300,4.552904296875,0.1409364109098911,0.0281520355120301,-0.0106441070785745,-0.0095262974500656,-0.0682517811655998,0.0150446482002735
1772807701530953500,4.572953369140625,0.0653249973475933,0.0470665793403983,-0.1090854660809971,0.0205386243760585,-0.0654714778065681,0.0156061742454767
1772807701551002400,4.59300244140625,0.0070879124343395,0.0410346056997776,-0.1481143214489333,0.0152577115222811,-0.0093770679086446,-0.0161159746348857
1772807701571051300,4.61305126953125,-0.0937502968430519,-0.0152025375679135,-0.0959085160565562,0.0174743831157684,-0.0077612805180251,-0.0305580459535121
1772807701591100400,4.633100341796875,-0.0766010091215372,0.045763387787342,-0.0076601228317245,0.0643691420555114,0.0457418896257877,-0.0176878459751606
1772807701611150300,4.653150390625,-0.1649555844008922,0.0103384386628866,0.0164423815611749,0.0724518150091171,0.0171183906495571,0.0042200912721455
1772807701631199200,4.67319921875,0.0833007990211248,-0.0036471243306994,0.084627554112859,0.0608556605875492,0.0375525318086147,0.000880466774106
1772807701651248400,4.693248291015625,0.1749064850509166,0.0352367330759763,0.0834988788764923,0.0407517962157726,0.0383648760616779,0.0083719436079263
1772807701671297300,4.71329736328125,0.2744429640799761,0.1277504738613963,0.0697246844781097,0.015278972685337,-0.0011393825989216,-0.0098890289664268
1772807701691346400,4.733346435546875,0.2780336820483207,0.1381385968849063,0.0825566295903176,-0.0010702281724661,-0.0247447863221168,-0.0208928473293781
1772807701711395300,4.753395263671875,0.2729886736184358,0.1837754356831312,0.0646152599093504,0.0092648975551128,-0.0142128933221101,0.0043775415979325
1772807701731448300,4.7734482421875,0.233133048570156,0.1635559467360377,0.0369346595676615,-0.0142819313332438,-0.0243305023759603,0.0309767201542854
1772807701751497500,4.79349755859375,0.1213975977033376,0.0877823283493518,0.099134346235264,-0.0436042584478855,-0.0276499241590499,0.0274025090038776
1772807701771546400,4.81354638671875,0.0557312395721673,0.0536725534766912,0.003512154573109,-0.0425489395856857,-0.0155671359971165,0.0342342779040336
1772807701791595500,4.833595458984375,0.0232879366070032,-0.0268693022251129,-0.0186773558053188,-0.0359838232398033,0.0123051004484295,0.034880556166172
1772807701811644400,4.85364453125,-0.0715314507722854,-0.0586067950084805,-0.0863897232134826,-0.0177804492413997,-0.0003587781102396,0.0182244423776865
1772807701831693300,4.873693359375,-0.0481757096260786,-0.0900794993758201,-0.0700011176661588,0.0046569984406232,0.0165788996964693,-0.0108109572902321
1772807701851742500,4.893742431640625,-0.1308838034510612,-0.1196127601131796,-0.0198753882171586,0.0430710986256599,0.0240299068391323,0.0069370521232485
1772807701871791400,4.913791259765625,0.0702414109617471,-0.0671945906117558,-0.0525470017791725,0.0474742799997329,0.0468646399676799,0.0174537599086761
1772807701891840500,4.933840576171875,0.1654167721718549,-0.0791758280456066,-0.0409589466476812,0.0152603313326835,0.0551422648131847,0.0087272655218839
1772807701911889400,4.953889404296875,0.2231605206102132,-0.0408116105988621,-0.0181157216008752,-0.0082173803821206,0.024711875244975,-0.009984828531742
1772807701931938300,4.973938232421875,0.2135451355248689,0.0346866979777812,-0.0372262629253789,0.0009641665965318,-0.0024112814571708,-0.0170941911637783
1772807701951987500,4.993987548828125,0.1657008498102426,0.1143833350270986,0.0141947122322395,0.0034479233436286,-0.0147827509790658,-0.020666517317295
1772807701972036400,5.014036376953125,0.1943874305903911,0.1427414145052433,0.0017156904772389,-0.0187397692352533,-0.0182581264525651,0.0065848510712385
1772807701992085500,5.03408544921875,0.1183411327421665,0.1523345877587795,0.0246297431373968,-0.0540865026414394,-0.0215939432382583,0.0119094317778944
1772807702012134400,5.054134521484375,0.0981558383256197,0.1529801921859383,-0.0245718572040088,-0.0330110862851142,-0.000914505450055,0.0086185066029429
1772807702032183300,5.074183349609375,0.1076420440733432,0.1278317224040627,0.0290043506255839,-0.0107486192137002,0.0071498621255159,0.0127531997859478
1772807702052232400,5.094232421875,0.0529646974682807,0.0396519191697239,0.0028853644442744,-0.0266183167695999,-0.0080819996073842,0.0160728339105844
1772807702072281300,5.11428125,0.1534025092512369,-0.0002636193722486,-0.0519268240542151,-0.0513092391192913,-0.0160211436450481,0.0053275688551366
1772807702092330500,5.13433056640625,-0.0321615634143352,-0.0322936653614044,0.0261791097375564,-0.0296667851507663,-0.0407060571014881,0.0110353659838438
1772807702112380400,5.15438037109375,-0.0328173969745635,0.0078334701046347,-0.0698731621712446,0.021979983896017,-0.0132320756092667,0.0284640081226825
1772807702132429300,5.17442919921875,-0.0257867676854133,-0.0115811322003602,-0.0714573991553857,0.0291506387293338,0.0004272509540896,0.0163533184677362
1772807702152478500,5.194478515625,0.0784726482123136,-0.0548357520371675,-0.1336346365291625,-0.0147924199700355,0.0045254216529428,-0.0095551256090402
1772807702172527400,5.21452734375,0.0036491701573133,-0.0437333432644605,-0.0674327102165669,-0.0246949009597301,-0.0113182291388511,-0.022620040923357
1772807702192576500,5.234576416015625,0.0075204586327075,0.0155360073059797,-0.1221401596989482,0.0066299606114625,0.0038905129767954,-0.0170901231467723
1772807702212625400,5.25462548828125,0.0085831194281578,0.0242956523448228,-0.0998002079991623,0.0230814684182405,0.0226183328777551,-0.0182459764182567
1772807702232674300,5.27467431640625,0.1539624812215566,0.0202180276423692,-0.0887019274123012,0.0042722201906144,0.0185786392539739,-0.0311708450317382
1772807702252723500,5.294723388671875,0.1247451545655727,-0.0113707043200731,-0.0080525196827948,-0.0177411939948797,-0.0141900349408388,-0.0356416478753089
1772807702272772400,5.3147724609375,0.1552022521495819,0.0423626394331455,-0.0367439410348422,-0.0123169897124171,-0.0152370780706405,-0.041830975562334
1772807702292821500,5.334821533203125,0.0823000975459814,0.0472448585167527,0.0137537817980162,0.0032012807205319,-0.0139508564025163,-0.0511777698993682
1772807702312870400,5.354870361328125,0.0990150855034589,0.0615814269050955,0.0369102923113852,0.0079472130164504,-0.0189565457403659,-0.0337980948388576
1772807702332919300,5.374919189453125,0.0717348643898963,0.0230170107111334,0.0975419990099035,-0.0045095444656908,-0.0292845647782087,-0.0126037076115608
1772807702352968400,5.394968505859375,0.086133392098546,0.0395835301086306,0.0645212980155833,-0.0054381885565817,0.0002661364269442,-0.0143978800624609
1772807702373017300,5.415017333984375,-0.0055348377734422,0.0315387553408741,0.0595280197729356,0.0052254619076848,0.0153596149757504,-0.0231963153928518
1772807702393066500,5.43506640625,-0.0014309095859527,0.0526008325919508,0.0833883859730325,0.0255747269839048,-0.0022106659598648,-0.0089580900967121
1772807702413115400,5.455115478515625,0.0462538016527891,0.0427846642374992,0.0660907940883189,0.0267870388925075,-0.0171229876577854,-0.0020616990514099
1772807702433164300,5.475164306640625,0.0848971283018589,0.0323553324207663,0.0350409913081675,0.0096324607729911,-0.009560115635395,-0.0024790531024336
1772807702453213400,5.49521337890625,0.0680003540366888,0.0426353188946843,0.0095562570429407,-0.0089623499661684,-0.0043413988314569,-0.0088430568575859
1772807702473262300,5.515262451171875,0.0800052646070718,0.0253051216483116,-0.0098952980052679,0.0028162312228232,0.0167111884802579,-0.0020277416333556
1772807702493311500,5.5353115234375,0.0559568650215864,0.0583516512036323,-0.002579202838242,0.0205973107367753,-0.004477156791836,0.0060824030078947
1772807702513360400,5.5553603515625,0.100945176783204,0.0408890597492456,-0.0455497815692797,0.0264078378677368,-0.0161641687154769,0.0193332843482494
1772807702533409300,5.5754091796875,0.1202168634861707,0.003088321404159,-0.086437690541055,0.0055430373176932,-0.0032720705494284,0.0004432168789207
1772807702553458400,5.59545849609375,0.1976899792671203,-0.0308113178491592,-0.0939147849560715,-0.0334162190556526,0.0283138677477836,-0.0210615582764148
1772807702573507300,5.61550732421875,0.1538116745740175,-0.0462564320012927,-0.0931307584389112,-0.0633437409996986,0.0112132988870143,-0.0432220324873924
1772807702593556500,5.635556396484375,0.1009831707060337,-0.0227206581130623,-0.0238464838052168,-0.0492792762815952,-0.0204801745712757,-0.0479102060198783
1772807702613605400,5.65560546875,0.0440682743072509,0.0652080929696559,-0.0154887706307694,0.015229495242238,-0.0273899994790554,-0.016101561486721
1772807702633654300,5.675654296875,0.0007476034969091,0.1026551955714821,0.0212025269013829,0.0426614768803119,-0.0302677974104881,0.0004772641696035
1772807702653703400,5.695703369140625,0.0816805043429136,0.0872886996135115,0.041712651091814,-0.0004986051935702,-0.0088554238900542,-0.0119445547461509
1772807702673752300,5.71575244140625,0.081713237568736,0.0626399960473179,-0.0062595901177264,-0.0386361293494701,0.0098862247541546,-0.0267082117497921
1772807702693801500,5.735801513671875,0.0043494273811578,0.0975134487688541,0.0944135465247556,-0.0182609558105468,0.0147678600624203,-0.027305306866765
1772807702713850600,5.7558505859375,-0.0481143348276615,0.0987532196968793,0.0932753180087544,0.0371297895908355,0.0209850836545228,0.0136776529252529
1772807702733896700,5.775896728515625,0.017794015365839,0.0793602447018027,0.0838692100262269,0.0375142954289913,-0.002169597428292,0.0299610048532485
1772807702753945600,5.795945556640625,0.1126969893753528,0.0153758483082056,0.0422524753232486,0.0017043289262801,0.0156868044286966,0.005056507885456
1772807702773994800,5.815994873046875,0.1946054572552442,0.0694575671076774,0.0079093118198215,-0.0135162202641367,0.0060630189254879,-0.0038471394218504
1772807702794043600,5.836043701171875,0.0210410344630479,0.0776627931341528,0.0294958148038014,0.0291068162769079,0.0014521281700581,0.0354522392153739
1772807702814092500,5.856092529296875,0.1318318979561328,0.1275888535588979,-0.0602590374612249,0.0378454141318798,-0.0121292741969227,0.0489454641938209
1772807702834141700,5.8761416015625,0.1836485944330692,0.0477615758672356,-0.0869366347728297,-0.0116478893905878,0.0113212587311863,0.0100162727758288
1772807702854190600,5.896190673828125,0.2560948219627141,0.0123912795394659,-0.117426008924935,-0.0626277104020118,0.0034443526528775,-0.0182189829647541
1772807702874239700,5.91623974609375,0.0373719915390014,-0.0347641471281647,-0.0255783125665038,-0.03288384526968,-0.0159862861037254,-0.0066042114049196
1772807702894288600,5.93628857421875,-0.0809977827757597,0.0374950333967804,-0.0145663220236077,0.030917415395379,-0.0194190759211778,0.0154142342507839
1772807702914337500,5.956337646484375,0.0692301880925893,0.0117602881595492,-0.0416640992423519,0.0200541261583566,0.011539788916707,0.0114200580865144
1772807702934386700,5.97638671875,0.094546415656805,-0.0440814260497689,-0.0705654552843421,-0.0330134071409702,0.0242876149713993,-0.0114505384117364
1772807702954435600,5.996435546875,0.1793804155945778,0.0024725275933742,-0.0169607611457817,-0.0275333300232887,0.0286078080534935,-0.0136030567809939
1772807702974484700,6.016484619140625,0.053773675763607,0.0708092739775776,0.04045183737576,0.0156154222786426,-0.0208302848041057,0.0069475127384066
1772807702994533600,6.03653369140625,0.1173924537152051,0.1011997360661625,-0.0290945953254587,0.003370085498318,-0.0425330139696598,0.0047127930447459
1772807703014582500,6.05658251953125,0.2395896773636341,0.0976470120206475,-0.1025621652594767,-0.060649998486042,0.003277112962678,-0.0423165373504161
1772807703034631700,6.076631591796875,0.0946305868089199,0.0266930688753724,-0.0093958423168398,-0.0947738289833068,0.0110113443806767,-0.0461782999336719
1772807703054680600,6.0966806640625,-0.0036363106757402,0.0514189293310046,0.0022196122782304,-0.0499680042266845,0.0171762462705373,-0.0058378772810101
1772807703074729700,6.116729736328125,-0.1116314059704542,0.0316600436329841,0.0608980294845066,0.0110789453610777,-0.0191359538584947,0.0136435190215706
1772807703094778600,6.136778564453125,-0.0831412245452404,0.0193444596782326,0.0397781393652781,0.0454080402851104,-0.0271397251635789,0.0111082382500171
1772807703114827500,6.15682763671875,0.0970405705600976,-0.0071840662851929,-0.014852335890755,0.0211424641311168,0.0212529376149177,0.0108392629772424
1772807703134876700,6.176876708984375,0.1915074912399053,-0.0352121831566095,-0.0304173318292014,-0.0281603150069713,0.0251538176089525,0.0071053355932235
1772807703154925600,6.196925537109375,0.0877431653827428,-0.0146601012542843,0.0230762666177004,-0.0215689912438392,0.0070677576586604,-0.0038192174397408
1772807703174974700,6.216974609375,0.0492436311185359,0.0388037779077887,-0.0088258604091592,0.0139766102656722,-0.0243076365441083,-0.0047848182730376
1772807703195023600,6.237023681640625,0.0604506693094968,0.0520119267880916,0.0409837705616839,0.0302823074162006,-0.007622979581356,0.0027115787379443
1772807703215072500,6.257072509765625,0.1894850455015897,0.0817550308838486,-0.01191896758629,-0.0155864227563142,0.0097722047939896,0.0080212540924549
1772807703235121700,6.27712158203125,0.2022662011414766,0.017644670023024,0.0031123233342543,-0.0591855607926845,0.0022918723989278,0.0091775208711624
1772807703255170600,6.297170654296875,0.0275526083141565,0.0523018496453762,0.0518088419640436,-0.031171241775155,-0.029728066176176,0.0095555009320378
1772807703275219700,6.3172197265625,-0.0485293453693389,0.0391585826948285,-0.0025723712386563,0.0419803783297538,-0.0273490343242883,0.0281014516949653
1772807703295268600,6.3372685546875,-0.0210649998605251,0.0298658536925911,-0.0257760270956903,0.0496633313596248,0.0006043026223778,0.014161666855216
1772807703315317500,6.3573173828125,0.102870007365942,-0.02979337297827,-0.0277595838620327,0.0018565736245363,0.0029643361922353,-0.0065640429966151
1772807703335366700,6.37736669921875,0.0718301414579153,-0.0326683438926935,0.0114125889667309,-0.0105780363082885,0.0136755621060729,-0.0018910518847405
1772807703355415600,6.39741552734375,0.1058025536864995,0.0360325596287846,-0.0381199420957826,-0.0027900282293558,0.0271685756742954,0.0153007796034216
1772807703375464700,6.417464599609375,0.1328530576974153,0.0122825584679841,-0.0551472839380614,-0.0102565549314022,-0.0040713814087212,0.0070770899765193
1772807703395513600,6.437513671875,0.0780798495024442,0.0247156313225626,-0.0134108318455517,-0.0049605043604969,-0.0201187785714864,-0.014816909097135
1772807703415562800,6.457562744140625,0.0825555336117744,0.0611734306260943,-0.0225123125920072,0.0122297648340463,-0.0041889296844601,-0.0009890967048704
1772807703435611600,6.477611572265625,0.0969563994079828,0.0481976291969418,-5.8452188968e-06,0.006239513400942,0.010606306605041,0.0203002914786338
1772807703455660500,6.49766064453125,0.1290431440204381,0.0362023632377386,0.0032679340210743,-0.0266968663781881,0.0120153855532407,0.0047972314059734
1772807703475710700,6.517710693359375,0.1520101781100034,0.040168344259262,0.0221472604055888,-0.0520992502570152,-0.0098209073767066,-0.0058567821979522
1772807703495759600,6.537759521484375,0.0328185660183429,0.048094753344357,0.0336111229018308,-0.0408381186425685,-0.0241976808756589,-0.002243117429316
1772807703515808500,6.55780859375,0.0094873747915029,0.0749617174819111,0.0288311768826097,0.0091867903247475,-0.0232262331992387,0.0111509431153535
1772807703535857700,6.577857666015625,-0.1104635312348604,0.0420005281224846,0.0455847432848066,0.0434490144252777,0.0034004237968474,0.018718110397458
1772807703555906600,6.597906494140625,0.0447106638640165,0.0497001427143812,0.00856032307446,0.0298035647720098,0.0258067622780799,0.0155553538352251
1772807703575955700,6.617955810546875,-0.0196387664496898,0.0015521978780627,0.0048798627297393,-0.0070295110344886,0.0031047444790601,0.0016056618187576
1772807703596004600,6.638004638671875,0.0992798739194869,0.0576066780552268,0.0103363563036546,0.0177335403859615,0.0425974987447261,0.0118607701733708
1772807703616053500,6.658053466796875,0.1222743805378675,0.0782172121465206,-0.0184976883894763,0.0191567707806825,0.0306290816515684,0.0302650239318609
1772807703636102700,6.6781025390625,0.2439233226537704,0.0108534024477005,-0.0125159288324415,-0.0254426877945661,-0.0185868609696626,0.0251164995133876
1772807703656151600,6.698151611328125,0.2531330495476722,0.0050993689656257,0.0250200028303079,-0.0549834966659545,-0.0328543297946453,0.0149677488952875
1772807703676200700,6.71820068359375,0.1098299095064401,0.0306987973853945,0.0015539331774227,-0.0301799699664115,-0.0540288724005222,0.0192340184003114
1772807703696249600,6.73824951171875,0.0646148032516241,0.0791281895115971,-0.0789291963407769,0.017618354409933,-0.0200863201171159,0.0204736813902854
1772807703716298500,6.758298583984375,0.0386748908311128,0.0101253804340958,-0.0901406367122195,0.0049975430592894,0.0163593329489231,0.0112428637221455
1772807703736351200,6.778351318359375,0.0392553210675716,-0.0806327488556504,-0.0263568591909483,-0.0365717746317386,0.0079897213727235,-0.0015881932340562
1772807703756400400,6.798400390625,-0.0536608630388975,-0.0444701331064105,0.0404780312629416,-0.0039698565378785,-0.01699192635715,0.0124541474506258
1772807703776449300,6.81844921875,-0.0873304929286241,0.0332531580433249,0.0006369096640497,0.0431082174181938,-0.0142765613272786,0.026517292484641
1772807703796498200,6.838498291015625,0.03849368904531,0.042065117791295,-0.032893092559278,0.0347950384020805,0.0084341950714588,0.0050206501036882
1772807703816547300,6.85854736328125,0.153984108531475,0.0351879254981875,-0.047094563325867,-0.0149693759158253,0.0203202720731496,-0.016287924721837
1772807703836596200,6.87859619140625,0.0666629679530858,0.026139818906784,0.0028785328446887,-0.0132768861949443,0.0144633706659078,-0.0059728012420237
1772807703856645400,6.898645263671875,0.0533130725145339,0.0908992913261056,0.0277212794119492,0.0245582442730665,-0.0019148257561028,0.0253266263753175
1772807703876694300,6.9186943359375,0.1579682097315788,0.0591539074972271,0.0344948652001097,0.0222940705716609,-0.0093330536037683,0.0373620390892028
1772807703896743400,6.938743408203125,0.2506885790050029,0.0325651757791638,-0.0157599157223477,-0.0267276652157306,-0.0167060866951942,0.0105634666979312
1772807703916792300,6.958792236328125,0.1584440105497837,-0.0099596684783697,0.0401508634014986,-0.0400702357292175,-0.0570114031434059,-0.0010322974994778
1772807703936841200,6.97884130859375,0.0680272420436143,0.0559571572825312,-0.0097649678901769,0.0007540732622146,-0.0572474263608455,0.0135925253853201
1772807703956890400,6.998890380859375,0.0605307488083839,0.0616451397910714,0.0305337612831033,0.0019978934433311,-0.0159557498991489,0.0286086313426494
1772807703976939300,7.018939208984375,0.0514431869894266,0.0069052493438124,-0.0535495298852212,-0.0218277107924222,0.0154826398938894,0.0395776517689228
1772807703996988400,7.038988525390625,-0.0847492442637681,0.0637418198093772,0.0116434020479209,-0.0072660436853766,0.0091913919895887,0.024670710787177
1772807704017037300,7.059037353515625,-0.055927638927102,0.0409811219468712,-0.0320087657391093,0.0408356674015522,0.0165160987526178,0.0128277633339166
1772807704037086200,7.079086181640625,0.0591050999194383,0.0443555668160319,0.0160559943257831,0.0301394797861576,0.0300281532108783,0.0072336215525865
1772807704057135400,7.09913525390625,0.1633452265948057,0.0034442952349781,0.0197185719539411,-0.017544250935316,0.0025092968717217,0.017214735969901
1772807704077184300,7.119184326171875,0.0826776986867189,0.018377660472691,0.0084403682229109,-0.0063766771927475,0.0019762876909226,0.0279408227652311
1772807704097233400,7.1392333984375,0.0911012436389923,0.0755684512034058,-0.0750423815026879,0.0349613949656486,0.0213329792022705,0.0259693041443824
1772807704117282300,7.1592822265625,0.1539309170395136,0.0108303138330578,-0.0408478692223317,0.0193380862474441,0.020822824910283,0.0078066075220704
1772807704137331200,7.179331298828125,0.2844756977945566,-0.0102931382164359,-0.0260558486840687,-0.0355092696845531,0.0063812457956373,-0.0047346767969429
1772807704157380400,7.19938037109375,0.2171095500081777,0.0188239429354667,-0.0354181175248697,-0.0577253066003322,-0.0279331337660551,-0.00314566725865
1772807704177429200,7.21942919921875,0.1092354507446289,0.0893511851012706,-0.0455829349202103,-0.0235797725617885,-0.0271154399961233,-0.0052503594197332
1772807704197478400,7.239478515625,0.1272258654654026,0.083354575034976,-0.0406098044164478,-0.0019872966222465,-0.0058715720660984,0.0025351950898766
1772807704217527300,7.25952734375,0.0184346513569355,0.0282382524907588,0.0601022029316984,-0.0340573526918888,-0.0352591946721077,-0.0006228913553059
1772807704237576200,7.279576171875,-0.0219797766178846,0.0198716984227299,0.0239563373878598,-0.0456581711769104,-0.0270473510026931,0.006839970126748
1772807704257625300,7.299625244140625,-0.0368815776735544,0.0441802102491259,-0.003479604010377,-0.0185287650674581,0.009320848621428,0.0110091604292392
1772807704277674200,7.31967431640625,-0.0634825843513011,0.100284959308803,0.0118559305537492,0.0153354927897453,0.0254364237189292,0.0179932154715061
1772807704297723400,7.339723388671875,-0.0121340899080038,0.0678255819916725,0.0252255901386961,0.0446755439043045,0.0213116742670536,0.0452351421117782
1772807704317772300,7.359772216796875,0.0979196914821863,0.0078147654041647,0.0043180458622053,0.02017792314291,-0.0025696896482259,0.04724982380867
1772807704337821200,7.3798212890625,0.1672200222015381,-0.0197618083074688,-0.0112758108445443,-0.0276464167982339,-0.0197699517011642,0.0150247402489185
1772807704357870300,7.399870361328125,0.2307265719503164,-0.0106049806445837,-0.0779786724166013,-0.0567166805267334,0.0071596214547753,-0.0085120880976319
1772807704377919200,7.419919189453125,0.1689677426517009,0.0446896210759878,-0.0791570137472823,-0.0489836633205413,-0.0145725272595882,-0.0132425837218761
1772807704397968400,7.439968505859375,-0.0245873287677764,0.0741381261393427,0.0094605415835045,0.0205828566104173,-0.0222270358353853,0.0040182932280004
1772807704418017300,7.460017333984375,0.0515402176231145,0.0903951411962509,-0.0580429140480235,0.0444220528006553,-0.013597565703094,0.021451573818922
1772807704438066200,7.480066162109375,0.1069762736409902,-0.0364542921721935,-0.0056689855471253,-0.0099364342167973,0.0120304869487881,0.0089514553546905
1772807704458115300,7.500115234375,0.1354682086318731,-0.0551215832412242,0.0204490964518859,-0.0662651807069778,-0.0120995603501796,-0.0079488297924399
1772807704478164200,7.520164306640625,-0.0158849668741226,-0.0281029356732964,0.0103878307625651,-0.0189758222550153,-0.0110621154308319,-0.0016052420251071
1772807704498213400,7.54021337890625,-0.0487128852427005,0.046524435287714,-0.003883344239369,0.0430100075900554,-0.0047887824475765,-0.0013150149025022
1772807704518262300,7.56026220703125,0.0320125103324651,-0.0087120065048336,0.0032334654958918,0.0254366938024759,0.010538843460381,-0.0083319842815399
1772807704538311200,7.580311279296875,0.1420376501500606,-0.0166515673324465,-0.0381493873859755,-0.0250420197844505,0.0265240129083395,-0.0122595727443695
1772807704558360300,7.6003603515625,0.1356108319729566,0.0070639470368623,-0.0129954742440022,-0.0366171821951866,0.020619785413146,-0.0096419528126716
1772807704578409200,7.6204091796875,0.0332598800450563,0.0544409075006842,-0.0188378618629649,-6.1078229919e-05,-0.009079840965569,-0.0140592064708471
1772807704598458400,7.640458251953125,0.0316577055454254,0.0818093914195895,0.0057361690318211,0.0308362059295177,-0.0214441325515508,-0.0196739118546247
1772807704618507300,7.66050732421875,0.0573801758229732,0.0572486583977937,0.012497717322316,0.0314862839877605,-0.003189179347828,-0.0072552482597529
1772807704638556200,7.68055615234375,0.0481762941479682,0.0709589115813374,0.027522304507438,0.0071901800110936,0.0067440280690789,0.0131943617016077
1772807704658605300,7.700605224609375,0.1552525210320949,0.0471592260599136,0.0153286846982315,-0.0108846994116902,0.0212062057107687,0.0196002963930368
1772807704678654200,7.720654296875,0.1298661508411168,0.0007996259450912,-0.0219566332043148,-0.0120888911187648,0.0205987077206373,0.0044362950138747
1772807704698703400,7.740703369140625,0.1280032795786857,-0.0156906133458018,0.0291678614910691,-0.0184482540935277,-0.0234246775507926,-0.028092885389924
1772807704718752500,7.76075244140625,-0.0052454994380474,-0.0053682490348815,0.0547351777395233,0.0137577932327985,-0.0465978309512138,-0.0154185956344008
1772807704738797300,7.78079736328125,0.0558744474351406,0.089591131336987,-0.0329805699133314,0.0459336265921592,0.0053911507129669,0.0136005515232682
1772807704758846200,7.80084619140625,0.0948930371373891,0.0526651299998164,-0.0437647978486493,0.0165669377893209,0.0309361163526773,0.0122461132705211
1772807704778895400,7.820895263671875,0.0587841974020004,0.0304725874140858,0.0057293374322354,-0.0087149301543831,-0.0198835209012031,-0.0023646974004805
1772807704798944300,7.8409443359375,0.0086789810180664,0.0428966001793742,0.0131328734206967,0.0178466811776161,-0.0267405696213245,-0.0022966512478888
1772807704818993400,7.860993408203125,0.0384288071155548,0.039829029302299,-0.0152650814101099,0.034176655113697,-0.0006272586761042,0.004598194733262
1772807704839042300,7.881042236328125,0.0974918214589357,0.032919103783369,-0.0379308857970871,0.0160509534180164,0.02055349573493,0.0137780578806996
1772807704859091200,7.90109130859375,0.0863520032852888,-0.0054585576668381,-0.0301222944053821,0.0162044037133455,0.0270279292017221,0.018753308802843
1772807704879140400,7.921140380859375,0.1413812320679426,-0.0144102181464433,-0.0225927391507662,0.0251185726374387,0.01342742331326,0.0209596529603004
1772807704899189200,7.941189208984375,0.1497849032759666,-0.0632975831732153,-0.0190791415392421,-0.0025356844998896,-0.0347464233636856,-0.0049087419174611
1772807704919238400,7.96123828125,0.1961591164380312,-0.0324471023574471,-0.050130880548153,-0.0395844765007495,-0.0335550345480442,-0.0406131856143474
1772807704939287300,7.981287353515625,0.1358908179581165,0.0248030173450708,-0.0481454788845963,-0.0323244743049144,-0.0171511340886354,-0.035595204681158
1772807704959336200,8.001336181640625,0.0132218851447105,0.0890641848534345,0.006519373565074,0.0104031022638082,-0.0299004185944795,-0.0078153107315301
1772807704979385300,8.02138525390625,-0.0237695826441049,0.0674710694655776,0.0197540816587395,0.0284944474697113,-0.0268611162900924,0.0072144791483879
1772807704999434200,8.041434326171874,0.0552688827574253,0.0426055082783103,-0.0089851243577897,0.0004808341618627,-0.0109393699094653,-0.0026102252304553
1772807705019483400,8.0614833984375,0.1341062726289033,0.007258592826128,0.0226046487842686,-0.0284446030855178,0.0169796552509069,-0.0105908988043665
1772807705039532300,8.0815322265625,0.0749661013960838,-0.0192754860952496,0.0671789546512067,-0.0311131365597248,-0.0200925208628177,0.0041628456674516
1772807705059581200,8.101581298828124,0.051563598498702,0.0022074469164013,0.1024733727311715,0.0063483994454145,-0.0363393053412437,0.0176298357546329
1772807705079630300,8.12163037109375,0.0469289244353771,0.042025954824686,0.0682112385747023,0.0241334680467844,-0.0667656883597374,0.0350429788231849
1772807705099679200,8.14167919921875,0.049588499033451,-0.0038826866522431,0.021462821805384,0.001415109494701,-0.0706427544355392,0.0284084361046552
1772807705119728400,8.161728271484375,0.1040676927179098,0.0418643345221877,-0.0316014087809249,-0.0160138979554176,-0.0432417429983615,-0.0122927222400903
1772807705139777300,8.18177734375,-0.0564455253213644,0.0158262224242091,0.0142581328572705,0.0097934640944004,-0.0283550955355167,-0.0054453117772936
1772807705159826200,8.201826171875,-0.0473977109909057,0.1101563649818301,-0.0856245657935738,0.0634698271751403,0.0241135079413652,0.0148756001144647
1772807705179875300,8.221875244140625,0.0029752164185047,0.095656130464375,-0.0605003536701202,0.0551933012902736,0.0325131751596927,-0.0006829849444329
1772807705199924200,8.24192431640625,0.0836626180708408,0.0386678765684366,-0.04137856029924,0.0200377572327852,0.0571482814848423,-0.0335509069263935
1772807705219973400,8.261973388671874,0.1745008268594741,0.0267339854076504,-0.0602515482745133,0.0038446714170277,0.0653178989887237,-0.024178821593523
1772807705240022300,8.282022216796875,0.204469848665595,0.024213234758377,0.0071328292883001,0.0012665991671383,0.0382266044616699,-6.19399361312e-05
1772807705260071200,8.3020712890625,0.1798299129277467,0.0060009939804673,-0.0443519683531485,-0.0013699759729206,0.007367268204689,-0.0036878129467368
1772807705280120300,8.322120361328125,0.2465191843658685,-0.0023436405166983,-0.0776419512755237,-0.0067466292530298,0.006976687349379,-0.0189407709985971
1772807705300169200,8.342169189453125,0.1215384674787521,0.0049509004056453,0.0101028215424157,0.0034397370181977,-0.0279835239052772,-0.0203410349786281
1772807705320218400,8.36221826171875,0.0789566323369741,0.0643944384992122,0.0336479112482629,0.0314184203743934,-0.0208745226263999,-0.00036042323336
1772807705340267300,8.382267333984375,0.028527006304264,0.0358066419184207,0.0093679861955344,0.0066867545247077,-0.0054849591106176,-0.0047285612672567
1772807705360316200,8.402316162109376,0.0603168137967586,0.0137345108419656,0.0179481282153166,-0.0430204421281814,0.0450529195368289,-0.0332021601498127
1772807705380365300,8.422365234375,-0.0415086529523134,0.0081532035782933,0.0943881746214814,-0.0406023748219013,0.0242641102522611,-0.0187825579196214
1772807705400414200,8.442414306640625,-0.1444184078067541,0.0823991740062832,0.0777082945100031,0.0557027496397495,0.0160001050680875,0.0314759835600853
1772807705420463400,8.46246337890625,0.0228501297116279,0.129067693939805,0.013187051293347,0.1068439856171608,0.0272459164261817,0.0585636235773563
1772807705440512300,8.48251220703125,0.1900181294649839,0.0163759652614593,-0.0179030469645746,0.0527161210775375,0.0228067133575677,0.0310018863528966
1772807705460561200,8.50256103515625,0.2788070045083761,-0.0547252774000167,-0.0583044693273492,-0.0230110008269548,-0.0145012624561786,-0.0041433651931583
1772807705480610300,8.5226103515625,0.2036953571617603,-0.0589119154348969,-0.0441589117327705,-0.0283096246421337,-0.033728539943695,-0.0139364190399646
1772807705500659200,8.5426591796875,0.148868372952938,0.0096112934321165,-0.0621677936919964,0.0072648362256586,-0.0632622018456459,0.0050553241744637
1772807705520708400,8.562708251953126,0.0036783962517976,0.0181789230301976,-0.053298185472656,0.0313104279339313,-0.0623540841042995,-0.0053353798575699
1772807705540757200,8.58275732421875,0.1582487802386283,0.0139092828869819,-0.1075284093647264,0.0005008506122976,0.015726389363408,-0.0127668529748916
1772807705560806400,8.602806396484375,0.0301280117601156,-0.0359296837761998,-0.0748503843282349,-0.0366154909133911,0.0135938627645373,0.0045313807204365
1772807705580855300,8.622855224609374,0.0212093767672777,-0.0010971475869417,-0.0342179296885617,-0.0277115646749734,-0.007275485433638,-0.004091783426702
1772807705600904200,8.642904296875,0.0384527725130319,0.0045987259671092,-0.0224983023329637,0.0038687295746058,-0.0145383477210998,-0.0098879970610141
1772807705620953300,8.662953369140626,0.1647428184330463,0.036923370988667,0.0160519940041005,0.0048006577417254,-0.0321703217923641,-0.0152972936630249
1772807705641002200,8.683002197265624,0.117993342217803,0.0474859737962484,0.0124221496017649,-0.0024525928311049,-0.0136017780750989,-0.0295758172869682
1772807705661051400,8.703051513671875,0.1151420444399118,0.0815945796251297,7.51293291337e-05,-0.0125256013125181,-0.0075099826790392,-0.0151031501591205
1772807705681100300,8.723100341796876,0.0363654448449611,0.0164162972718477,0.0232180314422585,-0.0118172010406851,-0.028178509324789,0.0125327389687299
1772807705701149200,8.743149169921875,0.0290402165234088,0.0674000500559806,0.0322314137801528,-0.0013832002878189,0.0087173478677868,-0.0037867366336286
1772807705721198300,8.7631982421875,0.1333393799096345,0.0478556838914751,-0.0217157188542187,-0.009112674742937,0.0219073612242937,-0.0073105483315885
1772807705741247200,8.783247314453124,0.0852297212570905,0.0292334010079503,0.0544559041404165,-0.0365904085338115,-0.0237674061208963,-0.0209015607833862
1772807705761296100,8.803296142578125,0.0571066195785999,0.0628898791551589,0.0748658924246206,-0.0053785657510161,-0.0212135110050439,0.0058439066633582
1772807705781345000,8.823344970703126,-0.0073053545773029,0.1095136831641197,0.0132864565472118,0.0301745943725109,0.0085007445886731,0.0480186864733696
1772807705801394200,8.843394287109374,0.0695510906100273,0.081853230561316,0.054869197649043,0.0119377980008721,0.0044862003996968,0.0527529567480087
1772807705821443000,8.863443115234375,0.1312789402484893,-0.0216685187116265,-0.0195704139212146,-0.024029878899455,-0.0048522469587624,0.010159496217966
1772807705841492200,8.8834921875,0.1696183155149221,0.0059597851872444,-0.005109525033459,-0.0200646109879016,0.0381648540496826,-0.0179461687803268
1772807705861541000,8.903541015625,0.1146545531839132,0.009608370822668,-0.0595512910506688,-0.0176212489604949,0.0119220884516835,0.0038590999320149
1772807705881590000,8.923590087890625,0.08935235414505,-0.0276882173925638,-0.0279368766576983,-0.0240252185612916,-0.0181302092969417,0.016601588577032
1772807705901639200,8.94363916015625,0.1356540865927934,-0.0065910688281059,-0.054715998115018,-0.0212090145796537,-0.0039571495726704,-0.0131431054323911
1772807705921688000,8.96368798828125,0.0416027609765529,-0.0296364288508892,-0.0928526904162019,-0.0354071669280529,-0.010092606768012,-0.0350887514650821
1772807705941737200,8.9837373046875,0.0158738609582185,-0.0229541746079921,-0.0449584646126255,-0.0186182502657175,0.0018199444748461,-0.0297891665250062
1772807705961786000,9.0037861328125,0.0081920742839574,0.0240273567974567,-0.0171291947815567,-0.010249575600028,0.0232380926609039,-0.0140838427469134
1772807705981835000,9.0238349609375,0.0352449163824319,-0.0058648003801703,-0.0526366345576941,-0.0089666889980435,0.0202655307948589,0.0028888834640383
1772807706001884200,9.04388427734375,0.0231283621311187,0.0061231590554118,0.0263006720243021,0.0114412074908614,0.010185214690864,-0.0013562054373323
1772807706021933000,9.06393310546875,0.11247837818861,0.0548717001333832,-0.0095650614039041,0.0285438485443592,0.0129589745774865,-0.0002231034450232
1772807706041982200,9.083982177734375,0.0879004017710685,0.0134437112018465,0.0095988906082697,-0.0057453708723187,0.0090940250083804,-0.0162166282534599
1772807706062031000,9.104031005859374,0.1746340978503227,0.026609774506092,0.004254168579448,-0.045552659779787,0.0022915233857929,-0.0359295532107353
1772807706082080000,9.124080078125,0.0804980165600776,0.0475213373705744,0.0451444339050911,-0.0412312783300876,0.0283297207206487,-0.0313066989183425
1772807706102129200,9.144129150390626,0.0558452213406562,0.0815028096884489,0.0549647304453887,-0.0094149867072701,0.0127902869135141,0.0077993716113269
1772807706122178000,9.164177978515625,0.002094341930747,0.0778220753490924,0.0853339305502362,0.0287214387208223,-0.0114618707448244,0.0343239270150661
1772807706142227200,9.184227294921875,0.0714759211927652,0.0777113084509968,0.0181941023330204,0.025499764829874,-0.0146621251478791,0.0210828389972448
1772807706162276000,9.204276123046874,0.2022194393903016,0.0187812728375196,0.0168725531393662,-0.0198812074959278,0.018226383253932,0.0061476323753595
1772807706182325200,9.2243251953125,0.1598106227278709,0.0024245967984199,0.0220545040882192,-0.0572608932852745,-0.0096218781545758,0.0115196146070957
1772807706202374100,9.2443740234375,0.0431008905798196,0.017769757707417,0.0272139144117012,-0.0125745572149753,-0.0386795103549957,0.0308449901640415
1772807706222423000,9.264423095703124,0.0226496387034654,0.0595858691737055,-0.0654726987225934,0.0231523253023624,-0.0199243985116481,0.025019459426403
1772807706242472200,9.28447216796875,0.0555149664729833,-0.0075049688026309,-0.0907891272162087,0.0016445468645542,-0.0032920290250331,0.0020502235274761
1772807706262521000,9.30452099609375,0.1320674602776765,-0.0331628494113683,-0.0665005439329892,-0.0403983332216739,0.0182944312691688,-0.0106171704828739
1772807706282570200,9.3245703125,0.0029249475359916,-0.0250751122847199,-0.0481347748274914,-0.0332626141607761,-0.0091788955032825,-0.0067171487025916
1772807706302619100,9.344619140625,0.0340571679025888,0.036220191155374,-0.0566777814409695,0.0180490873754024,0.0037119367625564,-0.0042703668586909
1772807706322668000,9.36466796875,0.057276130926609,0.0370721318095922,-0.0922367504749447,0.0167310405522584,0.0102076614275574,-0.0184560641646385
1772807706342717200,9.38471728515625,0.1510913096994161,-0.0066059741362929,-0.0350029608527198,-0.0317526049911975,0.0044942069798707,-0.0300970692187547
1772807706362766000,9.40476611328125,0.0677887571126222,-0.0101028763413429,0.0119885074248537,-0.031667023897171,-0.0123320007696747,-0.0087263099849224
1772807706382815200,9.424815185546874,0.0737695850878953,0.0852387813463807,-0.0373948974905535,0.011528736911714,0.014252433553338,-0.0005359877832233
1772807706402864000,9.444864013671875,0.0824468125402927,0.0660123950898647,-0.0138439260331913,0.0165094248950481,0.0239271745085716,-0.0119244065135717
1772807706422913000,9.4649130859375,0.1552466758131981,0.0421861138224601,0.0051593007256276,-0.0209956504404544,-4.44237375631e-05,-0.0286253355443477
1772807706442962200,9.484962158203125,0.1536105990439653,0.0281330385506153,0.0773527956032194,-0.0372115485370159,-0.0158208198845386,-0.0339080207049846
1772807706463011000,9.505010986328124,0.1041466031730175,0.0951890974745154,0.0024431736347265,-0.0197709072381258,0.0093018738552927,-0.0166958402842283
1772807706483060200,9.525060302734374,0.0997638580441474,0.0937049963966012,0.0525054641923867,-0.0054669356904923,0.0211124885827302,-0.0002013803459703
1772807706503109000,9.545109130859377,0.1090863976627588,0.0622311229854822,0.0404550705124624,-0.0351559445261955,-0.0193113293498754,-0.011868193745613
1772807706523158000,9.565157958984376,0.1559557008653879,0.0272571324989199,0.005222155095078,-0.0808809995651245,-0.0151337711140513,-0.0359572768211364
1772807706543207200,9.585207275390625,0.0096399350047111,-0.0405474067047238,0.0518558229109272,-0.0701801031827926,0.0187243241816759,-0.0188041906803846
1772807706563256000,9.605256103515623,0.0060077159821987,0.0541322799429297,-0.0390093286835588,-0.0202989690005779,0.0270261019468307,0.0110887410119175
1772807706583305200,9.62530517578125,-0.0672135875731706,0.029670331120491,0.015594678690657,0.0286668464541435,-0.0004314671386964,0.0158742386847734
1772807706603354000,9.64535400390625,0.0435211618185043,0.0272138778790831,-0.0019881964088417,0.0419427007436752,0.0102491984143853,0.0113554652780294
1772807706623403000,9.665403076171875,0.0772948366045951,-0.0118915133237838,-0.0431862125094048,0.0182733628898859,0.0121913906186819,-0.0073893568478524
1772807706643452200,9.6854521484375,0.1529687940090894,-0.0177685886636376,-0.0014530300862155,-0.0330398418009281,0.0504266731441021,-0.0239569507539272
1772807706663501000,9.7055009765625,0.0465729506045579,-0.0539174681484699,-0.0768380327478051,-0.0631813630461692,0.051931444555521,-0.0244568400084972
1772807706683550200,9.72555029296875,-0.0136976859629154,0.0441603365048766,0.023012699862197,-0.0166121311485767,0.0655560865998268,-0.0392277799546718
1772807706703599000,9.74559912109375,-0.0547328761845827,0.0538391422152519,0.0378357913921587,0.0355812087655067,0.030072646215558,-0.0082920845597982
1772807706723648000,9.76564794921875,0.0058931496918201,0.0451774045929312,0.0579984721180982,0.0536309145390987,0.0420074239373207,0.01143420021981
1772807706743697200,9.785697265625,0.2801706940770149,0.0725023416310548,0.0427490449348464,0.0494121573865413,0.0668774917721748,0.0023970818147063
1772807706763746000,9.80574609375,0.1465530817478895,-0.0070963880017399,0.0444170329459942,0.0341435000300407,-0.0125098815187811,-0.0154887605458498
1772807706783795200,9.825795166015626,0.0922732100278139,0.0317328166082501,0.054734374021925,0.0471363514661788,-0.0213749669492244,-0.0209889188408851
1772807706803844000,9.845843994140624,0.0897258636325597,0.0818298496857285,0.0050271805122494,0.0536733940243721,-0.0059955511242151,0.0191500037908554
1772807706823893000,9.86589306640625,0.0996422774910926,0.050149932308495,0.0293682429013773,0.0066814273595809,-0.0181983057409524,0.0458747707307338
1772807706843942100,9.885942138671876,0.1716407612532377,0.0317483064383268,-0.0336234891930595,-0.0441260039806366,-0.001647230121307,0.0253059174865484
1772807706863991000,9.905990966796876,0.0646481209993362,0.0096411040484905,-0.0377553648333996,-0.0323002375662326,-0.0036033219657838,0.0054038483649492
1772807706884040200,9.926040283203124,0.0166050978422164,0.0572740850999951,-0.0534789306007325,0.0214821696281433,-0.0236302055418491,-4.60604205727e-05
1772807706904089000,9.946089111328124,-0.0229383925169706,0.0340785029515624,-0.013495496188011,0.0456294491887092,-0.0099266720935702,0.0161942560225725
1772807706924138000,9.966137939453125,0.0336988559842109,0.0071846508070826,-0.0617994535699486,0.0065246964804828,-0.0142085487022995,0.0182692278176546
1772807706944187100,9.986187255859376,0.0704763887614011,-0.0170244922980666,-0.017727489468269,-0.0343682244420051,-0.0102872736752033,0.0095967501401901
1772807706964236000,10.006236083984374,0.0301478855043649,0.0009524784192442,-0.0239743662348948,-0.0420170463621616,-0.0121098207309842,0.0235548559576272
1772807706984285200,10.02628515625,0.0440858099639415,0.0276230432018637,-0.0459982925217598,-0.0368952564895153,-0.0108163775876164,0.0298041515052318
1772807707004334300,10.046334228515626,0.0702075086921453,0.0472159246832132,0.0372490044801495,-0.0026301858015358,-0.0240561198443174,0.0219201557338237
1772807707024383000,10.066383056640625,-0.0066951137244701,0.0336889191120862,0.0250258845818229,0.0529706738889217,-0.0748829394578933,0.0145772844552993
1772807707044432100,10.08643212890625,0.0351414560079574,0.0232715699940919,-0.0369052873427048,0.0731443911790847,-0.004351413808763,0.0022540700156241
