time,seconds_elapsed,accel_z,accel_y,accel_x,gyro_x,gyro_y,gyro_z
1.7726372440511447e+18,0.272144775390625,-0.0035017728805541,0.0768041610717773,0.0184645652770996,0.0090547399595379,0.013315794058144,0.002130527049303
1.772637244071138e+18,0.292137939453125,0.0012985467910766,0.0767297744750976,0.0377736091613769,0.0050600017420947,0.0055926335044205,0.002130527049303
1.7726372440911316e+18,0.312131591796875,-0.0125761032104492,0.0671873092651367,0.0521893501281738,0.002130527049303,0.0039947382174432,0.0045273699797689
1.7726372441111252e+18,0.332125244140625,-0.0026304721832275,0.0618762969970703,0.072420597076416,-0.0005326317623257,0.0,0.0055926335044205
1.7726372441311186e+18,0.35211865234375,-0.0213971138000488,0.0514202117919921,0.1075572967529296,-0.0010652635246515,-0.0039947382174432,0.006657897029072
1.7726372441511122e+18,0.3721123046875,-0.0360010862350463,0.0414609909057617,0.0890531539916992,-0.0037284223362803,-0.0074568446725606,0.0045273699797689
1.7726372441711058e+18,0.392105712890625,-0.0362297296524047,0.027113914489746,0.094339370727539,-0.0071905287913978,-0.0119842141866683,0.0002663158811628
1.7726372441910994e+18,0.412099365234375,-0.0560847520828247,0.0367765426635742,0.1275587081909179,-0.0106526352465152,-0.0138484258204698,0.0047936858609318
1.7726372442110927e+18,0.4320927734375,-0.0659291744232177,0.0511322021484375,0.1179466247558593,-0.0087884236127138,-0.0154463211074471,0.011185267008841
1.7726372442310863e+18,0.45208642578125,0.0057697296142578,0.0749044418334961,0.0944395065307617,-0.0055926335044205,-0.0138484258204698,0.0077231605537235
1.77263724425108e+18,0.472079833984375,0.0285743474960327,0.0655384063720703,0.074594497680664,-0.0042610540986061,-0.0085221081972122,0.0029294746927917
1.7726372442710733e+18,0.4920732421875,-0.0257568359375,0.0514802932739257,0.0638899803161621,0.0005326317623257,-0.0047936858609318,-0.0005326317623257
1.772637244291067e+18,0.51206689453125,-0.0274010896682739,0.0803203582763671,0.0489463806152343,0.0026631588116288,-0.002130527049303,-0.0013315794058144
1.7726372443110605e+18,0.532060546875,0.0040860176086425,0.0953264236450195,-0.0148773193359375,-0.0002663158811628,0.0023968429304659,0.0015978952869772
1.7726372443310538e+18,0.5520537109375,0.0063101053237915,0.1203889846801757,-0.0415349006652832,0.0045273699797689,0.0082557927817106,-0.0007989476434886
1.7726372443510474e+18,0.57204736328125,-0.0014396905899047,0.1023197174072265,-0.0155668258666992,0.0151800047606229,0.0047936858609318,-0.0069242129102349
1.772637244371041e+18,0.592041015625,-0.0462549924850463,0.1036386489868164,0.0292949676513671,0.0141147412359714,0.006657897029072,-0.0050600017420947
1.7726372443910346e+18,0.61203466796875,-0.0716814994812011,0.1237564086914062,0.0510892868041992,0.0077231605537235,0.0005326317623257,-0.0053263176232576
1.772637244411028e+18,0.632028076171875,-0.0476102828979492,0.1093816757202148,0.0559139251708984,0.0077231605537235,-0.006657897029072,-0.0122505305334925
1.772637244431021e+18,0.65202099609375,-0.0236697196960449,0.1085567474365234,0.0480356216430664,0.0106526352465152,-0.0141147412359714,-0.0149136893451213
1.772637244451014e+18,0.672013916015625,-0.0415751934051513,0.0835351943969726,0.0837430953979492,0.0047936858609318,-0.0181094799190759,-0.0138484258204698
1.7726372444710067e+18,0.6920068359375,-0.0499110221862793,0.0635089874267578,0.0952610969543457,0.0007989476434886,-0.0215715859085321,-0.0143810575827956
1.7726372444909996e+18,0.71199951171875,-0.0678142309188842,0.053323745727539,0.1062836647033691,-0.0042610540986061,-0.0157126374542713,-0.0042610540986061
1.7726372445109926e+18,0.73199267578125,-0.0384153127670288,0.0428619384765625,0.1224784851074218,-0.0106526352465152,-0.0127831622958183,0.0071905287913978
1.7726372445309855e+18,0.7519853515625,-0.0427910089492797,0.0371255874633789,0.1291522979736328,-0.0098536871373653,-0.0141147412359714,0.0143810575827956
1.7726372445509783e+18,0.771978271484375,-0.0429751873016357,0.0364265441894531,0.1112666130065918,-0.0122505305334925,-0.0117178987711668,0.0138484258204698
1.7726372445709711e+18,0.79197119140625,-0.0248447656631469,0.045501708984375,0.106727123260498,-0.0130494777113199,-0.0103863198310136,0.0109189506620168
1.7726372445909642e+18,0.811964111328125,-0.0111829042434692,0.0503110885620117,0.1496424674987793,-0.0103863198310136,-0.0079894764348864,0.0103863198310136
1.77263724463095e+18,0.851949951171875,0.0037940740585327,0.0411052703857421,0.1442804336547851,-0.0055926335044205,-0.0039947382174432,0.0114515833556652
1.7726372446509427e+18,0.871942626953125,-0.0108379125595092,0.0456609725952148,0.0823807716369628,-0.0015978952869772,-0.0034621064551174,0.0101200034841895
1.7726372446709358e+18,0.891935791015625,-0.016484260559082,0.0363502502441406,0.0577116012573242,0.0018642111681401,0.0007989476434886,0.0063915811479091
1.7726372446909286e+18,0.9119287109375,-0.0072327852249145,0.0326519012451171,0.0459880828857421,0.0093210563063621,0.0090547399595379,0.0007989476434886
1.7726372447109215e+18,0.93192138671875,0.0166050195693969,0.0628719329833984,0.0671296119689941,0.0074568446725606,0.0135821104049682,-0.0042610540986061
1.7726372447309143e+18,0.951914306640625,-0.0130411386489868,0.0500402450561523,0.0544180870056152,0.0077231605537235,0.0186421126127243,-0.0039947382174432
1.7726372447509074e+18,0.971907470703125,-0.0192365646362304,0.0991287231445312,0.0326852798461914,0.0085221081972122,0.0159789528697729,-0.0007989476434886
1.7726372447709002e+18,0.991900146484375,-0.0073342323303222,0.1049509048461914,0.0498976707458496,0.0130494777113199,0.019441058859229,-0.0015978952869772
1.772637244790893e+18,1.01189306640625,-0.0099397897720336,0.1303510665893554,0.0082001686096191,0.0138484258204698,0.0178431645035743,-0.0106526352465152
1.772637244810886e+18,1.031885986328125,-0.016599416732788,0.1893348693847656,-0.0429916381835937,0.0106526352465152,0.0199736915528774,-0.0183757953345775
1.772637244830879e+18,1.05187890625,-0.0538393259048461,0.1858797073364257,-0.0454092025756835,0.013315794058144,0.0181094799190759,-0.0186421126127243
1.7726372448508718e+18,1.071871826171875,-0.0563733577728271,0.1536102294921875,-0.0233149528503417,0.0130494777113199,0.0135821104049682,-0.0191747434437274
1.7726372448708646e+18,1.09186474609375,-0.0390142202377319,0.1308851242065429,0.0229811668395996,0.0191747434437274,0.0154463211074471,-0.0154463211074471
1.7726372448908575e+18,1.111857421875,-0.0123383998870849,0.1178808212280273,0.025972843170166,0.0218379013240337,0.0122505305334925,-0.019441058859229
1.7726372449108506e+18,1.1318505859375,-0.0463413000106811,0.1100044250488281,0.0092458724975585,0.0159789528697729,0.0042610540986061,-0.0197073742747306
1.7726372449308426e+18,1.151842529296875,-0.0559614896774292,0.0880289077758789,0.0305752754211425,-0.002130527049303,-0.0151800047606229,-0.0159789528697729
1.772637244950835e+18,1.1718349609375,-0.0267530679702758,0.0759744644165039,0.041788101196289,-0.0260989554226398,-0.0311589576303958,-0.0082557927817106
1.772637244970827e+18,1.191826904296875,-0.0116232633590698,0.0974197387695312,0.0675039291381836,-0.0396810658276081,-0.045540016144514,-0.0039947382174432
1.772637244990819e+18,1.211819091796875,-0.0074249505996704,0.0851354598999023,0.0740904808044433,-0.0479368567466735,-0.0545947551727294,-0.002130527049303
1.7726372450108111e+18,1.23181103515625,-0.0327132940292358,0.0585412979125976,0.0516324043273925,-0.048469491302967,-0.0559263341128826,-0.0042610540986061
1.7726372450308032e+18,1.25180322265625,-0.0329813957214355,0.0418920516967773,0.0526800155639648,-0.0508663319051265,-0.0410126447677612,-0.0117178987711668
1.7726372450507955e+18,1.27179541015625,-0.0290035009384155,0.0438003540039062,0.0739150047302246,-0.0529968589544296,-0.0380831696093082,-0.0138484258204698
1.7726372450707876e+18,1.29178759765625,-0.0304083824157714,0.0836715698242187,0.1052842140197753,-0.05139896646142,-0.043409489095211,-0.0117178987711668
1.7726372450907796e+18,1.311779541015625,-0.0267959833145141,0.0801076889038086,0.1085667610168457,-0.042610540986061,-0.0442084372043609,-0.0117178987711668
1.7726372451107717e+18,1.331771728515625,0.0236523151397705,0.0667686462402343,0.0977325439453125,-0.0471379123628139,-0.0436758026480674,-0.0157126374542713
1.7726372451307638e+18,1.351763671875,0.0341061353683471,0.0721073150634765,0.0633482933044433,-0.0468715950846672,-0.0402136966586113,-0.0138484258204698
1.772637245150756e+18,1.371756103515625,0.0251948833465576,0.0576992034912109,0.0348258018493652,-0.0370179079473018,-0.031691588461399,-0.0101200034841895
1.7726372451707482e+18,1.391748046875,0.040029764175415,0.0909795761108398,0.010871410369873,-0.0330231711268425,-0.0279631670564413,-0.0071905287913978
1.7726372451907402e+18,1.411740234375,0.01712167263031,0.0960245132446289,0.0440230369567871,-0.0327568538486957,-0.0191747434437274,-0.0045273699797689
1.7726372452107323e+18,1.431732177734375,0.0129517316818237,0.0728435516357421,0.1049656867980957,-0.019441058859229,-0.0167779009789228,-0.0050600017420947
1.7726372452307244e+18,1.451724365234375,0.0089787244796752,0.0691099166870117,0.1168966293334961,-0.0143810575827956,-0.0210389550775289,0.0005326317623257
1.7726372452707087e+18,1.491708740234375,-0.0086110830307006,0.0513315200805664,0.1146025657653808,-0.0178431645035743,-0.0255663245916366,0.0063915811479091
1.7726372452907008e+18,1.51170068359375,-0.0073919296264648,0.056558609008789,0.1044650077819824,-0.017310531809926,-0.0300936941057443,0.0042610540986061
1.7726372453106929e+18,1.53169287109375,0.0126484632492065,0.0714282989501953,0.1324524879455566,-0.0181094799190759,-0.0268979035317897,-0.0005326317623257
1.7726372453306852e+18,1.551685302734375,-0.0105906724929809,0.0537958145141601,0.1260371208190918,-0.0162452682852745,-0.023169482126832,-0.0063915811479091
1.7726372453506772e+18,1.57167724609375,-0.014461874961853,0.0455284118652343,0.080604076385498,-0.0151800047606229,-0.0199736915528774,-0.0077231605537235
1.7726372453706693e+18,1.59166943359375,0.0286239385604858,0.060892105102539,0.0495247840881347,-0.0119842141866683,-0.0165115855634212,-0.0042610540986061
1.7726372453906614e+18,1.611661376953125,-0.0082476139068603,0.0810928344726562,0.0333499908447265,-0.0159789528697729,-0.0175768472254276,-0.002130527049303
1.7726372454106534e+18,1.6316533203125,0.0174934864044189,0.0819482803344726,0.051276683807373,-0.0127831622958183,-0.0122505305334925,-0.0005326317623257
1.7726372454306468e+18,1.651646728515625,0.0008426904678344,0.0925788879394531,0.0402507781982421,-0.0101200034841895,-0.0117178987711668,-0.0050600017420947
1.7726372454506406e+18,1.671640625,-0.0057957172393798,0.1081819534301757,0.0673003196716308,-0.0087884236127138,-0.006657897029072,-0.011185267008841
1.7726372454706342e+18,1.69163427734375,-0.0177752971649169,0.0994768142700195,0.0949020385742187,-0.0079894764348864,-0.006657897029072,-0.0143810575827956
1.772637245490628e+18,1.711628173828125,-0.026953101158142,0.085611343383789,0.0892248153686523,-0.0074568446725606,-0.0077231605537235,-0.0135821104049682
1.7726372455106217e+18,1.73162158203125,-0.0415902733802795,0.0620183944702148,0.0693006515502929,-0.0130494777113199,-0.0090547399595379,-0.0074568446725606
1.7726372455306153e+18,1.751615234375,-0.0458925366401672,0.0624580383300781,0.0637712478637695,-0.017310531809926,-0.0103863198310136,-0.0055926335044205
1.7726372455506092e+18,1.771609130859375,-0.030128538608551,0.0821247100830078,0.0918645858764648,-0.0215715859085321,-0.0101200034841895,-0.0079894764348864
1.7726372455706028e+18,1.791602783203125,-0.0143686532974243,0.0969972610473632,0.0864248275756836,-0.0234357975423336,-0.0138484258204698,-0.0074568446725606
1.7726372455905966e+18,1.8115966796875,-0.0277633070945739,0.069035530090332,0.0941152572631836,-0.0167779009789228,-0.0149136893451213,-0.0034621064551174
1.7726372456105902e+18,1.831590087890625,-0.0216537714004516,0.0650749206542968,0.0736498832702636,-0.0071905287913978,-0.0159789528697729,-0.002130527049303
1.7726372456305838e+18,1.851583740234375,-0.0052227973937988,0.0897903442382812,0.0774364471435546,-0.0055926335044205,-0.0114515833556652,-0.0037284223362803
1.7726372456505777e+18,1.87157763671875,0.0059999227523803,0.0949869155883789,0.0674414634704589,-0.0119842141866683,-0.0106526352465152,-0.0018642111681401
1.7726372456705713e+18,1.8915712890625,-0.0120891332626342,0.0715541839599609,0.0666728019714355,-0.0143810575827956,-0.0114515833556652,-0.002130527049303
1.772637245690565e+18,1.911565185546875,-0.0133168697357177,0.0820693969726562,0.041724681854248,-0.0119842141866683,-0.0117178987711668,-0.0039947382174432
1.7726372457105587e+18,1.931558837890625,0.0037609338760375,0.0971012115478515,0.0410599708557128,-0.0114515833556652,-0.0087884236127138,-0.006657897029072
1.7726372457305526e+18,1.951552490234375,-0.032084047794342,0.102447509765625,0.0117974281311035,-0.011185267008841,-0.0026631588116288,-0.0058589493855834
1.7726372457505462e+18,1.971546142578125,-0.0148198008537292,0.0657262802124023,0.0296602249145507,-0.011185267008841,0.0007989476434886,-0.0047936858609318
1.7726372457705398e+18,1.991539794921875,-0.0226785540580749,0.0618829727172851,0.0617823600769043,-0.0074568446725606,0.0,-0.0031957905739545
1.7726372457905336e+18,2.01153369140625,-0.0465163588523864,0.0824747085571289,0.1069464683532714,-0.0151800047606229,-0.0015978952869772,-0.0058589493855834
1.7726372458105272e+18,2.03152734375,-0.0413050055503845,0.0645017623901367,0.1095199584960937,-0.0167779009789228,0.0023968429304659,-0.0031957905739545
1.772637245830521e+18,2.05152099609375,-0.0441159605979919,0.051370620727539,0.1075539588928222,-0.0130494777113199,0.0007989476434886,-0.0039947382174432
1.7726372458505147e+18,2.0715146484375,-0.0327764153480529,0.0574121475219726,0.0863518714904785,-0.0125168468803167,0.0053263176232576,-0.0047936858609318
1.7726372458705083e+18,2.09150830078125,-0.0212116837501525,0.0918378829956054,0.0946507453918457,-0.0151800047606229,0.0018642111681401,-0.011185267008841
1.7726372458905021e+18,2.111502197265625,-0.0195756554603576,0.0687122344970703,0.1125655174255371,-0.0061252652667462,-0.0045273699797689,-0.0165115855634212
1.7726372459104957e+18,2.131495849609375,-0.0325926542282104,0.0644645690917968,0.0734853744506836,-0.0010652635246515,-0.0023968429304659,-0.0135821104049682
1.772637245930489e+18,2.151489013671875,-0.0214372277259826,0.0412836074829101,0.0627470016479492,-0.0074568446725606,-0.0002663158811628,-0.0114515833556652
1.7726372459504824e+18,2.171482421875,-0.0344190001487731,0.0380420684814453,0.0935750007629394,-0.011185267008841,0.0005326317623257,-0.011185267008841
1.7726372459704755e+18,2.1914755859375,-0.0383317470550537,0.0641078948974609,0.1034297943115234,-0.0106526352465152,-0.0002663158811628,-0.0098536871373653
1.7726372459904689e+18,2.21146875,-0.0314334034919738,0.0803556442260742,0.0906543731689453,-0.0109189506620168,-0.0007989476434886,-0.0069242129102349
1.772637246010462e+18,2.2314619140625,0.0035989880561828,0.0965166091918945,0.0731201171875,-0.0074568446725606,0.0026631588116288,-0.0053263176232576
1.7726372460304553e+18,2.251455322265625,-0.0306475162506103,0.1073923110961914,0.0943861007690429,-0.0071905287913978,0.0013315794058144,-0.0050600017420947
1.7726372460504484e+18,2.271448486328125,-0.0740461945533752,0.0787477493286132,0.0844078063964843,-0.0077231605537235,0.0053263176232576,-0.0101200034841895
1.7726372460704417e+18,2.291441650390625,-0.0732550621032714,0.055546760559082,0.0411648750305175,0.0013315794058144,0.0117178987711668,-0.0221042186021804
1.772637246090435e+18,2.31143505859375,-0.0573156476020813,0.0745153427124023,0.0311460494995117,0.0023968429304659,0.0205063223838806,-0.022370534017682
1.7726372461104282e+18,2.33142822265625,-0.0376707315444946,0.0988264083862304,0.06901216506958,-0.0023968429304659,0.0199736915528774,-0.020240006968379
1.7726372461304215e+18,2.35142138671875,-0.0369737148284912,0.1228504180908203,0.083404541015625,0.0074568446725606,0.0170442163944244,-0.0199736915528774
1.7726372461504146e+18,2.37141455078125,-0.0640037655830383,0.0937528610229492,0.0555973052978515,0.0135821104049682,0.0154463211074471,-0.0106526352465152
1.772637246170408e+18,2.391407958984375,-0.0712035298347473,0.0408344268798828,0.0619401931762695,0.0098536871373653,0.017310531809926,-0.0015978952869772
1.772637246190401e+18,2.411401123046875,-0.0400253534317016,0.0601634979248046,0.0717344284057617,0.002130527049303,0.0186421126127243,-0.0034621064551174
1.7726372462103944e+18,2.431394287109375,-0.0756486654281616,0.0843219757080078,0.0671424865722656,0.0,0.0162452682852745,-0.0053263176232576
1.7726372462303875e+18,2.451387451171875,-0.0444120168685913,0.0793724060058593,0.0871615409851074,0.0023968429304659,0.0138484258204698,-0.0031957905739545
1.7726372462503808e+18,2.471380859375,-0.0563063025474548,0.0652074813842773,0.0873007774353027,0.0007989476434886,0.0101200034841895,0.0026631588116288
1.7726372462703741e+18,2.4913740234375,-0.0395336747169494,0.0702619552612304,0.1016788482666015,-0.0034621064551174,0.0125168468803167,0.0042610540986061
1.7726372462903672e+18,2.5113671875,-0.0327664017677307,0.0798263549804687,0.102144718170166,-0.0063915811479091,0.0167779009789228,0.002130527049303
1.7726372463103606e+18,2.531360595703125,-0.025454044342041,0.0846691131591796,0.0546813011169433,-0.0037284223362803,0.0199736915528774,-0.0018642111681401
1.7726372463303537e+18,2.551353759765625,-0.0503190159797668,0.0560436248779296,0.0552873611450195,-0.0039947382174432,0.0229031667113304,0.0007989476434886
1.772637246350347e+18,2.571346923828125,-0.0470925569534301,0.0375890731811523,0.0977134704589843,-0.0031957905739545,0.0210389550775289,0.0018642111681401
1.77263724637034e+18,2.591340087890625,-0.0304059982299804,0.0815095901489257,0.0864648818969726,-0.0013315794058144,0.0239684283733367,-0.0031957905739545
1.7726372463903334e+18,2.61133349609375,-0.0181191563606262,0.1060705184936523,0.0762791633605957,0.002130527049303,0.0274305362254381,-0.0010652635246515
1.7726372464103265e+18,2.631326416015625,-0.0194531679153442,0.1062288284301757,0.0575451850891113,-0.0013315794058144,0.0221042186021804,0.0
1.7726372464303199e+18,2.65131982421875,0.0218815803527832,0.0823373794555664,0.0342373847961425,-0.0079894764348864,0.0197073742747306,0.0018642111681401
1.772637246450313e+18,2.67131298828125,0.0156887173652648,0.0778646469116211,0.0157690048217773,-0.0125168468803167,0.0170442163944244,-0.0013315794058144
1.772637246470306e+18,2.69130615234375,-0.0090199708938598,0.0880403518676757,0.0578556060791015,-0.0058589493855834,0.0210389550775289,-0.0085221081972122
1.7726372464902994e+18,2.71129931640625,-0.0259045958518981,0.0930471420288086,0.0866570472717285,-0.0031957905739545,0.0186421126127243,-0.0069242129102349
1.7726372465102925e+18,2.73129248046875,-0.020161747932434,0.0593061447143554,0.1112136840820312,-0.0138484258204698,0.0085221081972122,-0.0007989476434886
1.7726372465302858e+18,2.751285888671875,-0.0241328477859497,0.0455150604248046,0.1305818557739257,-0.0189084280282259,0.0047936858609318,0.002130527049303
1.772637246550279e+18,2.77127880859375,-0.0239036679267883,0.0641193389892578,0.1353464126586914,-0.0181094799190759,0.0023968429304659,0.0026631588116288
1.7726372465702723e+18,2.791272216796875,-0.038175344467163,0.0452241897583007,0.1408019065856933,-0.0242347456514835,-0.0074568446725606,0.0
1.7726372465902653e+18,2.811265380859375,-0.0243796110153198,0.0208730697631835,0.1408557891845703,-0.0258326400071382,-0.0167779009789228,-0.0005326317623257
1.7726372466102587e+18,2.8312587890625,-0.0347936153411865,0.0259017944335937,0.1120705604553222,-0.019441058859229,-0.0205063223838806,0.0055926335044205
1.7726372466302518e+18,2.851251708984375,-0.0021100640296936,0.0311803817749023,0.0911731719970703,-0.0151800047606229,-0.0199736915528774,0.0047936858609318
1.7726372466502449e+18,2.871244873046875,-0.0082089900970458,0.0508537292480468,0.0803189277648925,-0.0114515833556652,-0.0181094799190759,0.0023968429304659
1.7726372466702382e+18,2.89123828125,-0.0142512917518615,0.0610361099243164,0.1220006942749023,-0.0053263176232576,-0.0074568446725606,0.0034621064551174
1.7726372466902313e+18,2.911231201171875,-0.0016599893569946,0.0844926834106445,0.1070508956909179,-0.0002663158811628,-0.0029294746927917,0.0055926335044205
1.7726372467102246e+18,2.931224609375,-0.0085297226905822,0.0560894012451171,0.0831584930419921,0.0053263176232576,0.0018642111681401,0.0005326317623257
1.7726372467302177e+18,2.9512177734375,-0.0202534794807434,0.0557880401611328,0.0449609756469726,0.0085221081972122,0.0071905287913978,-0.0061252652667462
1.7726372467502108e+18,2.9712109375,-0.0133326053619384,0.0928497314453125,0.0409116744995117,0.0125168468803167,0.0109189506620168,-0.0074568446725606
1.7726372467702042e+18,2.9912041015625,-0.0250627994537353,0.1065835952758789,0.0327205657958984,0.013315794058144,0.0130494777113199,-0.0093210563063621
1.7726372467901972e+18,3.011197265625,-0.0217955708503723,0.1202325820922851,0.0529766082763671,0.0151800047606229,0.0135821104049682,-0.0077231605537235
1.7726372468101906e+18,3.031190673828125,-0.0095025897026062,0.0762653350830078,0.0541882514953613,0.0167779009789228,0.0101200034841895,-0.0013315794058144
1.7726372468301837e+18,3.05118359375,-0.0310018062591552,0.0848255157470703,0.0652627944946289,0.0154463211074471,0.0058589493855834,0.0002663158811628
1.772637246850177e+18,3.071177001953125,-0.0604228377342224,0.0792312622070312,0.090646743774414,0.0159789528697729,0.0063915811479091,0.0013315794058144
1.77263724687017e+18,3.091170166015625,-0.027367353439331,0.0456809997558593,0.072575569152832,0.0170442163944244,0.0031957905739545,0.0045273699797689
1.7726372468901632e+18,3.1111630859375,-0.0338172316551208,0.0496883392333984,0.1120772361755371,0.0071905287913978,-0.0042610540986061,0.0053263176232576
1.77263724693015e+18,3.15114990234375,-0.0727480053901672,0.037825584411621,0.1105704307556152,0.0037284223362803,-0.0122505305334925,0.0085221081972122
1.7726372469501435e+18,3.1711435546875,-0.0463972091674804,0.0555610656738281,0.087712287902832,0.0053263176232576,-0.0165115855634212,0.0095873717218637
1.7726372469701368e+18,3.19113671875,-0.0534996390342712,0.0511102676391601,0.0925054550170898,0.0029294746927917,-0.0122505305334925,0.0106526352465152
1.7726372469901304e+18,3.21113037109375,-0.0562010407447814,0.0697774887084961,0.0917191505432128,-0.0053263176232576,-0.0122505305334925,0.0087884236127138
1.772637247010124e+18,3.2311240234375,-0.0536021590232849,0.0699901580810546,0.0812416076660156,-0.0007989476434886,-0.0138484258204698,0.0079894764348864
1.7726372470301174e+18,3.251117431640625,-0.0412706136703491,0.0799236297607421,0.094484806060791,0.0074568446725606,-0.0154463211074471,0.0103863198310136
1.772637247050111e+18,3.271111083984375,-0.0181695818901062,0.1234817504882812,0.055241584777832,0.0098536871373653,-0.0130494777113199,0.0119842141866683
1.7726372470701046e+18,3.2911044921875,0.0066283345222473,0.0856189727783203,0.0257744789123535,0.0071905287913978,-0.0106526352465152,0.0098536871373653
1.772637247090098e+18,3.311097900390625,0.0121198296546936,0.0723323822021484,0.038179874420166,0.0095873717218637,-0.0087884236127138,0.0047936858609318
1.7726372471100915e+18,3.331091552734375,0.0404404997825622,0.1265621185302734,0.0207257270812988,0.0122505305334925,-0.0039947382174432,-0.0029294746927917
1.772637247130085e+18,3.351085205078125,-0.0026331543922424,0.118011474609375,0.0474658012390136,0.0125168468803167,-0.0045273699797689,-0.0034621064551174
1.7726372471500785e+18,3.371078369140625,-0.0027155876159667,0.0603914260864257,0.0728240013122558,0.0063915811479091,-0.002130527049303,-0.0063915811479091
1.772637247170072e+18,3.391072021484375,-0.0324400663375854,-0.0037965774536132,0.0666203498840332,-0.0002663158811628,0.0069242129102349,-0.0050600017420947
1.7726372471900657e+18,3.411065673828125,-0.0770485401153564,0.0088930130004882,0.0791616439819336,0.0,0.0077231605537235,-0.0082557927817106
1.7726372472100593e+18,3.431059326171875,-0.0727907419204711,0.0263280868530273,0.0967888832092285,0.0010652635246515,0.0042610540986061,-0.0151800047606229
1.7726372472300526e+18,3.451052490234375,-0.0413771867752075,0.0762653350830078,0.1053295135498046,-0.0026631588116288,-0.0085221081972122,-0.0162452682852745
1.7726372472500462e+18,3.471046142578125,-0.0215601325035095,0.1225814819335937,0.0932841300964355,-0.0101200034841895,-0.0159789528697729,0.0
1.7726372472700396e+18,3.49103955078125,-0.0332271456718444,0.0691967010498046,0.0558233261108398,-0.0071905287913978,-0.0237021129578351,0.0186421126127243
1.7726372472900332e+18,3.511033203125,-0.0566478967666626,0.0218791961669921,0.0366582870483398,-0.0007989476434886,-0.022370534017682,0.022370534017682
1.7726372473100268e+18,3.53102685546875,-0.0183525085449218,0.0742177963256836,0.0411162376403808,-0.0013315794058144,-0.0141147412359714,0.0189084280282259
1.77263724733002e+18,3.55102001953125,-0.0132768750190734,0.1508302688598632,0.065216064453125,0.0010652635246515,-0.0090547399595379,0.022370534017682
1.7726372473500137e+18,3.571013671875,0.0383671522140502,0.1832046508789062,0.0911965370178222,0.0141147412359714,-0.0090547399595379,0.0199736915528774
1.7726372473700073e+18,3.59100732421875,-0.001753807067871,0.1429481506347656,0.1376662254333496,0.0149136893451213,-0.0042610540986061,0.0085221081972122
1.7726372473900006e+18,3.611000732421875,-0.0512075424194335,0.0644149780273437,0.1408376693725586,0.0085221081972122,0.0045273699797689,0.0023968429304659
1.7726372474099942e+18,3.630994140625,-0.1002439260482788,-0.0231485366821289,0.0485053062438964,0.0034621064551174,0.0127831622958183,-0.0037284223362803
1.7726372474299878e+18,3.65098779296875,-0.11844003200531,-0.0018320083618164,0.0256876945495605,0.0018642111681401,0.0018642111681401,0.0055926335044205
1.7726372474499817e+18,3.670981689453125,-0.0732141137123107,0.0935544967651367,0.0686330795288086,-0.0005326317623257,-0.0178431645035743,0.019441058859229
1.7726372474699753e+18,3.690975341796875,0.0283250212669372,0.1445903778076172,0.1191420555114746,0.0010652635246515,-0.0218379013240337,0.0218379013240337
1.7726372474899692e+18,3.71096923828125,0.1315152049064636,0.1286439895629882,0.1405959129333496,0.0015978952869772,-0.0186421126127243,0.0205063223838806
1.7726372475099628e+18,3.730962646484375,0.0426719784736633,0.0568876266479492,0.1488633155822754,-0.0018642111681401,-0.0055926335044205,0.025300009176135
1.7726372475299564e+18,3.750956298828125,-0.0628710985183715,-0.06494140625,0.1112556457519531,-0.0085221081972122,0.0015978952869772,0.0418115928769111
1.7726372475499502e+18,3.7709501953125,-0.1200486421585083,-0.0908422470092773,0.0479674339294433,-0.0095873717218637,0.0050600017420947,0.0655137076973915
1.7726372475699438e+18,3.79094384765625,-0.0534031987190246,0.0396194458007812,0.0585503578186035,-0.0053263176232576,-0.0069242129102349,0.07590002566576
1.7726372475899377e+18,3.810937744140625,0.0763784646987915,0.1689252853393554,0.1341419219970703,0.0005326317623257,-0.0308926422148942,0.0620516017079353
1.7726372476099313e+18,3.83093115234375,0.0751280784606933,0.1541891098022461,0.1473913192749023,-0.0031957905739545,-0.0271642208099365,0.0420779101550579
1.772637247629925e+18,3.850925048828125,-0.0811176896095275,-0.0122509002685546,0.0909185409545898,-0.0029294746927917,-0.0090547399595379,0.0245010610669851
1.7726372476499187e+18,3.870918701171875,-0.1215941309928894,-0.061284065246582,0.0553750991821289,0.0015978952869772,0.0034621064551174,0.0255663245916366
1.7726372476899062e+18,3.91090625,-0.0059121847152709,0.1681175231933593,0.1354522705078125,0.0039947382174432,-0.0079894764348864,0.0439421199262142
1.7726372477099e+18,3.930900146484375,-0.0328444838523864,0.0648365020751953,0.1637830734252929,0.0071905287913978,-0.0380831696093082,0.0561926513910293
1.7726372477298936e+18,3.9508935546875,-0.0547284483909606,0.0437688827514648,0.1380209922790527,0.0061252652667462,-0.0500673875212669,0.049268439412117
1.7726372477498875e+18,3.970887451171875,-0.0325329899787902,0.0420913696289062,0.169534683227539,0.0023968429304659,-0.0300936941057443,0.0276968516409397
1.772637247769881e+18,3.990881103515625,-0.0577374100685119,0.045170783996582,0.1527085304260254,0.0018642111681401,-0.0143810575827956,0.0157126374542713
1.7726372478098685e+18,4.03086865234375,-0.0304412245750427,0.0039024353027343,0.1052112579345703,-0.0026631588116288,-0.0218379013240337,0.0271642208099365
1.7726372478298621e+18,4.050862060546875,0.0056921243667602,0.0509281158447265,0.1632766723632812,0.006657897029072,-0.0183757953345775,0.0335558019578456
1.772637247849856e+18,4.07085595703125,-0.0164532661437988,0.0837087631225586,0.1496529579162597,0.0103863198310136,-0.0127831622958183,0.0221042186021804
1.7726372478698496e+18,4.090849609375,-0.0478765368461608,0.0443935394287109,0.0934133529663086,0.0082557927817106,-0.0074568446725606,0.0175768472254276
1.7726372478898435e+18,4.110843505859375,-0.0404481291770935,0.0107240676879882,0.1267147064208984,0.0117178987711668,0.0045273699797689,0.017310531809926
1.7726372479298307e+18,4.15083056640625,-0.0218973159790039,0.1070985794067382,0.0430045127868652,0.0165115855634212,0.0221042186021804,0.0151800047606229
1.772637247949824e+18,4.170823974609375,-0.0112279653549194,0.1395645141601562,-0.0181069374084472,0.0215715859085321,0.0335558019578456,0.0122505305334925
1.7726372479698173e+18,4.1908173828125,-0.0005522966384887,0.1525192260742187,-0.0492234230041503,0.0348873808979988,0.0348873808979988,0.0010652635246515
1.7726372479898107e+18,4.210810791015625,0.0055551528930664,0.1221847534179687,-0.0326642990112304,0.0402136966586113,0.0431431718170642,0.0018642111681401
1.772637248009804e+18,4.230803955078125,0.0152397155761718,0.1344194412231445,-0.0343871116638183,0.043409489095211,0.0561926513910293,-0.0018642111681401
1.7726372480297974e+18,4.25079736328125,0.0075953006744384,0.1078472137451171,-0.001540184020996,0.0487358048558235,0.0665789693593978,-0.0138484258204698
1.7726372480497907e+18,4.270790771484375,-0.0384328365325927,0.1007080078125,-0.002608299255371,0.0524642281234264,0.0695084482431411,-0.0157126374542713
1.772637248069784e+18,4.2907841796875,-0.0072543621063232,0.0844259262084961,0.0243663787841796,0.0540621243417263,0.0636494979262352,-0.0063915811479091
1.7726372480897774e+18,4.31077734375,-0.0093060731887817,0.1017789840698242,0.0703897476196289,0.0468715950846672,0.0490021221339702,0.0026631588116288
1.7726372481097708e+18,4.330770751953125,-0.0217882394790649,0.0901336669921875,0.0352344512939453,0.0402136966586113,0.0367515906691551,0.0058589493855834
1.772637248129764e+18,4.35076416015625,-0.0300850868225097,0.0549163818359375,0.0615081787109375,0.0327568538486957,0.0197073742747306,0.0114515833556652
1.7726372481497574e+18,4.37075732421875,-0.0420988798141479,0.0686502456665039,0.0860862731933593,0.0282294824719429,0.0109189506620168,0.0205063223838806
1.7726372481697508e+18,4.390750732421875,-0.0378681421279907,0.092376708984375,0.0714139938354492,0.0186421126127243,0.0015978952869772,0.0226368494331836
1.772637248189744e+18,4.410744140625,-0.0018409490585327,0.0871343612670898,0.0862288475036621,0.0138484258204698,-0.0034621064551174,0.0199736915528774
1.7726372482097375e+18,4.430737548828125,-0.0423530340194702,0.0629863739013671,0.0907297134399414,0.0074568446725606,-0.0077231605537235,0.0181094799190759
1.7726372482297308e+18,4.450730712890625,-0.0637458562850952,0.0582838058471679,0.0852537155151367,0.0069242129102349,-0.0138484258204698,0.0183757953345775
1.7726372482497244e+18,4.470724365234375,-0.0511603355407714,0.0772838592529296,0.1043038368225097,0.0127831622958183,-0.0141147412359714,0.019441058859229
1.7726372482697175e+18,4.490717529296875,-0.0241395235061645,0.0719871520996093,0.0617237091064453,0.013315794058144,-0.0095873717218637,0.0101200034841895
1.772637248289711e+18,4.510711181640625,-0.01149582862854,0.0711345672607421,0.0295047760009765,0.0074568446725606,-0.0013315794058144,0.0026631588116288
1.7726372483296978e+18,4.55069775390625,-0.0273642539978027,0.1087808609008789,0.0111141204833984,0.0045273699797689,0.0,0.0029294746927917
1.7726372483496911e+18,4.570691162109375,-0.0324248075485229,0.1091022491455078,0.0344099998474121,0.0141147412359714,0.0015978952869772,0.0005326317623257
1.7726372483696845e+18,4.5906845703125,-0.0269759893417358,0.0761079788208007,0.0724825859069824,0.0181094799190759,0.0039947382174432,-0.0047936858609318
1.7726372484096712e+18,4.630671142578125,-0.0441833734512329,0.0856542587280273,0.06821870803833,0.0151800047606229,0.0061252652667462,-0.0018642111681401
1.772637248429665e+18,4.6506650390625,-0.0519146919250488,0.0521183013916015,0.0782327651977539,0.0135821104049682,0.0063915811479091,-0.0002663158811628
1.7726372484496594e+18,4.670659423828125,-0.0364034175872802,0.0569372177124023,0.0496997833251953,0.0146473739296197,0.0103863198310136,0.0047936858609318
1.7726372484696535e+18,4.690653564453125,-0.0404552221298217,0.0524654388427734,0.1067724227905273,0.0079894764348864,0.006657897029072,0.0063915811479091
1.7726372484896476e+18,4.710647705078125,-0.030173897743225,0.0769176483154296,0.1155920028686523,0.0071905287913978,0.0007989476434886,0.0013315794058144
1.7726372485096417e+18,4.730641845703125,-0.0329347848892211,0.0682249069213867,0.123995304107666,0.0034621064551174,-0.0029294746927917,-0.0013315794058144
1.7726372485296358e+18,4.7506357421875,-0.007115364074707,0.0309906005859375,0.1129522323608398,-0.0055926335044205,-0.0079894764348864,-0.0042610540986061
1.77263724854963e+18,4.7706298828125,-0.0335625410079956,0.0654544830322265,0.0972480773925781,-0.0119842141866683,-0.013315794058144,-0.0029294746927917
1.7726372485696243e+18,4.790624267578125,-0.0515831708908081,0.0704727172851562,0.0833148956298828,-0.0138484258204698,-0.0165115855634212,0.0050600017420947
1.7726372485896184e+18,4.810618408203125,-0.045480728149414,0.0467863082885742,0.1022849082946777,-0.0178431645035743,-0.0181094799190759,0.0074568446725606
1.7726372486096125e+18,4.830612548828125,-0.0488461256027221,0.0518465042114257,0.1260695457458496,-0.019441058859229,-0.0175768472254276,0.0039947382174432
1.7726372486296067e+18,4.850606689453125,-0.0426185131072998,0.0523786544799804,0.0918736457824707,-0.0125168468803167,-0.0159789528697729,0.0018642111681401
1.7726372486496008e+18,4.870600830078125,-0.0357400178909301,0.0577831268310546,0.1103749275207519,-0.0103863198310136,-0.0117178987711668,-0.0018642111681401
1.7726372486695951e+18,4.89059521484375,-0.0396469831466674,0.0677976608276367,0.0954065322875976,-0.0082557927817106,-0.0031957905739545,-0.0042610540986061
1.7726372486895892e+18,4.91058935546875,-0.0446987152099609,0.0869178771972656,0.0810503959655761,-0.0159789528697729,-0.0005326317623257,-0.0069242129102349
1.7726372487095834e+18,4.930583251953125,-0.0154640674591064,0.086496353149414,0.0388317108154296,-0.0135821104049682,-0.0029294746927917,-0.0082557927817106
1.7726372487295775e+18,4.950577392578125,0.0271087884902954,0.0959377288818359,0.029524803161621,-0.0095873717218637,-0.0029294746927917,-0.0029294746927917
1.7726372487495716e+18,4.970571533203125,0.0058884620666503,0.1009941101074218,0.0668778419494628,-0.0087884236127138,-0.0045273699797689,-0.0002663158811628
1.772637248769566e+18,4.99056591796875,-0.0617010593414306,0.0913600921630859,0.1044473648071289,-0.0069242129102349,0.0005326317623257,0.0005326317623257
1.77263724878956e+18,5.01056005859375,-0.0614466667175293,0.0526742935180664,0.0860114097595214,-0.0053263176232576,0.0058589493855834,-0.0029294746927917
1.7726372488095542e+18,5.03055419921875,-0.0094192028045654,0.0333681106567382,0.0765399932861328,-0.0093210563063621,0.0026631588116288,-0.0039947382174432
1.7726372488295483e+18,5.05054833984375,-0.0476742982864379,0.038217544555664,0.0908212661743164,-0.0063915811479091,0.0039947382174432,-0.0031957905739545
1.7726372488495424e+18,5.07054248046875,-0.0418554544448852,0.0668478012084961,0.1008539199829101,0.0010652635246515,0.0034621064551174,-0.0023968429304659
1.7726372488695365e+18,5.09053662109375,-0.013742446899414,0.0806703567504882,0.1017341613769531,0.0015978952869772,0.0023968429304659,0.002130527049303
1.772637248889531e+18,5.11053076171875,-0.0101909637451171,0.0561103820800781,0.102571964263916,-0.0050600017420947,-0.0010652635246515,0.0055926335044205
1.772637248929519e+18,5.15051904296875,-0.0463333129882812,0.0884609222412109,0.0466861724853515,0.0007989476434886,-0.0090547399595379,-0.0023968429304659
1.772637248949513e+18,5.170512939453125,-0.0379137992858886,0.1024665832519531,0.0566821098327636,0.0029294746927917,-0.0170442163944244,-0.0010652635246515
1.772637248969507e+18,5.190507080078125,-0.0017590522766113,0.0928068161010742,0.0708346366882324,-0.0061252652667462,-0.0146473739296197,0.0047936858609318
1.772637248989501e+18,5.2105009765625,-0.0131224393844604,0.0879745483398437,0.060774803161621,-0.0037284223362803,-0.0085221081972122,0.0039947382174432
1.772637249009495e+18,5.2304951171875,-0.0196722745895385,0.0971822738647461,0.0418968200683593,0.0047936858609318,0.0026631588116288,-0.0002663158811628
1.772637249029489e+18,5.250489013671875,-0.0244936943054199,0.1064157485961914,0.0233712196350097,0.0,0.0079894764348864,0.0
1.772637249049483e+18,5.27048291015625,-0.0104062557220458,0.068450927734375,0.0227704048156738,0.0023968429304659,0.0069242129102349,0.0047936858609318
1.7726372490694769e+18,5.290476806640625,-0.0011926889419555,0.0927791595458984,0.0597214698791503,0.0119842141866683,0.0085221081972122,0.0039947382174432
1.772637249089471e+18,5.310470947265625,-0.0345937013626098,0.1216077804565429,0.0738277435302734,0.0125168468803167,0.0143810575827956,0.0031957905739545
1.7726372491094648e+18,5.33046484375,-0.0433025360107421,0.1116418838500976,0.0603742599487304,0.0162452682852745,0.0122505305334925,0.0034621064551174
1.772637249129459e+18,5.350458984375,-0.0419003963470459,0.0682048797607421,0.0708746910095214,0.0117178987711668,0.0071905287913978,-0.0007989476434886
1.7726372491494528e+18,5.370452880859375,-0.0167199373245239,0.0490798950195312,0.0806722640991211,0.0162452682852745,0.0074568446725606,-0.0037284223362803
1.772637249169447e+18,5.390447021484375,0.011833906173706,0.0583534240722656,0.0915207862854003,0.0138484258204698,0.0023968429304659,-0.0005326317623257
1.7726372491894408e+18,5.410440673828125,0.0073345899581909,0.0959129333496093,0.1025986671447753,0.0063915811479091,0.0007989476434886,0.0031957905739545
1.772637249209435e+18,5.430434814453125,-0.0118951797485351,0.0859594345092773,0.0983448028564453,0.0005326317623257,0.0050600017420947,-0.0002663158811628
1.7726372492294287e+18,5.4504287109375,0.0058716535568237,0.076486587524414,0.0740032196044921,-0.0005326317623257,0.0010652635246515,-0.0053263176232576
1.7726372492494228e+18,5.4704228515625,0.004258394241333,0.0763225555419921,0.0451841354370117,0.0005326317623257,-0.0058589493855834,-0.0023968429304659
1.7726372492694167e+18,5.490416748046875,-0.0359268188476562,0.0852012634277343,0.0650796890258789,-0.0039947382174432,-0.0063915811479091,0.0029294746927917
1.7726372492894108e+18,5.510410888671875,-0.0202479362487792,0.074650764465332,0.0804395675659179,-0.0093210563063621,-0.0047936858609318,0.0079894764348864
1.7726372493094047e+18,5.53040478515625,-0.0104815959930419,0.0593824386596679,0.0811614990234375,-0.0077231605537235,0.0018642111681401,0.0023968429304659
1.7726372493293988e+18,5.550398681640625,-0.0470260381698608,0.0537786483764648,0.1009840965270996,-0.0013315794058144,0.0047936858609318,0.0015978952869772
1.7726372493493926e+18,5.570392578125,-0.040331482887268,0.0817747116088867,0.0873212814331054,-0.0010652635246515,0.0031957905739545,0.0071905287913978
1.7726372493693868e+18,5.59038671875,-0.0206340551376342,0.0668582916259765,0.0688967704772949,0.0031957905739545,0.0031957905739545,0.0069242129102349
1.7726372493893806e+18,5.610380615234375,-0.0295251607894897,0.0569267272949218,0.0877366065979003,0.0087884236127138,0.0090547399595379,-0.0013315794058144
1.7726372494293678e+18,5.650367919921875,-0.0317964553833007,0.0841903686523437,0.0983791351318359,0.0106526352465152,0.0079894764348864,-0.0029294746927917
1.7726372494493606e+18,5.670360595703125,-0.0438475608825683,0.0688734054565429,0.0468378067016601,0.0114515833556652,-0.0005326317623257,0.0026631588116288
1.7726372494693532e+18,5.690353271484375,-0.030232548713684,0.0353212356567382,0.0562672615051269,0.0218379013240337,-0.0029294746927917,0.0055926335044205
1.772637249489346e+18,5.710345947265625,-0.0212950706481933,0.0837135314941406,0.069587230682373,0.0207726396620273,-0.0015978952869772,0.0045273699797689
1.772637249509339e+18,5.7303388671875,-0.0173325538635253,0.0941925048828125,0.1012601852416992,0.0197073742747306,-0.0010652635246515,0.0039947382174432
1.7726372495293315e+18,5.75033154296875,-0.0417879819869995,0.0952033996582031,0.0657253265380859,0.0165115855634212,-0.0002663158811628,0.0039947382174432
1.7726372495493243e+18,5.77032421875,-0.0230351686477661,0.0864496231079101,0.0449204444885253,0.023169482126832,-0.0023968429304659,-0.0005326317623257
1.7726372495693169e+18,5.79031689453125,-0.0570143461227417,0.086709976196289,0.0765247344970703,0.0189084280282259,-0.0061252652667462,0.0002663158811628
1.7726372495893097e+18,5.810309814453125,-0.0901792049407959,0.0868387222290039,0.0572128295898437,0.0154463211074471,-0.0095873717218637,0.0053263176232576
1.7726372496093025e+18,5.830302490234375,-0.0365712642669677,0.0823144912719726,0.0331263542175293,0.0151800047606229,-0.0061252652667462,0.0082557927817106
1.772637249629295e+18,5.850295166015625,0.002174973487854,0.0642471313476562,0.0455579757690429,0.0071905287913978,-0.0037284223362803,0.0031957905739545
1.772637249649288e+18,5.870287841796875,-0.0369156599044799,0.0849208831787109,0.0994548797607421,0.0034621064551174,-0.0005326317623257,-0.0031957905739545
1.7726372496692808e+18,5.89028076171875,-0.0507428646087646,0.0809755325317382,0.1170315742492675,0.0061252652667462,0.0031957905739545,-0.0087884236127138
1.7726372496892733e+18,5.9102734375,-0.0319721698760986,0.0902776718139648,0.0888600349426269,0.0026631588116288,-0.0029294746927917,-0.011185267008841
1.7726372497092662e+18,5.93026611328125,-0.0536036491394043,0.0609455108642578,0.0472478866577148,0.0007989476434886,-0.0010652635246515,-0.0101200034841895
1.7726372497292588e+18,5.9502587890625,-0.0240581035614013,0.0464401245117187,0.0430426597595214,0.0037284223362803,-0.0034621064551174,-0.0077231605537235
1.7726372497492516e+18,5.97025146484375,-0.0093151330947875,0.0848112106323242,0.0909585952758789,0.0037284223362803,-0.0005326317623257,-0.0015978952869772
1.7726372497692444e+18,5.990244384765625,-0.0189344882965087,0.085000991821289,0.1199426651000976,-0.0090547399595379,-0.0045273699797689,0.0013315794058144
1.772637249789237e+18,6.010237060546875,-0.028217077255249,0.0561456680297851,0.07230806350708,-0.0109189506620168,-0.0069242129102349,-0.0039947382174432
1.7726372498092298e+18,6.030229736328125,-0.0040786266326904,0.0655488967895507,0.0487294197082519,-0.0023968429304659,-0.0087884236127138,-0.0151800047606229
1.7726372498292227e+18,6.05022265625,-0.02302086353302,0.0989112854003906,0.058690071105957,-0.0018642111681401,-0.0087884236127138,-0.0130494777113199
1.7726372498492152e+18,6.07021533203125,-0.012892723083496,0.0989723205566406,0.0203795433044433,-0.0013315794058144,-0.0042610540986061,-0.0013315794058144
1.772637249869208e+18,6.0902080078125,0.021230936050415,0.0997209548950195,-0.0048294067382812,-0.0047936858609318,0.0023968429304659,0.0079894764348864
1.772637249889201e+18,6.110200927734375,0.0119922161102294,0.0915021896362304,0.0502071380615234,-0.0050600017420947,0.0015978952869772,0.0013315794058144
1.7726372499091935e+18,6.130193359375,0.0215197801589965,0.1115884780883789,0.086803913116455,0.0031957905739545,0.0045273699797689,-0.0010652635246515
1.7726372499291866e+18,6.1501865234375,-0.003171682357788,0.0975074768066406,0.0812897682189941,0.0031957905739545,0.0087884236127138,-0.0013315794058144
1.7726372499491796e+18,6.1701796875,-0.0129214525222778,0.0786371231079101,0.0663290023803711,0.0047936858609318,0.013315794058144,0.0010652635246515
1.772637249969173e+18,6.190173095703125,-0.0077399015426635,0.0889797210693359,0.0320672988891601,0.0079894764348864,0.0149136893451213,0.0002663158811628
1.772637249989166e+18,6.210166015625,0.0119746923446655,0.0802192687988281,0.0546226501464843,0.0061252652667462,0.0159789528697729,-0.0007989476434886
1.7726372500091594e+18,6.230159423828125,-0.0258892774581909,0.0669918060302734,0.0957174301147461,0.0031957905739545,0.0135821104049682,-0.0047936858609318
1.7726372500291525e+18,6.250152587890625,-0.0485159158706665,0.0821971893310546,0.0560107231140136,0.0013315794058144,0.006657897029072,-0.0135821104049682
1.7726372500491459e+18,6.270145751953125,-0.0058653354644775,0.0828800201416015,0.0547666549682617,0.0005326317623257,0.0053263176232576,-0.0125168468803167
1.772637250069139e+18,6.290138916015625,-0.00507652759552,0.0834207534790039,0.073707103729248,0.0042610540986061,0.0023968429304659,-0.0074568446725606
1.7726372500891323e+18,6.31013232421875,-0.0188658237457275,0.0838918685913086,0.0729680061340332,0.0029294746927917,0.0007989476434886,-0.002130527049303
1.7726372501091254e+18,6.33012548828125,-0.0468015670776367,0.0749931335449218,0.0813174247741699,-0.0013315794058144,-0.0005326317623257,-0.0053263176232576
1.7726372501291187e+18,6.35011865234375,-0.018194556236267,0.0997314453125,0.0703825950622558,-0.0015978952869772,0.0002663158811628,-0.0077231605537235
1.7726372501491118e+18,6.37011181640625,-0.0357544422149658,0.0666007995605468,0.0939640998840332,-0.0023968429304659,0.0029294746927917,-0.0114515833556652
1.7726372501691052e+18,6.390105224609375,-0.0246967077255249,0.0525856018066406,0.0972442626953125,-0.0031957905739545,0.0010652635246515,-0.0090547399595379
1.7726372501890982e+18,6.41009814453125,-0.0333092212677001,0.0483655929565429,0.0676612854003906,-0.0018642111681401,0.0002663158811628,-0.0074568446725606
1.7726372502090916e+18,6.430091552734375,-0.0749506950378418,0.0775041580200195,0.0719242095947265,-0.0034621064551174,-0.0015978952869772,-0.0063915811479091
1.7726372502290847e+18,6.450084716796875,-0.0641584396362304,0.0680065155029296,0.1097855567932128,-0.006657897029072,-0.0029294746927917,-0.0031957905739545
1.772637250249078e+18,6.470078125,-0.0347115993499755,0.0491132736206054,0.1094484329223632,-0.002130527049303,-0.0010652635246515,-0.0047936858609318
1.772637250269071e+18,6.490071044921875,-0.0290471315383911,0.049788475036621,0.0941634178161621,-0.0007989476434886,0.0013315794058144,-0.0085221081972122
1.7726372502890644e+18,6.510064453125,-0.0177332162857055,0.0742988586425781,0.0695834159851074,-0.0018642111681401,0.0069242129102349,-0.0053263176232576
1.7726372503090575e+18,6.5300576171875,-0.0168076753616333,0.0840330123901367,0.0647253990173339,-0.0082557927817106,0.0031957905739545,-0.0013315794058144
1.772637250329051e+18,6.55005078125,-0.0396759510040283,0.0840892791748046,0.0455718040466308,-0.0045273699797689,0.0031957905739545,-0.0029294746927917
1.772637250349044e+18,6.5700439453125,-0.03401780128479,0.0797376632690429,0.0593314170837402,-0.0018642111681401,0.0034621064551174,-0.0045273699797689
1.7726372503690373e+18,6.590037353515625,-0.018330693244934,0.0996742248535156,0.0739073753356933,-0.0029294746927917,0.0077231605537235,-0.0010652635246515
1.7726372503890304e+18,6.610030517578125,-0.0113656520843505,0.0815000534057617,0.0773553848266601,-0.0007989476434886,0.0082557927817106,-0.0005326317623257
1.7726372504090235e+18,6.6300234375,-0.0184017419815063,0.0726089477539062,0.0814599990844726,0.0023968429304659,0.0143810575827956,-0.0047936858609318
1.7726372504290166e+18,6.6500166015625,0.0078123807907104,0.0681829452514648,0.0819067955017089,-0.0007989476434886,0.0165115855634212,-0.006657897029072
1.7726372504490097e+18,6.670009765625,0.0236196517944335,0.072885513305664,0.0632472038269043,0.0005326317623257,0.0178431645035743,-0.0039947382174432
1.7726372504690028e+18,6.690002685546875,-0.0129462480545043,0.0732593536376953,0.0533809661865234,0.006657897029072,0.0159789528697729,-0.0023968429304659
1.7726372504889958e+18,6.709995849609375,-0.0155315399169921,0.0880050659179687,0.0338978767395019,0.0018642111681401,0.0106526352465152,-0.0023968429304659
1.772637250508989e+18,6.729989013671875,-0.0148473978042602,0.0743846893310546,0.0805583000183105,-0.0026631588116288,0.0101200034841895,-0.0055926335044205
1.772637250528982e+18,6.74998193359375,-0.0618548393249511,0.0754899978637695,0.0930652618408203,-0.0074568446725606,0.0085221081972122,-0.0087884236127138
1.772637250548975e+18,6.76997509765625,-0.0181145668029785,0.0907249450683593,0.0820116996765136,-0.0098536871373653,0.0071905287913978,-0.0061252652667462
1.7726372505689682e+18,6.78996826171875,0.0188803672790527,0.0621566772460937,0.0904898643493652,-0.0130494777113199,0.0053263176232576,-0.0029294746927917
1.772637250588961e+18,6.8099609375,-0.0017551183700561,0.0809335708618164,0.1100320816040039,-0.0079894764348864,0.0039947382174432,0.0018642111681401
1.772637250608954e+18,6.8299541015625,-0.0272647142410278,0.0801916122436523,0.0677981376647949,-0.0082557927817106,0.0018642111681401,0.0005326317623257
1.7726372506289472e+18,6.849947265625,-0.0336699485778808,0.0749483108520507,0.0155668258666992,-0.0141147412359714,-0.0058589493855834,-0.0005326317623257
1.7726372506689334e+18,6.889933349609375,-0.0195939540863037,0.0417337417602539,0.0755844116210937,-0.0087884236127138,-0.0127831622958183,-0.0087884236127138
1.7726372507089196e+18,6.92991943359375,-0.0239349603652954,0.0805635452270507,0.1023516654968261,-0.0106526352465152,-0.0063915811479091,-0.0090547399595379
1.7726372507289126e+18,6.94991259765625,-0.0397087335586547,0.0803594589233398,0.0878858566284179,-0.0002663158811628,-0.0015978952869772,-0.0039947382174432
1.7726372507489055e+18,6.969905517578125,-0.0324673652648925,0.0607576370239257,0.0881485939025878,0.0034621064551174,-0.006657897029072,0.0
1.7726372507688986e+18,6.989898681640625,-0.0628925561904907,0.0558137893676757,0.0928263664245605,0.0069242129102349,-0.0071905287913978,0.0061252652667462
1.7726372507888916e+18,7.0098916015625,-0.0498450994491577,0.0747022628784179,0.1026077270507812,0.0071905287913978,-0.0071905287913978,0.0061252652667462
1.7726372508088847e+18,7.029884765625,-0.0419448614120483,0.0651626586914062,0.0973343849182128,0.0039947382174432,-0.0125168468803167,0.0007989476434886
1.7726372508288778e+18,7.0498779296875,-0.0433481931686401,0.0511636734008789,0.0867090225219726,0.0063915811479091,-0.0130494777113199,-0.0029294746927917
1.772637250848871e+18,7.069870849609375,-0.0298117399215698,0.0753154754638671,0.0719084739685058,0.0058589493855834,-0.0125168468803167,-0.0053263176232576
1.772637250868864e+18,7.089864013671875,-0.0111342668533325,0.0753660202026367,0.066906452178955,0.0079894764348864,-0.0106526352465152,-0.0034621064551174
1.772637250888857e+18,7.109857177734375,-0.0166503190994262,0.0757560729980468,0.0755829811096191,0.0087884236127138,-0.0053263176232576,-0.0018642111681401
1.77263725090885e+18,7.129849853515625,-0.0168133974075317,0.0855474472045898,0.055983543395996,0.0109189506620168,-0.0042610540986061,0.0018642111681401
1.7726372509288433e+18,7.14984326171875,-0.0122283697128295,0.0952739715576171,0.0508699417114257,0.0119842141866683,-0.0005326317623257,0.0013315794058144
1.7726372509488369e+18,7.1698369140625,-0.021956443786621,0.0999975204467773,0.0365896224975585,0.0069242129102349,-0.0039947382174432,0.0010652635246515
1.7726372509688302e+18,7.189830322265625,-0.0348721742630004,0.0761060714721679,0.0511956214904785,0.0074568446725606,-0.0026631588116288,0.0010652635246515
1.7726372509888238e+18,7.20982373046875,-0.0135244131088256,0.0809917449951171,0.0563335418701171,0.0090547399595379,-0.0010652635246515,-0.0047936858609318
1.7726372510088174e+18,7.2298173828125,-0.0170540809631347,0.0717058181762695,0.0848231315612793,0.0074568446725606,0.0034621064551174,-0.0042610540986061
1.7726372510288108e+18,7.249810791015625,-0.0068038702011108,0.067265510559082,0.0699572563171386,0.0042610540986061,0.0074568446725606,-0.0018642111681401
1.7726372510488044e+18,7.269804443359375,-0.0337532758712768,0.0578508377075195,0.0507621765136718,0.0071905287913978,0.0042610540986061,-0.0034621064551174
1.772637251068798e+18,7.2897978515625,-0.0098271369934082,0.0483045578002929,0.0795783996582031,0.0055926335044205,0.0058589493855834,-0.0050600017420947
1.7726372510887913e+18,7.309791259765625,-0.0327597856521606,0.0816049575805664,0.0753359794616699,0.0023968429304659,0.002130527049303,-0.0023968429304659
1.772637251108785e+18,7.329784912109375,-0.0139597654342651,0.0812969207763671,0.0759706497192382,0.0029294746927917,0.0039947382174432,-0.0005326317623257
1.7726372511287782e+18,7.3497783203125,-0.0317038297653198,0.1001834869384765,0.0671029090881347,0.0007989476434886,0.0058589493855834,-0.0002663158811628
1.7726372511487718e+18,7.369771728515625,-0.0030165910720825,0.0907773971557617,0.0716958045959472,-0.0069242129102349,0.0109189506620168,0.0007989476434886
1.7726372511687654e+18,7.389765380859375,-0.0115085840225219,0.0956611633300781,0.033452033996582,-0.0061252652667462,0.0074568446725606,0.0005326317623257
1.7726372511887588e+18,7.4097587890625,0.0130660533905029,0.0957660675048828,0.0381941795349121,-0.0023968429304659,0.0047936858609318,-0.0026631588116288
1.7726372512087524e+18,7.42975244140625,0.008715271949768,0.1145868301391601,0.000615119934082,-0.0026631588116288,0.0074568446725606,0.0007989476434886
1.7726372512287457e+18,7.449745849609375,-0.0004280805587768,0.0852651596069336,0.011385440826416,0.0061252652667462,0.0141147412359714,-0.0005326317623257
1.7726372512487393e+18,7.4697392578125,-0.0140167474746704,0.0846176147460937,0.051116943359375,0.006657897029072,0.0165115855634212,0.0023968429304659
1.772637251268733e+18,7.48973291015625,0.0003834962844848,0.0983457565307617,0.0667042732238769,0.0055926335044205,0.0146473739296197,0.0018642111681401
1.7726372512887263e+18,7.509726318359375,-0.0091317892074584,0.0739088058471679,0.0580434799194335,0.0029294746927917,0.0157126374542713,0.0002663158811628
1.7726372513087199e+18,7.529719970703125,-0.0371289253234863,0.0492610931396484,0.0689654350280761,0.0053263176232576,0.0178431645035743,-0.0026631588116288
1.7726372513287132e+18,7.549713134765625,-0.0322712659835815,0.0345516204833984,0.0791926383972168,0.0026631588116288,0.0149136893451213,-0.0018642111681401
1.7726372513487068e+18,7.569706787109375,-0.0601124763488769,0.0443897247314453,0.146003246307373,0.0015978952869772,0.0095873717218637,-0.0005326317623257
1.7726372513687002e+18,7.5897001953125,-0.0218638181686401,0.0683660507202148,0.1173367500305175,-0.0013315794058144,0.0023968429304659,0.0061252652667462
1.7726372513886938e+18,7.60969384765625,-0.0302703380584716,0.0727243423461914,0.0949306488037109,-0.0074568446725606,-0.0061252652667462,0.0079894764348864
1.7726372514086874e+18,7.629687255859375,-0.0400393009185791,0.0770320892333984,0.1053748130798339,-0.0095873717218637,-0.0141147412359714,0.0098536871373653
1.772637251428681e+18,7.649680908203125,-0.0491487979888916,0.0624246597290039,0.0771803855895996,-0.0095873717218637,-0.0181094799190759,0.0095873717218637
1.7726372514486746e+18,7.669674560546875,-0.02472984790802,0.0433177947998046,0.0771851539611816,-0.0127831622958183,-0.0218379013240337,0.0093210563063621
1.7726372514686684e+18,7.68966845703125,-0.0433651208877563,0.0718259811401367,0.0681715011596679,-0.0103863198310136,-0.0189084280282259,0.0087884236127138
1.7726372514886623e+18,7.709662353515625,-0.0224382877349853,0.085728645324707,0.0742640495300293,-0.0090547399595379,-0.0130494777113199,0.0037284223362803
1.7726372515086559e+18,7.72965576171875,-0.0110952854156494,0.099924087524414,0.0799436569213867,-0.0095873717218637,-0.0095873717218637,0.0002663158811628
1.7726372515286497e+18,7.749649658203125,-0.0367238521575927,0.099893569946289,0.0805940628051757,-0.0037284223362803,-0.0026631588116288,0.0050600017420947
1.7726372515486433e+18,7.769643310546875,-0.0210609436035156,0.0711870193481445,0.0760331153869628,0.0,0.0015978952869772,0.0055926335044205
1.772637251568637e+18,7.789636962890625,-0.0292916297912597,0.0707540512084961,0.0723714828491211,0.002130527049303,0.0042610540986061,0.0039947382174432
1.7726372515886308e+18,7.809630859375,-0.0551880598068237,0.0611896514892578,0.053842544555664,-0.0002663158811628,0.0061252652667462,0.0015978952869772
1.7726372516086246e+18,7.829624755859375,-0.0054664611816406,0.0956172943115234,0.0814828872680664,0.0010652635246515,0.0050600017420947,0.0005326317623257
1.7726372516286182e+18,7.8496181640625,0.0098623037338256,0.0918350219726562,0.0798201560974121,-0.0026631588116288,0.006657897029072,0.0050600017420947
1.772637251648612e+18,7.869612060546875,-0.0256918668746948,0.0879030227661132,0.0451798439025878,-0.0106526352465152,0.0037284223362803,0.006657897029072
1.7726372516686057e+18,7.889605712890625,-0.026907205581665,0.0888509750366211,0.03464937210083,-0.0130494777113199,0.0037284223362803,0.0047936858609318
1.7726372516885996e+18,7.909599609375,-0.0273274183273315,0.0945196151733398,0.0292296409606933,-0.0077231605537235,0.0050600017420947,0.002130527049303
1.7726372517085932e+18,7.92959326171875,0.0004948377609252,0.0903186798095703,0.0625500679016113,-0.0055926335044205,0.0031957905739545,0.0031957905739545
1.772637251728587e+18,7.9495869140625,0.0028132200241088,0.052734375,0.0473194122314453,-0.0103863198310136,0.0002663158811628,0.0069242129102349
1.7726372517485806e+18,7.96958056640625,-0.0044894218444824,0.0687599182128906,0.0255765914916992,-0.0157126374542713,0.0034621064551174,0.0
1.7726372517685745e+18,7.989574462890625,-0.0392497777938842,0.0942850112915039,0.0569806098937988,-0.0087884236127138,0.0005326317623257,-0.0103863198310136
1.772637251788568e+18,8.009568115234375,-0.0311177968978881,0.0907268524169921,0.079383373260498,-0.0087884236127138,-0.0018642111681401,-0.0077231605537235
1.772637251808562e+18,8.02956201171875,-0.0139054059982299,0.0962400436401367,0.0643024444580078,-0.0159789528697729,0.0023968429304659,-0.0055926335044205
1.7726372518485494e+18,8.06954931640625,0.0049382448196411,0.0498056411743164,0.0523629188537597,-0.019441058859229,0.006657897029072,-0.0061252652667462
1.772637251868543e+18,8.08954296875,0.0443896055221557,0.0605649948120117,0.0553326606750488,-0.020240006968379,0.0095873717218637,-0.0037284223362803
1.7726372518885368e+18,8.109536865234375,0.0402272939682006,0.1047229766845703,0.0726795196533203,-0.0162452682852745,0.0042610540986061,-0.002130527049303
1.7726372519085304e+18,8.129530517578125,0.0258796215057373,0.1103677749633789,0.0661487579345703,-0.011185267008841,0.0018642111681401,-0.0109189506620168
1.7726372519285243e+18,8.149524169921875,0.0250656604766845,0.0777435302734375,0.0402917861938476,-0.0165115855634212,0.0015978952869772,-0.0141147412359714
1.7726372519485184e+18,8.169518310546875,0.0243382453918457,0.0499677658081054,0.0239210128784179,-0.0191747434437274,0.0013315794058144,-0.0109189506620168
1.7726372519685123e+18,8.18951220703125,-0.0106472969055175,0.0748195648193359,0.0464553833007812,-0.0178431645035743,0.0010652635246515,-0.006657897029072
1.772637251988506e+18,8.209506103515626,-0.0212770700454711,0.0900077819824218,0.0542588233947753,-0.0149136893451213,-0.0018642111681401,-0.0018642111681401
1.7726372520085e+18,8.2295,-0.0081135034561157,0.085550308227539,0.0629348754882812,-0.0103863198310136,0.0039947382174432,-0.0050600017420947
1.772637252028494e+18,8.249494140625,-0.009967565536499,0.0714521408081054,0.0571999549865722,-0.0085221081972122,0.0090547399595379,-0.0106526352465152
1.772637252048488e+18,8.269488037109374,0.0068771839141845,0.0763435363769531,0.0564799308776855,-0.0045273699797689,0.006657897029072,-0.0109189506620168
1.7726372520684818e+18,8.289481689453124,-0.0341430902481079,0.0715017318725586,0.0697283744812011,0.0026631588116288,0.0050600017420947,-0.011185267008841
1.7726372520884756e+18,8.3094755859375,-0.0268357992172241,0.0857019424438476,0.0695323944091796,0.0074568446725606,0.0063915811479091,-0.0106526352465152
1.7726372521284636e+18,8.349463623046875,-0.0176756381988525,0.0660266876220703,0.0597119331359863,0.0079894764348864,0.0063915811479091,-0.0127831622958183
1.7726372521484575e+18,8.36945751953125,-0.0241705179214477,0.0852184295654296,0.0263247489929199,0.0093210563063621,0.0090547399595379,-0.0119842141866683
1.7726372521684513e+18,8.389451416015625,-0.0165935754776,0.1043958663940429,0.0300264358520507,0.0141147412359714,0.011185267008841,-0.0130494777113199
1.7726372521884452e+18,8.409445068359375,-0.0226398706436157,0.0754871368408203,0.0587873458862304,0.0127831622958183,0.013315794058144,-0.0093210563063621
1.7726372522084393e+18,8.429439208984375,-0.0188225507736206,0.0898046493530273,0.0490860939025878,0.0146473739296197,0.0103863198310136,-0.0061252652667462
1.7726372522284332e+18,8.44943310546875,-0.0197528600692749,0.099522590637207,0.0725660324096679,0.0149136893451213,0.006657897029072,-0.0050600017420947
1.772637252248427e+18,8.469427001953125,-0.0301849842071533,0.0710620880126953,0.0862007141113281,0.017310531809926,0.0039947382174432,-0.0039947382174432
1.7726372522684209e+18,8.4894208984375,-0.0645221471786499,0.08062744140625,0.0620875358581543,0.0175768472254276,0.0045273699797689,-0.0026631588116288
1.772637252288415e+18,8.5094150390625,-0.0645875930786132,0.080545425415039,0.0813918113708496,0.0146473739296197,0.002130527049303,0.0005326317623257
1.7726372523084088e+18,8.529408935546876,-0.0456061363220214,0.0756607055664062,0.0623598098754882,0.0151800047606229,-0.0002663158811628,0.0002663158811628
1.7726372523284027e+18,8.549402587890626,-0.0554313659667968,0.0468940734863281,0.0527663230895996,0.0119842141866683,-0.0031957905739545,-0.0023968429304659
1.7726372523483965e+18,8.569396484375,-0.0274041891098022,0.0420742034912109,0.067021369934082,0.0103863198310136,0.0023968429304659,-0.0039947382174432
1.7726372523683907e+18,8.589390625,-0.0333898067474365,0.0752897262573242,0.1008863449096679,0.0127831622958183,0.0034621064551174,-0.0010652635246515
1.7726372523883845e+18,8.609384521484374,-0.0236196517944335,0.0944042205810546,0.0866494178771972,0.0063915811479091,0.0002663158811628,0.0
1.7726372524083784e+18,8.62937841796875,-0.0225992202758789,0.0944156646728515,0.0724983215332031,0.0063915811479091,0.0026631588116288,-0.002130527049303
1.7726372524283722e+18,8.649372314453124,0.0065492391586303,0.0896368026733398,0.0822906494140625,0.0050600017420947,-0.0010652635246515,-0.0034621064551174
1.772637252448366e+18,8.669365966796875,-0.0210853815078735,0.0705451965332031,0.0870628356933593,0.0042610540986061,-0.0018642111681401,-0.0018642111681401
1.7726372524683597e+18,8.689359619140625,-0.0250916481018066,0.0518178939819335,0.0726480484008789,0.0010652635246515,-0.0042610540986061,0.0013315794058144
1.7726372524883535e+18,8.709353515625,-0.0196908712387084,0.0854997634887695,0.0773043632507324,-0.0002663158811628,-0.0013315794058144,0.0015978952869772
1.772637252528341e+18,8.749341064453125,-0.0302538871765136,0.051701545715332,0.0871520042419433,0.0029294746927917,0.0,0.0002663158811628
1.7726372525483348e+18,8.7693349609375,-0.0203363895416259,0.0471858978271484,0.0675487518310546,0.0013315794058144,-0.0002663158811628,-0.0005326317623257
1.7726372525683287e+18,8.78932861328125,-0.0014976263046264,0.0714063644409179,0.0855355262756347,0.0082557927817106,0.0007989476434886,0.0015978952869772
1.7726372525883226e+18,8.809322509765625,0.0060780048370361,0.0766801834106445,0.0986671447753906,0.0039947382174432,0.0029294746927917,0.0013315794058144
1.7726372526083164e+18,8.82931640625,-0.0431711673736572,0.0911855697631836,0.0692133903503418,-0.0010652635246515,0.0042610540986061,0.0010652635246515
1.77263725262831e+18,8.84931005859375,-0.0442194938659668,0.1005401611328125,0.0454416275024414,-0.0045273699797689,-0.0005326317623257,0.0010652635246515
1.7726372526483039e+18,8.869303955078125,-0.0488063097000122,0.0857429504394531,0.0510845184326171,-0.0047936858609318,-0.0018642111681401,-0.0013315794058144
1.7726372526682977e+18,8.889297607421875,0.0035783052444458,0.0520448684692382,0.0418734550476074,-0.0074568446725606,-0.0047936858609318,-0.002130527049303
1.7726372526882916e+18,8.90929150390625,-0.0055246353149414,0.066720962524414,0.07481050491333,-0.0061252652667462,-0.011185267008841,0.0034621064551174
1.7726372527082852e+18,8.92928515625,-0.0197583436965942,0.0862865447998046,0.0836644172668457,-0.0018642111681401,-0.0117178987711668,0.0037284223362803
1.772637252728279e+18,8.949279052734376,-0.0147615671157836,0.0815744400024414,0.0787749290466308,-0.0047936858609318,-0.0101200034841895,-0.0002663158811628
1.772637252748273e+18,8.96927294921875,-0.0004138946533203,0.0861177444458007,0.0602083206176757,-0.0077231605537235,-0.0106526352465152,-0.0007989476434886
1.7726372527682668e+18,8.989266845703124,-0.0378234386444091,0.0809001922607421,0.0377392768859863,-0.0023968429304659,-0.0138484258204698,-0.0031957905739545
1.7726372527882604e+18,9.00926025390625,-0.0366475582122802,0.085453987121582,0.0336694717407226,0.0034621064551174,-0.0143810575827956,-0.0042610540986061
1.7726372528082542e+18,9.029254150390624,-0.0019092559814453,0.0761165618896484,0.0574421882629394,0.0031957905739545,-0.0114515833556652,0.0005326317623257
1.772637252828248e+18,9.049248046875,-0.0107403993606567,0.0716161727905273,0.042696475982666,-0.002130527049303,-0.0098536871373653,0.0047936858609318
1.772637252848242e+18,9.069241943359376,0.0036259889602661,0.0910491943359375,0.0758647918701171,-0.0050600017420947,-0.0058589493855834,0.0050600017420947
1.7726372528882294e+18,9.1092294921875,-0.0184687376022338,0.1002235412597656,0.0433936119079589,-0.0018642111681401,-0.0034621064551174,-0.0007989476434886
1.7726372529082232e+18,9.12922314453125,-0.0180665254592895,0.0518159866333007,0.0060958862304687,0.0005326317623257,0.0031957905739545,-0.0031957905739545
1.7726372529282166e+18,9.149216552734377,-0.0074554681777954,0.037611961364746,0.0347652435302734,0.0018642111681401,0.0042610540986061,-0.0037284223362803
1.7726372529482094e+18,9.16920947265625,0.0033093690872192,0.0906343460083007,0.0631780624389648,0.0013315794058144,0.0069242129102349,0.0013315794058144
1.7726372529682025e+18,9.189202392578125,-0.0102530717849731,0.0955419540405273,0.0865025520324707,0.0015978952869772,0.0077231605537235,0.0042610540986061
1.7726372529881956e+18,9.209195556640625,-0.014552354812622,0.0524606704711914,0.1009173393249511,0.0010652635246515,0.0085221081972122,0.0034621064551174
1.7726372530081887e+18,9.229188720703124,0.0085644721984863,0.0474634170532226,0.0868797302246093,-0.0029294746927917,0.0079894764348864,0.0002663158811628
1.7726372530281815e+18,9.249181396484374,0.008737564086914,0.0712909698486328,0.0919508934020996,-0.0023968429304659,0.0077231605537235,-0.002130527049303
1.7726372530481746e+18,9.269174560546874,-0.0088883638381958,0.0760402679443359,0.0874552726745605,-0.0010652635246515,0.0042610540986061,-0.0029294746927917
1.7726372530681677e+18,9.289167724609374,0.0009269714355468,0.0756559371948242,0.0786552429199218,-0.002130527049303,0.0055926335044205,-0.0007989476434886
1.7726372530881608e+18,9.309160888671874,-0.0138096809387207,0.0559139251708984,0.07487154006958,-0.0013315794058144,0.0034621064551174,0.0031957905739545
1.7726372531281467e+18,9.349146728515626,-0.0247441530227661,0.065155029296875,0.0799942016601562,0.0,0.0042610540986061,0.0053263176232576
1.7726372531481398e+18,9.369139892578126,-0.0400658845901489,0.0698890686035156,0.0702977180480957,-0.0034621064551174,0.0015978952869772,0.0026631588116288
1.7726372531681329e+18,9.3891328125,-0.0354896783828735,0.0653238296508789,0.0704197883605957,-0.0061252652667462,0.0018642111681401,-0.0015978952869772
1.7726372531881257e+18,9.409125732421876,-0.0262479782104492,0.0801210403442382,0.0599603652954101,-0.0047936858609318,0.0018642111681401,-0.0013315794058144
1.7726372532081188e+18,9.429118896484376,-0.0266807079315185,0.0994930267333984,0.0738377571105957,-0.0042610540986061,0.0002663158811628,0.0
1.772637253228112e+18,9.44911181640625,-0.0079355239868164,0.0805902481079101,0.0972013473510742,0.0007989476434886,0.0042610540986061,0.0023968429304659
1.772637253248105e+18,9.46910498046875,-0.017581820487976,0.0806903839111328,0.0730438232421875,0.0037284223362803,0.0045273699797689,0.0015978952869772
1.7726372532680978e+18,9.489097900390624,-0.022765040397644,0.0708122253417968,0.0495553016662597,-0.0015978952869772,0.0045273699797689,0.0013315794058144
1.772637253288091e+18,9.5090908203125,-0.0281840562820434,0.0703916549682617,0.0645756721496582,-0.0023968429304659,0.0042610540986061,0.0023968429304659
1.772637253308084e+18,9.529083984375,-0.0240607261657714,0.0655803680419921,0.0884156227111816,0.0026631588116288,0.002130527049303,0.0069242129102349
1.772637253328077e+18,9.5490771484375,-0.0199013948440551,0.0609340667724609,0.0832037925720214,0.0018642111681401,-0.0007989476434886,0.0053263176232576
1.77263725334807e+18,9.56906982421875,-0.034894585609436,0.0704069137573242,0.0688910484313964,0.002130527049303,-0.0023968429304659,0.0013315794058144
1.772637253368063e+18,9.58906298828125,-0.0164446830749511,0.0650262832641601,0.0931982994079589,0.0055926335044205,-0.0013315794058144,-0.0010652635246515
1.772637253388056e+18,9.60905615234375,-0.0318830013275146,0.0453176498413085,0.08439302444458,0.0047936858609318,0.0026631588116288,-0.0005326317623257
1.7726372534080492e+18,9.629049072265625,0.0090317726135253,0.0690689086914062,0.0844054222106933,0.0013315794058144,0.0007989476434886,-0.0045273699797689
1.7726372534280428e+18,9.649042724609377,-0.0301144123077392,0.0883312225341796,0.0743026733398437,0.0031957905739545,0.0,-0.0031957905739545
1.7726372534480366e+18,9.66903662109375,-0.0213931798934936,0.0600318908691406,0.0493021011352539,-0.0002663158811628,-0.0015978952869772,-0.0023968429304659
1.7726372534680305e+18,9.689030517578123,-0.0176278352737426,0.0796079635620117,0.0770301818847656,-0.0029294746927917,-0.0069242129102349,0.0026631588116288
1.7726372534880243e+18,9.7090244140625,-0.0234396457672119,0.070098876953125,0.0526938438415527,-0.0018642111681401,-0.0093210563063621,0.0050600017420947
1.7726372535080182e+18,9.72901806640625,-0.0146243572235107,0.0697364807128906,0.0627846717834472,0.0013315794058144,-0.006657897029072,0.0029294746927917
1.772637253528012e+18,9.749011962890624,-0.0107684135437011,0.0600662231445312,0.0579395294189453,0.0018642111681401,-0.0034621064551174,-0.0013315794058144
1.772637253548006e+18,9.769005859375,-0.049662709236145,0.0844812393188476,0.0425629615783691,0.0010652635246515,-0.0047936858609318,-0.0005326317623257
1.7726372535679997e+18,9.788999755859376,-0.0347201824188232,0.0803642272949218,0.0414233207702636,0.0018642111681401,-0.0034621064551174,0.0045273699797689
1.7726372535879936e+18,9.80899365234375,-0.0347295999526977,0.0903577804565429,0.0741791725158691,0.006657897029072,0.0018642111681401,0.0063915811479091
1.7726372536079875e+18,9.828987548828126,-0.0482155084609985,0.1050434112548828,0.0881681442260742,0.0082557927817106,0.0029294746927917,0.002130527049303
1.7726372536279816e+18,9.848981689453124,-0.0096907615661621,0.0675811767578125,0.1153249740600586,0.0130494777113199,0.0050600017420947,-0.0013315794058144
1.7726372536479754e+18,9.868975341796874,-0.019639253616333,0.0685300827026367,0.0990691184997558,0.0069242129102349,0.0015978952869772,-0.0045273699797689
1.7726372536679693e+18,9.88896923828125,-0.0140857696533203,0.0786151885986328,0.0695466995239257,0.0082557927817106,0.0050600017420947,-0.006657897029072
1.7726372536879631e+18,9.908963134765624,-0.0317943096160888,0.0832805633544921,0.0126380920410156,0.0077231605537235,0.0034621064551174,-0.0047936858609318
1.772637253707957e+18,9.92895703125,0.0034770965576171,0.0834932327270507,0.0319457054138183,0.0085221081972122,0.0055926335044205,0.0002663158811628
1.7726372537279508e+18,9.948950927734376,0.0056142807006835,0.0887794494628906,0.0650477409362793,0.0074568446725606,0.0058589493855834,0.0018642111681401
1.7726372537479447e+18,9.96894482421875,-0.0063599348068237,0.0942516326904296,0.0833411216735839,0.006657897029072,0.0010652635246515,-0.0029294746927917
1.7726372537679386e+18,9.9889384765625,-0.0237046480178833,0.0851516723632812,0.0636882781982421,0.0015978952869772,0.0034621064551174,-0.0071905287913978
1.7726372537879324e+18,10.008932373046877,-0.0120505094528198,0.0713272094726562,0.0727176666259765,-0.002130527049303,-0.0007989476434886,-0.0058589493855834
1.7726372538079265e+18,10.028926513671877,0.0127607583999633,0.0670146942138671,0.0433993339538574,-0.0013315794058144,0.0010652635246515,-0.0015978952869772
1.7726372538279204e+18,10.04892041015625,0.0096461772918701,0.0815992355346679,0.0721344947814941,-0.0018642111681401,0.0047936858609318,-0.0058589493855834
1.7726372538479142e+18,10.068914306640623,-0.0114456415176391,0.091531753540039,0.0672054290771484,0.0050600017420947,0.0069242129102349,-0.0122505305334925
1.772637253867908e+18,10.088908203125,-0.019827127456665,0.1013116836547851,0.0335707664489746,0.0082557927817106,0.0167779009789228,-0.0082557927817106
1.772637253887902e+18,10.10890185546875,0.000195026397705,0.0919198989868164,0.0477833747863769,0.0023968429304659,0.0151800047606229,-0.0023968429304659
1.7726372539078958e+18,10.128895751953126,-0.0042239427566528,0.0825796127319336,0.0665745735168457,-0.0045273699797689,0.0149136893451213,0.0013315794058144
1.7726372539278886e+18,10.148888671875,-0.0272585153579711,0.0829582214355468,0.0564894676208496,-0.0077231605537235,0.0114515833556652,-0.0029294746927917
1.7726372539478812e+18,10.168881103515623,0.0018147230148315,0.088134765625,0.0654168128967285,-0.0053263176232576,0.0117178987711668,-0.0050600017420947
1.7726372539678735e+18,10.18887353515625,0.0068659782409667,0.1122722625732421,0.0363836288452148,-0.0069242129102349,0.0058589493855834,-0.0045273699797689
1.772637253987866e+18,10.2088662109375,-0.0166633129119873,0.0981531143188476,0.0599527359008789,-0.0058589493855834,0.0103863198310136,-0.0034621064551174
1.7726372540078584e+18,10.2288583984375,-0.0212734937667846,0.0651655197143554,0.0733270645141601,-0.0047936858609318,0.0117178987711668,-0.0053263176232576
1.772637254027851e+18,10.24885107421875,-0.0311173200607299,0.0607738494873046,0.0581369400024414,-0.0013315794058144,0.0130494777113199,-0.0026631588116288
1.7726372540478433e+18,10.26884326171875,-0.0254371166229248,0.0944375991821289,0.0622892379760742,-0.0058589493855834,0.0119842141866683,-0.0015978952869772
1.772637254067836e+18,10.2888359375,-0.0392602682113647,0.0990800857543945,0.0818638801574707,-0.0050600017420947,0.0101200034841895,-0.0015978952869772
1.7726372540878282e+18,10.308828125,-0.0149657726287841,0.0653791427612304,0.0822529792785644,-0.002130527049303,0.006657897029072,-0.0013315794058144
1.7726372541078205e+18,10.328820556640624,-0.0373909473419189,0.0890798568725586,0.0735082626342773,-0.0018642111681401,0.0042610540986061,-0.0018642111681401
1.772637254127813e+18,10.348813232421875,-0.0069044828414916,0.0980463027954101,0.0654950141906738,-0.002130527049303,0.0029294746927917,-0.002130527049303
1.7726372541478054e+18,10.368805419921877,-0.0206142663955688,0.0688943862915039,0.0712103843688964,-0.0002663158811628,0.0053263176232576,-0.0047936858609318
1.772637254167798e+18,10.388798095703123,-0.0248678922653198,0.0449771881103515,0.0718588829040527,-0.0015978952869772,0.0037284223362803,-0.0034621064551174
1.7726372541877903e+18,10.408790283203125,-0.014689564704895,0.0647602081298828,0.0947794914245605,-0.002130527049303,-0.0023968429304659,-0.0005326317623257
1.772637254207783e+18,10.428782958984376,-0.0184864997863769,0.0987739562988281,0.098886489868164,-0.0029294746927917,-0.0007989476434886,-0.0042610540986061
1.7726372542277752e+18,10.448775146484374,-0.0365544557571411,0.0842809677124023,0.084996223449707,0.002130527049303,0.002130527049303,-0.0055926335044205
1.7726372542477678e+18,10.468767822265624,-0.0346628427505493,0.0697565078735351,0.0761351585388183,0.0010652635246515,0.0031957905739545,-0.0029294746927917
1.77263725426776e+18,10.488760009765626,-0.0094603300094604,0.0747575759887695,0.0999784469604492,-0.0037284223362803,0.0031957905739545,0.0013315794058144
1.7726372542877524e+18,10.50875244140625,-0.0037438869476318,0.0796871185302734,0.1053142547607421,0.0002663158811628,0.0045273699797689,0.0029294746927917
1.772637254307745e+18,10.5287451171875,-0.021172285079956,0.0700826644897461,0.0865926742553711,-0.0026631588116288,0.0013315794058144,0.0026631588116288
1.7726372543277373e+18,10.5487373046875,-0.0290911197662353,0.0701160430908203,0.0485773086547851,-0.0103863198310136,0.0042610540986061,0.0077231605537235
1.77263725434773e+18,10.56872998046875,-0.0270562171936035,0.0609703063964843,0.0817508697509765,-0.0037284223362803,0.0037284223362803,0.0074568446725606
1.7726372543677222e+18,10.58872216796875,-0.0241016149520874,0.0901775360107421,0.1007094383239746,0.0,0.0063915811479091,0.0026631588116288
1.7726372543877148e+18,10.60871484375,0.0119013786315917,0.1043119430541992,0.0873456001281738,-0.0005326317623257,0.0053263176232576,-0.0026631588116288
1.7726372544077071e+18,10.62870703125,-0.000931978225708,0.0798177719116211,0.0743422508239746,-0.0013315794058144,0.0058589493855834,-0.006657897029072
1.7726372544277002e+18,10.6487001953125,-0.0083463191986083,0.0508108139038085,0.0513701438903808,-0.0015978952869772,0.0074568446725606,-0.0007989476434886
1.7726372544476936e+18,10.668693603515624,0.0166183710098266,0.0607585906982421,0.0604867935180664,-0.0053263176232576,0.0063915811479091,0.0047936858609318
1.772637254467687e+18,10.68868701171875,-0.021419882774353,0.0902252197265625,0.07835054397583,-0.0061252652667462,0.0050600017420947,0.0018642111681401
1.7726372544876805e+18,10.708680419921874,-0.0073897838592529,0.0719175338745117,0.0862278938293457,-0.0042610540986061,0.0055926335044205,-0.0013315794058144
1.7726372545076736e+18,10.728673583984374,-0.0080457925796508,0.091771125793457,0.0751910209655761,-0.0055926335044205,0.0039947382174432,0.0015978952869772
1.7726372545276672e+18,10.748667236328124,0.000778317451477,0.0924510955810546,0.0641489028930664,-0.0071905287913978,0.0023968429304659,0.0023968429304659
1.7726372545476605e+18,10.76866064453125,-0.0188233852386474,0.0982313156127929,0.086125373840332,-0.0074568446725606,0.0053263176232576,0.0
1.772637254567654e+18,10.78865380859375,-0.0147598981857299,0.1132764816284179,0.0607304573059082,-0.0119842141866683,0.0039947382174432,-0.0031957905739545
1.7726372545876472e+18,10.808647216796874,0.0083154439926147,0.1084146499633789,0.0702481269836425,-0.0154463211074471,0.0050600017420947,0.0026631588116288
1.7726372546076406e+18,10.828640625,-0.0117108821868896,0.0889749526977539,0.0322480201721191,-0.0093210563063621,0.0037284223362803,0.0085221081972122
1.772637254627634e+18,10.848634033203124,-0.030035376548767,0.1638154983520507,-0.0237822532653808,-0.0085221081972122,0.0029294746927917,0.0069242129102349
1.7726372546476275e+18,10.86862744140625,-0.0252172946929931,0.0572376251220703,0.1039214134216308,-0.0095873717218637,0.0029294746927917,0.0015978952869772
1.7726372546676209e+18,10.888620849609374,-0.0261658430099487,0.0013418197631835,0.1006917953491211,-0.0029294746927917,-0.0007989476434886,-0.0053263176232576
1.7726372546876142e+18,10.9086142578125,0.0047932863235473,-0.0013971328735351,0.0558967590332031,0.0005326317623257,0.0015978952869772,-0.0085221081972122
1.7726372547076076e+18,10.928607666015624,0.0034351348876953,0.1293106079101562,-0.0071082115173339,0.0029294746927917,0.0007989476434886,-0.0090547399595379
1.772637254727601e+18,10.948600830078124,0.0180822610855102,0.2770280838012695,0.0471830368041992,0.0063915811479091,0.0026631588116288,-0.0082557927817106
,,,,,0.0053263176232576,0.0050600017420947,-0.0101200034841895
,,,,,0.0050600017420947,0.0029294746927917,-0.0106526352465152
,,,,,0.006657897029072,0.0042610540986061,-0.0050600017420947
,,,,,0.0069242129102349,0.0034621064551174,0.0015978952869772
,,,,,0.0213052704930305,0.0122505305334925,0.0023968429304659
,,,,,0.1006674021482467,0.0319579057395458,0.0
,,,,,0.0721716061234474,0.0191747434437274,-0.0162452682852745
,,,,,-0.0061252652667462,-0.0085221081972122,-0.0154463211074471
,,,,,-0.0905473977327346,-0.0362189598381519,-0.0042610540986061
,,,,,-0.0609863363206386,-0.0239684283733367,0.0063915811479091
,,,,,0.0274305362254381,-0.0090547399595379,0.0034621064551174
