time,seconds_elapsed,accel_z,accel_y,accel_x,gyro_x,gyro_y,gyro_z
1.7726373268443753e+18,0.265375244140625,-0.0172363519668579,0.1105728149414062,0.0561981201171875,0.0170442163944244,0.0311589576303958,-0.0090547399595379
1.7726373268643697e+18,0.28536962890625,0.0184834003448486,0.0908718109130859,0.0710620880126953,0.0157126374542713,0.0287621151655912,-0.0106526352465152
1.772637326884364e+18,0.305364013671875,0.0064643621444702,0.0809516906738281,0.0375285148620605,0.0167779009789228,0.0255663245916366,-0.0082557927817106
1.7726373269043587e+18,0.325358642578125,-0.0055611133575439,0.0950136184692382,0.0189146995544433,0.0237021129578351,0.0199736915528774,-0.0058589493855834
1.772637326924353e+18,0.34535302734375,-0.0153827667236328,0.0854473114013671,0.0426154136657714,0.0222373753786087,0.025300009176135,-0.0026631588116288
1.772637326944348e+18,0.365347900390625,-0.0294965505599975,0.1097965240478515,0.061105728149414,0.0251668505370616,0.0274305362254381,0.0005326317623257
1.7726373269643428e+18,0.3853427734375,-0.0098872184753417,0.111154556274414,0.0394268035888671,0.0262321140617132,0.0263652727007865,-0.0023968429304659
1.7726373269843377e+18,0.405337646484375,-0.0099099874496459,0.0834817886352539,0.032599925994873,0.02490053512156,0.0197073742747306,-0.0029294746927917
1.7726373270043325e+18,0.42533251953125,-0.014470100402832,0.0990161895751953,0.0400447845458984,0.0201068483293056,0.017310531809926,-0.0029294746927917
1.7726373270243274e+18,0.445327392578125,0.0088812112808227,0.1094427108764648,0.0719795227050781,0.0118510564789175,0.0199736915528774,-0.0053263176232576
1.7726373270443223e+18,0.465322265625,-0.028555154800415,0.1004104614257812,0.061431884765625,0.0093210563063621,0.0245010610669851,-0.0087884236127138
1.7726373270643172e+18,0.485317138671875,-0.0420608520507812,0.0672817230224609,0.065678596496582,0.0109189506620168,0.0221042186021804,-0.0130494777113199
1.772637327084312e+18,0.50531201171875,-0.0313054323196411,0.0677309036254882,0.0651335716247558,0.0090547399595379,0.0191747434437274,-0.0154463211074471
1.7726373271043067e+18,0.525306640625,-0.02912437915802,0.102081298828125,0.0497899055480957,0.0085221081972122,0.0159789528697729,-0.0130494777113199
1.7726373271243018e+18,0.5453017578125,-0.0133254528045654,0.0978574752807617,0.0730414390563964,0.0079894764348864,0.0154463211074471,-0.0098536871373653
1.7726373271442964e+18,0.56529638671875,-0.0176596641540527,0.1030464172363281,0.0963630676269531,0.0039947382174432,0.0141147412359714,-0.0061252652667462
1.7726373271642913e+18,0.585291259765625,-0.030798316001892,0.103250503540039,0.0956997871398925,-0.0026631588116288,0.0061252652667462,-0.0031957905739545
1.7726373271842862e+18,0.6052861328125,-0.0052635669708251,0.1126260757446289,0.0773382186889648,-0.0095873717218637,0.0005326317623257,-0.0047936858609318
1.772637327204281e+18,0.625281005859375,0.028350830078125,0.0888757705688476,0.0771265029907226,-0.0130494777113199,-0.0031957905739545,-0.0045273699797689
1.772637327224276e+18,0.64527587890625,-0.0031720399856567,0.0799922943115234,0.0474228858947753,-0.0067910552024841,-0.0037284223362803,-0.0034621064551174
1.7726373272442708e+18,0.665270751953125,-0.0054877996444702,0.0902299880981445,0.0037050247192382,-0.0050600017420947,-0.0031957905739545,-0.002130527049303
1.7726373272642657e+18,0.685265625,0.0113255977630615,0.100900650024414,-0.0073122978210449,-0.0109189506620168,-0.0029294746927917,0.0039947382174432
1.7726373272842606e+18,0.705260498046875,0.0087409019470214,0.1169242858886718,0.0092902183532714,-0.0063915811479091,0.0007989476434886,0.0029294746927917
1.7726373273042555e+18,0.72525537109375,0.0199013948440551,0.1425514221191406,0.0402116775512695,-0.0039947382174432,-0.0002663158811628,-0.0047936858609318
1.7726373273242504e+18,0.74525048828125,0.0128661394119262,0.1152172088623046,0.0236597061157226,-0.0159789528697729,-0.0055926335044205,-0.0034621064551174
1.7726373273442452e+18,0.765245361328125,0.0013847351074218,0.1264333724975586,0.0212965011596679,-0.020240006968379,-0.0117178987711668,-0.0039947382174432
1.77263732736424e+18,0.785239990234375,0.0142081975936889,0.1474447250366211,0.0335817337036132,-0.0221042186021804,-0.0154463211074471,-0.0098536871373653
1.7726373273842348e+18,0.80523486328125,-0.0215232372283935,0.1297883987426757,0.0361695289611816,-0.0191747434437274,-0.0130494777113199,-0.013315794058144
1.7726373274042296e+18,0.825229736328125,-0.0375477075576782,0.0977191925048828,0.0485486984252929,-0.0181094799190759,-0.0114515833556652,-0.0122505305334925
1.7726373274242237e+18,0.8452236328125,0.007364273071289,0.0797500610351562,0.0802645683288574,-0.0189084280282259,-0.0101200034841895,-0.0117178987711668
1.7726373274442168e+18,0.865216796875,0.0128352642059326,0.0704851150512695,0.1127710342407226,-0.0205063223838806,-0.0047936858609318,-0.0138484258204698
1.7726373274642097e+18,0.885209716796875,-0.0016733407974243,0.0698881149291992,0.1288480758666992,-0.0215715859085321,-0.0087884236127138,-0.0138484258204698
1.7726373274842028e+18,0.90520263671875,0.0068145990371704,0.064061164855957,0.1065888404846191,-0.0245010610669851,-0.0149136893451213,-0.0095873717218637
1.7726373275041958e+18,0.92519580078125,-0.0140923261642456,0.0440578460693359,0.0885787010192871,-0.0260989554226398,-0.019441058859229,-0.0087884236127138
1.772637327524189e+18,0.94518896484375,-0.0095386505126953,0.043898582458496,0.1127777099609375,-0.0189084280282259,-0.0239684283733367,-0.0037284223362803
1.7726373275441818e+18,0.965181640625,-0.0006952285766601,0.0635461807250976,0.0972895622253418,-0.0157126374542713,-0.0274305362254381,0.0055926335044205
1.7726373275641748e+18,0.9851748046875,-0.0156084299087524,0.0647554397583007,0.094247817993164,-0.011185267008841,-0.0274305362254381,0.0135821104049682
1.772637327584168e+18,1.00516796875,-0.0106501579284667,0.0806589126586914,0.1105341911315918,-0.0042610540986061,-0.0274305362254381,0.0119842141866683
1.772637327604161e+18,1.0251611328125,-0.025111436843872,0.1010913848876953,0.0937180519104003,-0.0039947382174432,-0.019441058859229,0.0074568446725606
1.7726373276241539e+18,1.04515380859375,-0.0252161026000976,0.0876588821411132,0.0775184631347656,-0.006657897029072,-0.0143810575827956,-0.0005326317623257
1.772637327644147e+18,1.06514697265625,-0.0051897764205932,0.0981426239013671,0.0520591735839843,-0.0010652635246515,-0.0122505305334925,-0.0090547399595379
1.77263732766414e+18,1.08514013671875,-0.0142203569412231,0.0801715850830078,0.0499205589294433,-0.0055926335044205,-0.011185267008841,-0.0149136893451213
1.772637327684133e+18,1.105133056640625,-0.0333431959152221,0.0719881057739257,0.0754003524780273,-0.0069242129102349,-0.0122505305334925,-0.0130494777113199
1.772637327704126e+18,1.1251259765625,-0.0326614379882812,0.0917081832885742,0.0218105316162109,-0.0055926335044205,-0.0143810575827956,-0.0109189506620168
1.772637327724119e+18,1.145119140625,-0.0225456953048706,0.0961065292358398,0.0754003524780273,-0.0090547399595379,-0.0109189506620168,-0.0079894764348864
1.772637327744112e+18,1.165112060546875,-0.0117218494415283,0.0966653823852539,0.0602755546569824,-0.0106526352465152,-0.0117178987711668,-0.0082557927817106
1.7726373277641052e+18,1.185105224609375,0.003503680229187,0.0918684005737304,-0.0484905242919921,-0.0093210563063621,-0.0167779009789228,-0.0109189506620168
1.772637327784098e+18,1.20509814453125,0.0320780277252197,0.0826311111450195,-0.025238037109375,-0.0098536871373653,-0.0157126374542713,-0.0117178987711668
1.7726373278040911e+18,1.225091064453125,-0.0148473978042602,0.1268377304077148,-0.0126981735229492,-0.0087884236127138,-0.0101200034841895,0.0045273699797689
1.7726373278240842e+18,1.245084228515625,0.0148601531982421,0.1374378204345703,0.0287103652954101,-0.0071905287913978,-0.0053263176232576,0.0018642111681401
1.772637327844077e+18,1.2650771484375,-0.0185186862945556,0.1189842224121093,0.06571626663208,-0.0079894764348864,-0.0005326317623257,-0.0026631588116288
1.7726373278640701e+18,1.285070068359375,-0.0472508668899536,0.0853023529052734,0.0803742408752441,-0.0037284223362803,-0.0047936858609318,-0.0010652635246515
1.7726373278840632e+18,1.305063232421875,-0.0375702381134033,0.0421037673950195,0.1045060157775878,-0.0085221081972122,-0.0119842141866683,-0.0053263176232576
1.7726373279040563e+18,1.325056396484375,-0.050591230392456,0.0424575805664062,0.0993824005126953,-0.0135821104049682,-0.0157126374542713,-0.0079894764348864
1.7726373279240497e+18,1.345049560546875,-0.0443342924118042,0.0235853195190429,0.1566901206970214,-0.0151800047606229,-0.0207726396620273,-0.0069242129102349
1.7726373279440435e+18,1.36504345703125,-0.0251524448394775,0.0476627349853515,0.1564602851867675,-0.0122505305334925,-0.0239684283733367,-0.0002663158811628
1.7726373279640374e+18,1.385037353515625,-0.0627076625823974,0.0522699356079101,0.1570091247558593,-0.0114515833556652,-0.0221042186021804,0.0069242129102349
1.7726373279840315e+18,1.405031494140625,-0.0098515748977661,0.0758132934570312,0.16741943359375,-0.013315794058144,-0.0197073742747306,0.0007989476434886
1.7726373280240192e+18,1.445019287109375,-0.0226541757583618,0.0262451171875,0.1266565322875976,-0.0154463211074471,-0.0101200034841895,0.0007989476434886
1.772637328044013e+18,1.465012939453125,-0.0135931968688964,0.0212373733520507,0.0790305137634277,-0.0077231605537235,-0.0071905287913978,-0.0007989476434886
1.7726373280640072e+18,1.485007080078125,-0.0093109607696533,0.0313100814819335,0.0923314094543457,-0.0007989476434886,-0.0007989476434886,0.0023968429304659
1.772637328084001e+18,1.5050009765625,-0.0332459211349487,0.0512304306030273,0.0956807136535644,-0.0017310532275587,0.0079894764348864,0.0029294746927917
1.772637328103995e+18,1.524994873046875,-0.0192829370498657,0.0950651168823242,0.1229462623596191,0.0110521093010902,0.0085221081972122,0.0047936858609318
1.7726373281239887e+18,1.54498876953125,-0.0106798410415649,0.1004743576049804,0.1023449897766113,0.0161121115088462,0.0093210563063621,0.0063915811479091
1.7726373281439828e+18,1.56498291015625,0.0035510063171386,0.0868186950683593,0.0584096908569335,0.0134489517658948,0.0175768472254276,0.0029294746927917
1.7726373281639767e+18,1.584976806640625,-0.0008646249771118,0.0969228744506836,0.0179781913757324,0.0129163200035691,0.0229031667113304,-0.0109189506620168
1.7726373281839706e+18,1.604970458984375,-0.0095010995864868,0.0928049087524414,0.0313005447387695,0.0142478998750448,0.0279631670564413,-0.0109189506620168
1.7726373282239585e+18,1.64495849609375,0.0152590274810791,0.0981702804565429,0.0825047492980957,0.0217047445476055,0.0306263267993927,-0.0125168468803167
1.7726373282439524e+18,1.664952392578125,-0.0186964273452758,0.1071510314941406,0.1075096130371093,0.0219710599631071,0.034621063619852,-0.0135821104049682
1.7726373282639462e+18,1.6849462890625,0.0050654411315917,0.0870332717895507,0.0805468559265136,0.017310531809926,0.0378168560564518,-0.0117178987711668
1.77263732828394e+18,1.704940185546875,-0.0088362693786621,0.0621147155761718,0.0489797592163085,0.0135821104049682,0.0308926422148942,-0.0087884236127138
1.7726373283039342e+18,1.724934326171875,-0.0123682022094726,0.0665216445922851,0.0548319816589355,0.0085221081972122,0.0295610632747411,-0.0098536871373653
1.772637328323928e+18,1.744927978515625,0.0215034484863281,0.0855817794799804,0.0646934509277343,0.0069242129102349,0.0162452682852745,-0.0053263176232576
1.772637328343922e+18,1.764921875,0.0164804458618164,0.0806589126586914,0.0738739967346191,0.0069242129102349,0.0095873717218637,0.0015978952869772
1.7726373283639158e+18,1.784915771484375,0.0160039663314819,0.0662040710449218,0.0798978805541992,0.0069242129102349,0.0098536871373653,0.0077231605537235
1.7726373284039037e+18,1.82490380859375,-0.0416536331176757,0.0771627426147461,0.0580506324768066,0.0063915811479091,0.0122505305334925,0.0095873717218637
1.7726373284238973e+18,1.8448974609375,-0.0310420989990234,0.0879297256469726,0.0464544296264648,0.0010652635246515,0.0157126374542713,0.0074568446725606
1.7726373284438907e+18,1.864890625,-0.0016618967056274,0.1125679016113281,0.0500950813293457,0.0029294746927917,0.0143810575827956,0.0023968429304659
1.772637328463884e+18,1.884884033203125,0.0221946239471435,0.0891761779785156,0.0489869117736816,0.0053263176232576,0.0101200034841895,-0.0010652635246515
1.7726373284838774e+18,1.90487744140625,-0.0067335367202758,0.0752458572387695,0.0486893653869628,0.0047936858609318,0.0047936858609318,0.0007989476434886
1.7726373285038707e+18,1.92487060546875,-0.0017905235290527,0.1185846328735351,0.0483055114746093,0.0042610540986061,0.0034621064551174,-0.0023968429304659
1.772637328523864e+18,1.944864013671875,0.0030559301376342,0.109166145324707,0.0336275100708007,0.0034621064551174,0.0026631588116288,-0.0093210563063621
1.7726373285438574e+18,1.964857421875,-0.0115841627120971,0.1089687347412109,0.053105354309082,-0.0031957905739545,0.0023968429304659,-0.0109189506620168
1.7726373285638508e+18,1.984850830078125,-0.021090030670166,0.1181116104125976,0.0677437782287597,-0.0069242129102349,-0.0034621064551174,-0.0095873717218637
1.772637328583844e+18,2.004843994140625,0.0073640346527099,0.0746784210205078,0.0922293663024902,-0.0039947382174432,-0.0037284223362803,-0.0045273699797689
1.7726373286038374e+18,2.02483740234375,-0.0317945480346679,0.0743741989135742,0.0830183029174804,-0.0018642111681401,-0.0077231605537235,-0.0045273699797689
1.7726373286238308e+18,2.044830810546875,-0.032236099243164,0.0645399093627929,0.0833930969238281,-0.0055926335044205,-0.0093210563063621,-0.0037284223362803
1.772637328643824e+18,2.06482421875,-0.0282152891159057,0.0595226287841796,0.1027917861938476,-0.0071905287913978,-0.0130494777113199,-0.0005326317623257
1.7726373286638175e+18,2.0848173828125,-0.0436680316925048,0.059086799621582,0.0841860771179199,-0.0082557927817106,-0.0170442163944244,0.0029294746927917
1.7726373286838108e+18,2.104810791015625,-0.0582799911499023,0.0684385299682617,0.098945140838623,-0.0106526352465152,-0.0210389550775289,0.0061252652667462
1.7726373287038042e+18,2.12480419921875,-0.0245451927185058,0.06390380859375,0.0793361663818359,-0.0114515833556652,-0.0218379013240337,0.0077231605537235
1.7726373287237978e+18,2.1447978515625,-0.0191156864166259,0.0743246078491211,0.0826802253723144,-0.0090547399595379,-0.0258326400071382,0.006657897029072
1.772637328743791e+18,2.164791015625,-0.0377871990203857,0.0896072387695312,0.0858497619628906,-0.0087884236127138,-0.0237021129578351,0.0053263176232576
1.7726373287637842e+18,2.1847841796875,-0.0226886272430419,0.1002187728881836,0.1038141250610351,-0.0085221081972122,-0.023169482126832,0.0050600017420947
1.7726373287837778e+18,2.20477783203125,0.0157636404037475,0.1106529235839843,0.0734610557556152,-0.0039947382174432,-0.0186421126127243,0.0042610540986061
1.7726373288037711e+18,2.224771240234375,-0.0136458873748779,0.0919742584228515,0.0771460533142089,-0.0015978952869772,-0.0122505305334925,0.0055926335044205
1.7726373288237645e+18,2.244764404296875,-0.0276205539703369,0.0922622680664062,0.0862751007080078,-0.0045273699797689,-0.0079894764348864,0.0013315794058144
1.7726373288437578e+18,2.2647578125,0.0062419176101684,0.0833940505981445,0.0706133842468261,-0.0055926335044205,-0.0058589493855834,-0.0047936858609318
1.7726373288637512e+18,2.284751220703125,0.001935601234436,0.0506935119628906,0.0361919403076171,-0.0061252652667462,-0.0055926335044205,-0.0082557927817106
1.7726373288837445e+18,2.30474462890625,-0.0020331144332885,0.0464258193969726,0.0833005905151367,-0.0063915811479091,-0.0071905287913978,-0.0085221081972122
1.7726373289037379e+18,2.32473779296875,-0.0306391716003417,0.0800857543945312,0.1070513725280761,-0.0017310532275587,-0.0077231605537235,-0.0077231605537235
1.7726373289237307e+18,2.344730712890625,-0.0168119668960571,0.0893144607543945,0.1028037071228027,-0.0022636849898844,-0.0077231605537235,-0.002130527049303
1.7726373289437233e+18,2.36472314453125,-0.0033154487609863,0.0645322799682617,0.0945892333984375,-0.004660528153181,-0.0031957905739545,-0.0039947382174432
1.7726373289637158e+18,2.3847158203125,-0.0183240175247192,0.0537490844726562,0.0811710357666015,-0.0049268435686826,-0.0061252652667462,-0.0079894764348864
1.7726373289837084e+18,2.40470849609375,-0.0185719728469848,0.0768117904663086,0.0732421875,-0.0089215822517871,-0.0090547399595379,-0.0050600017420947
1.772637329003701e+18,2.424700927734375,0.0193926095962524,0.0666332244873046,0.0838809013366699,-0.0081226341426372,-0.0090547399595379,-0.0013315794058144
1.7726373290236936e+18,2.444693603515625,0.008974552154541,0.0665836334228515,0.1029233932495117,-0.0003994738217443,-0.0050600017420947,0.0010652635246515
1.7726373290436864e+18,2.464686279296875,-0.015905737876892,0.0523109436035156,0.1024951934814453,0.0025300008710473,-0.0023968429304659,0.0063915811479091
1.7726373290636787e+18,2.4846787109375,-0.0168513059616088,0.0666675567626953,0.0687456130981445,0.0042610540986061,-0.0010652635246515,0.0109189506620168
1.7726373290836716e+18,2.504671630859375,-0.0133315324783325,0.0711193084716796,0.0546965599060058,0.0034621064551174,0.0002663158811628,0.0119842141866683
1.7726373291236567e+18,2.54465673828125,-0.024832010269165,0.0950222015380859,0.1064081192016601,0.0034621064551174,0.0053263176232576,0.0074568446725606
1.7726373291436493e+18,2.564649169921875,-0.0445548295974731,0.080754280090332,0.0677309036254882,0.006657897029072,0.0061252652667462,0.002130527049303
1.7726373291636419e+18,2.584641845703125,-0.0213723182678222,0.0807399749755859,0.058577537536621,0.0098536871373653,0.0087884236127138,-0.0031957905739545
1.7726373291836344e+18,2.604634521484375,-0.0091630220413208,0.0613117218017578,0.0728945732116699,0.0077231605537235,0.0053263176232576,-0.0026631588116288
1.772637329203627e+18,2.624626953125,-0.0350631475448608,0.0941486358642578,0.0737371444702148,0.0074568446725606,0.0007989476434886,0.0010652635246515
1.7726373292236196e+18,2.64461962890625,-0.0368008613586425,0.0884761810302734,0.0606098175048828,0.0063915811479091,0.0002663158811628,0.0013315794058144
1.7726373292436122e+18,2.664612060546875,-0.0285288095474243,0.0735816955566406,0.0516901016235351,0.0061252652667462,-0.0005326317623257,-0.0018642111681401
1.7726373292636047e+18,2.684604736328125,-0.0248634815216064,0.0681991577148437,0.0812816619873046,0.0039947382174432,-0.0010652635246515,-0.0007989476434886
1.7726373292835973e+18,2.704597412109375,-0.007360816001892,0.0818538665771484,0.1109766960144043,0.0039947382174432,0.0029294746927917,-0.0023968429304659
1.77263732930359e+18,2.72458984375,-0.033180832862854,0.080657958984375,0.0840425491333007,0.0090547399595379,0.0010652635246515,-0.0005326317623257
1.7726373293235825e+18,2.74458251953125,-0.0578706264495849,0.0797033309936523,0.0856866836547851,0.011185267008841,-0.0055926335044205,0.0031957905739545
1.772637329343575e+18,2.764574951171875,-0.029903769493103,0.0651464462280273,0.0858368873596191,0.006657897029072,-0.0053263176232576,0.0074568446725606
1.7726373293635676e+18,2.784567626953125,0.0029628276824951,0.0652856826782226,0.0662298202514648,0.0053263176232576,-0.0093210563063621,0.006657897029072
1.7726373293835602e+18,2.804560302734375,-0.0019057989120483,0.0509672164916992,0.0852689743041992,0.0029294746927917,-0.0069242129102349,0.0053263176232576
1.7726373294035528e+18,2.824552734375,-0.0406662225723266,0.0700063705444336,0.0806026458740234,0.0026631588116288,-0.0079894764348864,0.0063915811479091
1.7726373294235453e+18,2.84454541015625,-0.0455319881439209,0.0699090957641601,0.0999317169189453,0.006657897029072,-0.011185267008841,0.0095873717218637
1.7726373294435384e+18,2.864538330078125,-0.0267575979232788,0.074441909790039,0.1099085807800293,0.0039947382174432,-0.0055926335044205,0.0119842141866683
1.7726373294635313e+18,2.88453125,-0.0078099966049194,0.0931119918823242,0.0724754333496093,0.0034621064551174,-0.0026631588116288,0.0061252652667462
1.7726373294835244e+18,2.9045244140625,-0.0172837972640991,0.0591621398925781,0.0732922554016113,0.0050600017420947,0.0010652635246515,-0.0013315794058144
1.7726373295035172e+18,2.92451708984375,-0.0222104787826538,0.0591449737548828,0.0972495079040527,0.0005326317623257,-0.0010652635246515,-0.0015978952869772
1.772637329543503e+18,2.964503173828125,-0.0299090147018432,0.0688686370849609,0.0735101699829101,0.0,-0.0037284223362803,0.0007989476434886
1.772637329563496e+18,2.984495849609375,-0.0137205123901367,0.0692052841186523,0.0877151489257812,0.0005326317623257,-0.0018642111681401,0.0013315794058144
1.772637329583489e+18,3.004489013671875,-0.0266321897506713,0.0743160247802734,0.1066412925720214,0.0010652635246515,0.0002663158811628,0.0029294746927917
1.7726373296034819e+18,3.02448193359375,-0.0391280651092529,0.0937528610229492,0.0826520919799804,0.0042610540986061,0.0010652635246515,0.0018642111681401
1.7726373296234747e+18,3.044474609375,-0.0175498723983764,0.1081123352050781,0.0785160064697265,0.0,0.0010652635246515,0.0069242129102349
1.7726373296434678e+18,3.0644677734375,0.0358333587646484,0.1225671768188476,0.0643143653869628,0.0005326317623257,-0.0005326317623257,0.002130527049303
1.7726373296634606e+18,3.084460693359375,-0.0016504526138305,0.1034536361694336,0.069068431854248,0.0007989476434886,0.002130527049303,0.0002663158811628
1.7726373296834537e+18,3.10445361328125,-0.0431551933288574,0.0936517715454101,0.0411677360534668,-0.0023968429304659,0.0047936858609318,0.0013315794058144
1.7726373297034465e+18,3.124446533203125,-0.0215764045715332,0.0841856002807617,0.0415658950805664,-0.0071905287913978,0.0074568446725606,-0.0013315794058144
1.7726373297234394e+18,3.144439453125,0.0091083049774169,0.0985364913940429,0.0085773468017578,-0.0050600017420947,0.0095873717218637,-0.0029294746927917
1.7726373297434324e+18,3.164432373046875,0.0153732299804687,0.1030836105346679,0.0381665229797363,-0.0018642111681401,0.0125168468803167,-0.002130527049303
1.7726373297634253e+18,3.18442529296875,-0.0079072713851928,0.1266307830810547,0.0528969764709472,-0.0050600017420947,0.0138484258204698,0.0002663158811628
1.7726373297834184e+18,3.20441845703125,0.0210845470428466,0.1163053512573242,0.049591064453125,-0.0037284223362803,0.0167779009789228,0.0005326317623257
1.7726373298034112e+18,3.2244111328125,0.0076005458831787,0.1106042861938476,0.0228185653686523,0.0069242129102349,0.0189084280282259,-0.0031957905739545
1.772637329823404e+18,3.244404052734375,-0.0146024227142333,0.1006040573120117,0.0480213165283203,0.0063915811479091,0.0197073742747306,0.0
1.772637329843397e+18,3.264397216796875,-0.0166054964065551,0.1149835586547851,0.0583033561706543,-0.002130527049303,0.020240006968379,0.0018642111681401
1.77263732986339e+18,3.284389892578125,0.0288373231887817,0.1101140975952148,0.0398817062377929,-0.0037284223362803,0.0189084280282259,-0.0007989476434886
1.772637329883383e+18,3.304383056640625,0.0196835994720459,0.1048688888549804,0.0312814712524414,-0.002130527049303,0.0135821104049682,0.002130527049303
1.772637329903376e+18,3.3243759765625,0.0104706287384033,0.0901165008544921,0.0608434677124023,-0.0018642111681401,0.0103863198310136,0.0045273699797689
1.7726373299233697e+18,3.34436962890625,0.0160415172576904,0.0614576339721679,0.0465044975280761,0.0007989476434886,0.0061252652667462,0.0101200034841895
1.7726373299433644e+18,3.3643642578125,0.007681131362915,0.0381851196289062,0.0449118614196777,-0.0042610540986061,0.006657897029072,0.0085221081972122
1.7726373299633592e+18,3.384359130859375,0.0185879468917846,0.0391321182250976,0.0727834701538086,-0.0106526352465152,0.0039947382174432,0.0050600017420947
1.772637329983354e+18,3.40435400390625,0.0190575122833251,0.0877447128295898,0.1050882339477539,-0.0157126374542713,0.0026631588116288,0.0031957905739545
1.772637330003349e+18,3.424348876953125,-0.0054966211318969,0.1073217391967773,0.0801916122436523,-0.011185267008841,-0.0055926335044205,0.0053263176232576
1.7726373300233436e+18,3.444343505859375,-0.0301718711853027,0.0501480102539062,0.06083345413208,-0.0050600017420947,-0.0085221081972122,0.0069242129102349
1.7726373300433385e+18,3.46433837890625,-0.0205501317977905,0.051222801208496,0.049201488494873,-0.0077231605537235,-0.0079894764348864,0.0045273699797689
1.7726373300633334e+18,3.48433349609375,-0.0055240392684936,0.0526609420776367,0.0609827041625976,-0.0085221081972122,-0.0047936858609318,-0.0018642111681401
1.7726373300833283e+18,3.504328369140625,-0.0043978691101074,0.0828742980957031,0.1015701293945312,-0.0101200034841895,-0.0034621064551174,-0.0074568446725606
1.7726373301033231e+18,3.5243232421875,-0.0226635932922363,0.1076726913452148,0.0714349746704101,-0.0074568446725606,-0.002130527049303,-0.0069242129102349
1.7726373301233178e+18,3.54431787109375,0.0059845447540283,0.1081132888793945,0.0466060638427734,0.0013315794058144,0.0010652635246515,-0.0061252652667462
1.7726373301433126e+18,3.564312744140625,-0.0131629705429077,0.0892810821533203,0.0363922119140625,0.0050600017420947,0.0002663158811628,-0.0045273699797689
1.7726373301633075e+18,3.5843076171875,-0.0170722007751464,0.0800733566284179,0.0544605255126953,0.0042610540986061,0.0015978952869772,-0.0079894764348864
1.7726373301833021e+18,3.60430224609375,0.0031284093856811,0.0996351242065429,0.0683321952819824,0.0010652635246515,0.006657897029072,-0.0138484258204698
1.772637330203297e+18,3.624297119140625,-0.0051034688949584,0.1000843048095703,0.0726032257080078,-0.0015978952869772,0.0069242129102349,-0.0167779009789228
1.772637330223292e+18,3.6442919921875,-0.0172706842422485,0.0861482620239257,0.0723214149475097,-0.0031957905739545,0.0071905287913978,-0.0122505305334925
1.7726373302432868e+18,3.664286865234375,-0.0294795036315917,0.0958843231201171,0.0725717544555664,0.0005326317623257,0.0053263176232576,-0.0063915811479091
1.7726373302632814e+18,3.684281494140625,-0.0086475610733032,0.1054086685180664,0.0778961181640625,0.0013315794058144,0.0,-0.0047936858609318
1.7726373302832763e+18,3.7042763671875,-0.0210077762603759,0.0862026214599609,0.0736918449401855,-0.0013315794058144,0.0023968429304659,-0.0031957905739545
1.7726373303032712e+18,3.724271240234375,-0.0092675685882568,0.1010141372680664,0.0542263984680175,-0.0047936858609318,0.0031957905739545,-0.0026631588116288
1.7726373303432607e+18,3.7642607421875,0.0031981468200683,0.1112613677978515,0.0584659576416015,-0.0042610540986061,0.0037284223362803,-0.0042610540986061
1.7726373303632556e+18,3.784255615234375,-0.0099035501480102,0.0831155776977539,0.0576281547546386,-0.0063915811479091,0.006657897029072,-0.0029294746927917
1.7726373303832504e+18,3.80425048828125,0.0050364732742309,0.0983924865722656,0.0416598320007324,-0.0101200034841895,0.0055926335044205,-0.0002663158811628
1.7726373304032453e+18,3.824245361328125,0.0104326009750366,0.0946569442749023,0.0493593215942382,-0.0095873717218637,0.0039947382174432,0.0037284223362803
1.7726373304232397e+18,3.84423974609375,0.0249528884887695,0.1000890731811523,0.0529513359069824,-0.0093210563063621,0.0023968429304659,0.0005326317623257
1.7726373304432335e+18,3.864233642578125,-0.0130724906921386,0.1196565628051757,0.042670726776123,-0.0127831622958183,0.0029294746927917,-0.0026631588116288
1.7726373304632274e+18,3.884227294921875,-0.012203574180603,0.1152782440185546,0.0612549781799316,-0.0093210563063621,-0.0047936858609318,-0.0007989476434886
1.7726373304832212e+18,3.90422119140625,-0.0219773054122924,0.0680694580078125,0.0550661087036132,-0.0101200034841895,-0.0079894764348864,-0.0007989476434886
1.772637330503215e+18,3.924215087890625,-0.0360057353973388,0.0688056945800781,0.0633134841918945,-0.0093210563063621,-0.006657897029072,-0.0069242129102349
1.772637330523209e+18,3.944208984375,-0.0062812566757202,0.0836296081542968,0.0818514823913574,-0.0055926335044205,-0.0047936858609318,-0.0095873717218637
1.7726373305432028e+18,3.964202880859375,0.0234702825546264,0.1033287048339843,0.0666999816894531,-0.0061252652667462,-0.0047936858609318,-0.0085221081972122
1.7726373305631967e+18,3.98419677734375,-0.0056778192520141,0.0897016525268554,0.0555791854858398,-0.0037284223362803,-0.0077231605537235,-0.0042610540986061
1.7726373305831905e+18,4.0041904296875,-0.005594253540039,0.076176643371582,0.049173355102539,-0.0093210563063621,-0.0101200034841895,-0.002130527049303
1.7726373306031844e+18,4.024184326171875,0.0053716897964477,0.0770597457885742,0.0334396362304687,-0.0101200034841895,-0.013315794058144,-0.0039947382174432
1.7726373306231782e+18,4.04417822265625,0.0109907388687133,0.0780410766601562,0.0700793266296386,-0.0077231605537235,-0.0183757953345775,-0.0061252652667462
1.772637330643172e+18,4.064172119140625,-0.0081590414047241,0.0787897109985351,0.0878000259399414,-0.0109189506620168,-0.0125168468803167,-0.0031957905739545
1.772637330663166e+18,4.084166015625,-0.0136867761611938,0.0646810531616211,0.111055850982666,-0.0106526352465152,-0.0077231605537235,-0.0018642111681401
1.7726373306831598e+18,4.104159912109375,-0.0332131385803222,0.0647764205932617,0.0964107513427734,-0.0037284223362803,-0.0037284223362803,-0.0061252652667462
1.7726373307031537e+18,4.124153564453125,-0.0237071514129638,0.0551948547363281,0.0963912010192871,0.0005326317623257,-0.0045273699797689,-0.0090547399595379
1.7726373307231475e+18,4.1441474609375,-0.0091372728347778,0.0455207824707031,0.1109895706176757,-0.0095873717218637,-0.0079894764348864,-0.0074568446725606
1.7726373307431414e+18,4.164141357421875,-0.0144211053848266,0.0739555358886718,0.0731420516967773,-0.0143810575827956,-0.0149136893451213,-0.0069242129102349
1.7726373307631352e+18,4.18413525390625,-0.000223159790039,0.0836048126220703,0.0681777000427246,-0.0130494777113199,-0.0191747434437274,-0.0058589493855834
1.772637330783129e+18,4.204129150390625,0.0230234861373901,0.0697708129882812,0.0765409469604492,-0.0079894764348864,-0.0205063223838806,-0.0039947382174432
1.772637330803123e+18,4.224123046875,-0.0020948648452758,0.0557212829589843,0.0947847366333007,-0.0039947382174432,-0.0165115855634212,0.0
1.7726373308231168e+18,4.24411669921875,-0.0268477201461792,0.0654745101928711,0.1277880668640136,-0.0034621064551174,-0.0095873717218637,0.0010652635246515
1.7726373308431107e+18,4.264110595703125,-0.0128297805786132,0.0943717956542968,0.0800981521606445,-0.0010652635246515,-0.0002663158811628,0.0015978952869772
1.7726373308631045e+18,4.2841044921875,-0.0171470642089843,0.0944690704345703,0.0704455375671386,0.0002663158811628,-0.0007989476434886,0.0026631588116288
1.7726373308830984e+18,4.304098388671875,-0.0119241476058959,0.0849952697753906,0.0607666969299316,0.002130527049303,-0.0007989476434886,0.0023968429304659
1.7726373309030922e+18,4.32409228515625,0.0070245265960693,0.0800809860229492,0.0609474182128906,-0.0007989476434886,-0.0050600017420947,-0.0045273699797689
1.7726373309230856e+18,4.34408544921875,0.0071303844451904,0.0800733566284179,0.0801548957824707,0.0,-0.0103863198310136,-0.0050600017420947
1.7726373309430787e+18,4.36407861328125,0.0120551586151123,0.0991678237915039,0.07073974609375,0.0007989476434886,-0.0093210563063621,-0.0018642111681401
1.7726373309630715e+18,4.384071533203125,-0.0267776250839233,0.079751968383789,0.0513386726379394,0.0007989476434886,-0.0077231605537235,-0.0013315794058144
1.7726373309830646e+18,4.404064697265625,0.0061124563217163,0.0699167251586914,0.0420846939086914,-0.0026631588116288,-0.0037284223362803,-0.0002663158811628
1.7726373310030574e+18,4.424057373046875,0.0102502107620239,0.0696783065795898,0.0663394927978515,-0.0037284223362803,0.0,-0.0005326317623257
1.7726373310230502e+18,4.44405029296875,-0.0146898031234741,0.0840339660644531,0.0948672294616699,0.0013315794058144,0.0018642111681401,0.0002663158811628
1.7726373310430433e+18,4.464043212890625,-0.0153874158859252,0.0934658050537109,0.0853986740112304,0.0018642111681401,0.0034621064551174,0.0005326317623257
1.7726373310630364e+18,4.484036376953125,0.0137308835983276,0.0932464599609375,0.0715470314025878,-0.0002663158811628,0.002130527049303,0.0005326317623257
1.7726373310830292e+18,4.504029296875,0.0185586214065551,0.1073179244995117,0.0290193557739257,-0.0002663158811628,-0.0037284223362803,0.0026631588116288
1.7726373311030223e+18,4.524022216796875,0.0086661577224731,0.1118907928466796,0.0389423370361328,0.0002663158811628,-0.0045273699797689,0.002130527049303
1.7726373311230152e+18,4.54401513671875,-0.0101901292800903,0.0880336761474609,0.0484118461608886,0.0018642111681401,-0.0050600017420947,0.0031957905739545
1.772637331143008e+18,4.564008056640625,0.0091924667358398,0.0834808349609375,0.0432190895080566,0.0018642111681401,-0.0045273699797689,0.0010652635246515
1.772637331163001e+18,4.5840009765625,0.0044044256210327,0.0838260650634765,0.0617170333862304,0.0058589493855834,-0.0002663158811628,-0.0005326317623257
1.7726373311829942e+18,4.603994140625,-0.0049693584442138,0.0745410919189453,0.075566291809082,0.0007989476434886,0.0026631588116288,0.0018642111681401
1.772637331202987e+18,4.623987060546875,0.0100543498992919,0.0559444427490234,0.0890045166015625,-0.0002663158811628,0.0023968429304659,0.0037284223362803
1.7726373312229798e+18,4.643979736328125,-0.0178698301315307,0.0901441574096679,0.1118817329406738,0.0007989476434886,-0.0026631588116288,0.0026631588116288
1.772637331242973e+18,4.663972900390625,-0.0263396501541137,0.0858173370361328,0.0921010971069336,-0.0015978952869772,-0.0023968429304659,0.0013315794058144
1.7726373312629658e+18,4.6839658203125,-0.0201623439788818,0.0860795974731445,0.0871510505676269,-0.0031957905739545,-0.0018642111681401,-0.0007989476434886
1.7726373312829588e+18,4.703958740234375,0.0043765306472778,0.0670814514160156,0.0821852684020996,-0.0045273699797689,-0.0071905287913978,-0.0026631588116288
1.772637331302952e+18,4.723951904296875,-0.0151005983352661,0.0670557022094726,0.0677828788757324,-0.0058589493855834,-0.0103863198310136,-0.0029294746927917
1.7726373313229448e+18,4.74394482421875,-0.0104377269744873,0.0859527587890625,0.0538954734802246,-0.0058589493855834,-0.0063915811479091,-0.0023968429304659
1.7726373313429376e+18,4.7639375,0.0087389945983886,0.0908088684082031,0.0633511543273925,-0.0050600017420947,-0.0023968429304659,-0.0050600017420947
1.7726373313629307e+18,4.7839306640625,-0.0010862350463867,0.0908269882202148,0.0488820075988769,-0.0055926335044205,0.0,-0.0042610540986061
1.7726373313829235e+18,4.803923583984375,0.0129176378250122,0.095250129699707,0.0447134971618652,-0.0074568446725606,0.0002663158811628,-0.0018642111681401
1.7726373314029166e+18,4.82391650390625,-0.0110973119735717,0.1190090179443359,0.0354952812194824,-0.0034621064551174,0.0053263176232576,-0.0013315794058144
1.7726373314429033e+18,4.8639033203125,0.027834415435791,0.1098318099975586,0.006115436553955,0.0031957905739545,0.0069242129102349,-0.0010652635246515
1.772637331462897e+18,4.88389697265625,-0.0064829587936401,0.1102104187011718,0.0429177284240722,0.0055926335044205,0.0058589493855834,0.0013315794058144
1.7726373314828905e+18,4.903890380859375,-0.0392507314682006,0.1250076293945312,0.0422878265380859,0.0037284223362803,0.0087884236127138,0.0
1.772637331502884e+18,4.923884033203125,-0.0136440992355346,0.0919580459594726,-0.000762939453125,0.0037284223362803,0.0042610540986061,-0.0031957905739545
1.7726373315228774e+18,4.94387744140625,-0.00737726688385,0.0734882354736328,-0.0071220397949218,0.0029294746927917,0.0029294746927917,0.0031957905739545
1.772637331542871e+18,4.96387109375,-0.0157529115676879,0.0645961761474609,0.0589127540588378,0.0018642111681401,0.0002663158811628,0.0026631588116288
1.7726373315628646e+18,4.98386474609375,-0.0382581949234008,0.0843152999877929,0.1108980178833007,-0.0010652635246515,0.0023968429304659,0.0
1.7726373315828582e+18,5.003858154296875,-0.0466442108154296,0.0653705596923828,0.1297826766967773,-0.0031957905739545,0.0010652635246515,-0.0013315794058144
1.7726373316028518e+18,5.023851806640625,-0.0032562017440795,0.0700712203979492,0.1110153198242187,0.0026631588116288,-0.0039947382174432,-0.0039947382174432
1.7726373316228454e+18,5.043845458984375,-0.0118587017059326,0.0838899612426757,0.0835895538330078,-0.0029294746927917,-0.0069242129102349,-0.0050600017420947
1.7726373316428388e+18,5.0638388671875,-0.0014348030090332,0.0782451629638671,0.0662860870361328,-0.0125168468803167,-0.0077231605537235,-0.0013315794058144
1.7726373316628324e+18,5.083832275390625,0.0083097219467163,0.0581941604614257,0.0393023490905761,-0.0143810575827956,-0.011185267008841,-0.0031957905739545
1.772637331682826e+18,5.103825927734375,-0.006085991859436,0.081878662109375,0.0589804649353027,-0.0157126374542713,-0.0143810575827956,-0.0053263176232576
1.7726373317028196e+18,5.123819580078125,-0.0302284955978393,0.1007061004638671,0.1027059555053711,-0.0170442163944244,-0.0167779009789228,-0.0026631588116288
1.7726373317228132e+18,5.143813232421875,-0.026160717010498,0.0857992172241211,0.1227202415466308,-0.0103863198310136,-0.0119842141866683,0.0007989476434886
1.7726373317428068e+18,5.163806884765625,0.0062983036041259,0.056807518005371,0.1229290962219238,-0.0058589493855834,-0.0047936858609318,0.0005326317623257
1.7726373317628e+18,5.183800048828125,-0.0176646709442138,0.0614423751831054,0.1046624183654785,-0.0053263176232576,-0.0005326317623257,0.0055926335044205
1.7726373317827937e+18,5.203793701171875,-0.0128147602081298,0.0710706710815429,0.1093792915344238,-0.006657897029072,-0.0010652635246515,0.0101200034841895
1.7726373318027873e+18,5.223787353515625,0.011124849319458,0.0809259414672851,0.0705184936523437,-0.0037284223362803,-0.0005326317623257,0.0122505305334925
1.772637331822781e+18,5.243781005859375,0.0110604763031005,0.0765466690063476,0.069706916809082,-0.0026631588116288,-0.0055926335044205,0.006657897029072
1.7726373318427745e+18,5.2637744140625,-0.008259892463684,0.0485477447509765,0.1113409996032714,-0.0055926335044205,-0.011185267008841,0.0045273699797689
1.772637331862768e+18,5.28376806640625,-0.0224744081497192,0.0641899108886718,0.123295783996582,-0.0039947382174432,-0.0130494777113199,0.0069242129102349
1.7726373318827615e+18,5.303761474609375,0.0061994791030883,0.0891838073730468,0.0973086357116699,0.0005326317623257,-0.0109189506620168,0.0050600017420947
1.772637331902755e+18,5.323755126953125,-0.0040333271026611,0.0657129287719726,0.1105833053588867,0.0013315794058144,-0.0050600017420947,0.0026631588116288
1.772637331922749e+18,5.3437490234375,-0.0193504095077514,0.0561590194702148,0.0911269187927246,-0.0015978952869772,0.0010652635246515,0.0018642111681401
1.7726373319427436e+18,5.36374365234375,-0.0342390537261962,0.0511550903320312,0.0962004661560058,0.0015978952869772,0.0026631588116288,-0.0023968429304659
1.7726373319627382e+18,5.38373828125,0.0130180120468139,0.0696887969970703,0.0733060836791992,0.0037284223362803,0.0050600017420947,-0.0042610540986061
1.7726373319827328e+18,5.40373291015625,0.0076714754104614,0.1023273468017578,0.0749058723449707,0.0007989476434886,0.0007989476434886,-0.0053263176232576
1.7726373320027272e+18,5.42372705078125,0.03070068359375,0.0915679931640625,0.0583910942077636,-0.0007989476434886,-0.0015978952869772,-0.0109189506620168
1.7726373320227218e+18,5.4437216796875,0.0153191089630126,0.0716009140014648,0.0501132011413574,-0.0015978952869772,-0.0026631588116288,-0.0122505305334925
1.7726373320427164e+18,5.46371630859375,0.0147227048873901,0.0806865692138671,0.0605063438415527,0.0015978952869772,0.0002663158811628,-0.0085221081972122
1.7726373320627108e+18,5.483710693359375,-0.0001202821731567,0.0993022918701171,0.0710301399230957,0.0042610540986061,-0.0015978952869772,-0.0031957905739545
1.7726373320827054e+18,5.503705322265625,-0.024059772491455,0.0941095352172851,0.1149296760559082,0.0055926335044205,0.0015978952869772,0.0002663158811628
1.7726373321027e+18,5.523699951171875,-0.0095559358596801,0.0745124816894531,0.0726814270019531,0.0058589493855834,0.0055926335044205,0.0031957905739545
1.7726373321226944e+18,5.5436943359375,0.0044894218444824,0.0554304122924804,0.0676527023315429,0.0087884236127138,0.0101200034841895,0.0063915811479091
1.772637332142689e+18,5.56368896484375,-0.0099173784255981,0.0609903335571289,0.0805273056030273,0.0077231605537235,0.0087884236127138,0.0101200034841895
1.7726373321626836e+18,5.58368359375,-0.0193302631378173,0.0669879913330078,0.0686521530151367,0.0074568446725606,0.002130527049303,0.0106526352465152
1.772637332182678e+18,5.603677978515625,-0.0090320110321044,0.0541143417358398,0.075507640838623,0.0026631588116288,-0.0039947382174432,0.0063915811479091
1.7726373322026726e+18,5.623672607421875,-0.0125190019607543,0.0605592727661132,0.082216739654541,0.0010652635246515,-0.0031957905739545,0.0053263176232576
1.7726373322226673e+18,5.643667236328125,-0.015697956085205,0.0767164230346679,0.1126914024353027,-0.0013315794058144,-0.006657897029072,0.006657897029072
1.7726373322626563e+18,5.68365625,-0.0085096359252929,0.0888023376464843,0.0461444854736328,-0.0013315794058144,0.0007989476434886,0.0055926335044205
1.772637332282651e+18,5.70365087890625,-0.0318884849548339,0.0848503112792968,0.0159120559692382,0.0018642111681401,0.002130527049303,0.002130527049303
1.7726373323026455e+18,5.7236455078125,-0.0446773767471313,0.1047954559326171,0.0339536666870117,0.0026631588116288,0.0018642111681401,-0.0053263176232576
1.77263733232264e+18,5.743639892578125,-0.0079457759857177,0.1295366287231445,0.0332221984863281,-0.0010652635246515,0.0010652635246515,-0.0101200034841895
1.7726373323426345e+18,5.763634521484375,0.0095396041870117,0.1251134872436523,0.018904685974121,0.0002663158811628,0.0018642111681401,-0.0154463211074471
1.772637332362629e+18,5.783629150390625,-0.0019353628158569,0.1107568740844726,0.0285758972167968,-0.0029294746927917,0.0063915811479091,-0.0159789528697729
1.7726373323826235e+18,5.80362353515625,-0.0042084455490112,0.1106224060058593,0.0198769569396972,-0.0045273699797689,0.0098536871373653,-0.0183757953345775
1.772637332402618e+18,5.8236181640625,0.0422663688659668,0.1344833374023437,0.0304689407348632,-0.0018642111681401,0.011185267008841,-0.0170442163944244
1.772637332422612e+18,5.843612060546875,0.0671660900115966,0.1153993606567382,0.025156021118164,-0.0034621064551174,0.0087884236127138,-0.0130494777113199
1.7726373324426048e+18,5.863604736328125,-0.0028605461120605,0.0963630676269531,0.015777587890625,0.0005326317623257,0.0074568446725606,-0.0103863198310136
1.7726373324625974e+18,5.883597412109375,0.0052032470703125,0.105870246887207,0.0071415901184082,-0.0018642111681401,0.0063915811479091,-0.0082557927817106
1.7726373324825902e+18,5.903590087890625,0.0226569175720214,0.101201057434082,0.0316138267517089,-0.011185267008841,0.0053263176232576,-0.0069242129102349
1.772637332502583e+18,5.9235830078125,0.0157927274703979,0.0967512130737304,0.0843124389648437,-0.017310531809926,0.0031957905739545,-0.0023968429304659
1.772637332522576e+18,5.943575927734375,0.0189069509506225,0.1110897064208984,0.0755553245544433,-0.0175768472254276,0.0002663158811628,0.002130527049303
1.7726373325425684e+18,5.963568359375,0.0392379760742187,0.0820217132568359,0.0668845176696777,-0.0170442163944244,-0.0047936858609318,0.0039947382174432
1.7726373325625613e+18,5.983561279296875,-0.0080798864364624,0.0674400329589843,0.0626411437988281,-0.0218379013240337,-0.0069242129102349,0.0074568446725606
1.772637332582554e+18,6.00355419921875,0.0069514513015747,0.0623865127563476,0.0393571853637695,-0.0167779009789228,-0.0050600017420947,0.0037284223362803
1.7726373326025467e+18,6.023546630859375,0.0067040920257568,0.0718965530395507,0.034644603729248,-0.0122505305334925,-0.0135821104049682,0.0007989476434886
1.7726373326225395e+18,6.04353955078125,-0.0309902429580688,0.0817890167236328,0.0867500305175781,-0.0213052704930305,-0.0103863198310136,0.0055926335044205
1.7726373326425324e+18,6.063532470703125,0.0064245462417602,0.0916833877563476,0.1004409790039062,-0.0260989554226398,-0.0125168468803167,0.0061252652667462
1.772637332662525e+18,6.08352490234375,0.0388140678405761,0.0915737152099609,0.0997757911682128,-0.0226368494331836,-0.011185267008841,0.0018642111681401
1.7726373326825178e+18,6.103517822265625,0.0081024169921875,0.0577945709228515,0.0901875495910644,-0.0218379013240337,-0.0095873717218637,0.0034621064551174
1.7726373327025106e+18,6.123510498046875,-0.0407654047012329,0.0433712005615234,0.0803251266479492,-0.0170442163944244,-0.0063915811479091,0.0077231605537235
1.7726373327225034e+18,6.14350341796875,-0.0370467901229858,0.0576868057250976,0.1185030937194824,-0.0071905287913978,-0.0077231605537235,0.0045273699797689
1.772637332742496e+18,6.16349609375,-0.0331650972366333,0.0767421722412109,0.1520309448242187,-0.0069242129102349,-0.0050600017420947,0.0050600017420947
1.7726373327624888e+18,6.18348876953125,-0.0247455835342407,0.0669870376586914,0.1389107704162597,-0.0055926335044205,-0.0063915811479091,0.0039947382174432
1.7726373327824817e+18,6.203481689453125,-0.0313397645950317,0.0521860122680664,0.1201386451721191,-0.0010652635246515,-0.0063915811479091,-0.0026631588116288
1.7726373328024742e+18,6.22347412109375,-0.0522249937057495,0.0710773468017578,0.1208443641662597,-0.002130527049303,-0.0042610540986061,-0.0023968429304659
1.772637332822467e+18,6.243467041015625,-0.025445818901062,0.0707645416259765,0.1067428588867187,0.0005326317623257,-0.0042610540986061,-0.0007989476434886
1.77263733284246e+18,6.2634599609375,-0.0356351137161254,0.0706825256347656,0.0730705261230468,0.0042610540986061,-0.0103863198310136,0.0018642111681401
1.7726373328624527e+18,6.28345263671875,-0.0410289764404296,0.085209846496582,0.0822019577026367,0.0069242129102349,-0.0087884236127138,0.0005326317623257
1.7726373328824453e+18,6.3034453125,-0.0231938362121582,0.0810060501098632,0.1096296310424804,0.0058589493855834,-0.0031957905739545,0.0002663158811628
1.7726373329024381e+18,6.323438232421875,-0.0419107675552368,0.1007661819458007,0.0988521575927734,0.0079894764348864,0.0034621064551174,0.0
1.7726373329224315e+18,6.343431396484375,-0.0275186300277709,0.1054306030273437,0.0375661849975585,0.0093210563063621,0.0074568446725606,0.0002663158811628
1.7726373329424256e+18,6.363425537109375,-0.0077145099639892,0.1099424362182617,0.0622200965881347,0.0157126374542713,0.0135821104049682,0.0005326317623257
1.7726373329624197e+18,6.383419677734375,0.0122065544128417,0.1046285629272461,0.0574331283569335,0.0181094799190759,0.0146473739296197,0.0002663158811628
1.7726373329824138e+18,6.403413818359375,0.0036572217941284,0.1090288162231445,0.063234806060791,0.0191747434437274,0.0181094799190759,-0.0002663158811628
1.772637333002408e+18,6.423407958984375,-0.0002871751785278,0.1036596298217773,0.0693573951721191,0.0181094799190759,0.0199736915528774,-0.0015978952869772
1.7726373330224023e+18,6.44340234375,-0.03765869140625,0.0883398056030273,0.0664925575256347,0.0151800047606229,0.0189084280282259,-0.0031957905739545
1.7726373330423964e+18,6.463396484375,-0.0092626810073852,0.0921926498413086,0.0587897300720214,0.0125168468803167,0.0175768472254276,-0.006657897029072
1.7726373330623905e+18,6.483390625,-0.0092101097106933,0.0864677429199218,0.0749883651733398,0.0154463211074471,0.0215715859085321,-0.0114515833556652
1.7726373330823846e+18,6.503384521484375,-0.0134261846542358,0.0472383499145507,0.0816659927368164,0.0101200034841895,0.0221042186021804,-0.0047936858609318
1.7726373331023788e+18,6.523378662109375,-0.0317648649215698,0.0366878509521484,0.0835943222045898,0.0045273699797689,0.0175768472254276,0.0015978952869772
1.7726373331223729e+18,6.543372802734375,-0.0084072351455688,0.0408105850219726,0.0753107070922851,0.0039947382174432,0.0154463211074471,0.0039947382174432
1.772637333142367e+18,6.563366943359375,-0.0090100765228271,0.0689659118652343,0.0858840942382812,0.0,0.0095873717218637,0.0053263176232576
1.7726373331623613e+18,6.583361328125,-0.0002070665359497,0.0973310470581054,0.0912256240844726,-0.0042610540986061,0.0058589493855834,0.0061252652667462
1.7726373331823555e+18,6.60335546875,0.0135595798492431,0.1065082550048828,0.067903995513916,-0.002130527049303,-0.0010652635246515,0.0098536871373653
1.7726373332023496e+18,6.623349609375,-0.0063703060150146,0.0964031219482421,0.0304021835327148,-0.0034621064551174,-0.0026631588116288,0.0119842141866683
1.7726373332223437e+18,6.64334375,0.0029274225234985,0.0622682571411132,0.0410695075988769,-0.0031957905739545,-0.0055926335044205,0.011185267008841
1.7726373332423378e+18,6.663337890625,0.0127602815628051,0.057417869567871,0.0652008056640625,-0.0071905287913978,-0.0101200034841895,0.0127831622958183
1.772637333262332e+18,6.683331787109375,0.0034688711166381,0.0769481658935546,0.0789375305175781,-0.0058589493855834,-0.0071905287913978,0.0125168468803167
1.772637333282326e+18,6.703325927734375,-0.0209087133407592,0.0768108367919921,0.0886816978454589,-0.0026631588116288,-0.0037284223362803,0.0103863198310136
1.77263733330232e+18,6.723320068359375,-0.0078694820404052,0.0567893981933593,0.0995945930480957,-0.0005326317623257,-0.0039947382174432,0.0074568446725606
1.7726373333223145e+18,6.743314453125,-0.0275776386260986,0.0604104995727539,0.0728287696838378,0.0031957905739545,-0.0013315794058144,0.0050600017420947
1.7726373333423086e+18,6.76330859375,-0.023884892463684,0.0930051803588867,0.0505714416503906,0.0031957905739545,-0.0013315794058144,0.0039947382174432
1.7726373333623027e+18,6.783302734375,-0.0016725063323974,0.0637769699096679,0.0648517608642578,0.0,-0.006657897029072,0.0047936858609318
1.7726373333822968e+18,6.803296875,-0.0403831005096435,0.0541191101074218,0.0743398666381836,-0.0005326317623257,-0.0090547399595379,0.006657897029072
1.772637333402291e+18,6.823291015625,-0.0222911834716796,0.0592374801635742,0.1065297126770019,-0.0029294746927917,-0.0047936858609318,0.0058589493855834
1.7726373334222848e+18,6.843284912109375,-0.0131460428237915,0.0836954116821289,0.0958700180053711,-0.0063915811479091,-0.0082557927817106,-0.0013315794058144
1.772637333442278e+18,6.86327783203125,-0.031722068786621,0.0696067810058593,0.1001086235046386,-0.0061252652667462,-0.0114515833556652,0.0
1.772637333462271e+18,6.88327099609375,0.0016319751739501,0.0695981979370117,0.1146016120910644,0.0058589493855834,-0.0071905287913978,0.0109189506620168
1.7726373334822643e+18,6.903264404296875,0.0255112648010253,0.0979843139648437,0.1056966781616211,0.0018642111681401,-0.002130527049303,0.0127831622958183
1.7726373335022574e+18,6.92325732421875,0.0103421211242675,0.0923299789428711,0.0880026817321777,0.0055926335044205,-0.0031957905739545,0.0071905287913978
1.7726373335222505e+18,6.94325048828125,0.0108578205108642,0.0723342895507812,0.0753588676452636,0.0090547399595379,-0.0015978952869772,0.0010652635246515
1.7726373335422436e+18,6.96324365234375,0.0159709453582763,0.0672140121459961,0.0090012550354003,0.0053263176232576,0.0047936858609318,-0.0018642111681401
1.772637333562237e+18,6.98323681640625,0.0173215866088867,0.0677089691162109,-6.6757202148e-06,0.0093210563063621,0.0135821104049682,-0.0063915811479091
1.77263733358223e+18,7.00322998046875,0.0286810398101806,0.0922679901123046,0.0280070304870605,0.0093210563063621,0.020240006968379,-0.0029294746927917
1.772637333602223e+18,7.02322314453125,0.0482910871505737,0.1163005828857421,0.0615034103393554,0.0109189506620168,0.0266315881162881,0.0
1.7726373336222162e+18,7.04321630859375,0.0238732099533081,0.1108531951904296,0.0770330429077148,0.0189084280282259,0.0298273786902427,0.0023968429304659
1.7726373336422093e+18,7.063209228515625,0.0288711786270141,0.1242132186889648,0.0652627944946289,0.0181094799190759,0.0338221155107021,0.0063915811479091
1.7726373336622026e+18,7.08320263671875,0.0339468717575073,0.0940418243408203,0.0249590873718261,0.0157126374542713,0.0351536944508552,0.0029294746927917
1.7726373336821957e+18,7.10319580078125,0.0430908203125,0.1116447448730468,0.0278553962707519,0.0127831622958183,0.032490536570549,-0.0042610540986061
1.7726373337021888e+18,7.123188720703125,0.046657919883728,0.1099491119384765,0.021242618560791,0.0050600017420947,0.032490536570549,-0.0093210563063621
1.772637333722182e+18,7.143181884765625,0.0031657218933105,0.0846729278564453,0.0284814834594726,0.0071905287913978,0.0282294824719429,-0.0061252652667462
1.772637333742175e+18,7.163175048828125,0.0270075798034667,0.0932502746582031,0.0543379783630371,0.013315794058144,0.0229031667113304,0.0007989476434886
1.7726373337621683e+18,7.183168212890625,0.0213881731033325,0.0923309326171875,0.0594944953918457,0.0106526352465152,0.0215715859085321,0.0069242129102349
1.7726373337821614e+18,7.203161376953125,0.0398831367492675,0.0960855484008789,0.0373649597167968,0.0069242129102349,0.0157126374542713,0.0119842141866683
1.7726373338021545e+18,7.223154541015625,0.034709095954895,0.1094064712524414,0.0153350830078125,0.0037284223362803,0.0095873717218637,0.0154463211074471
1.7726373338221476e+18,7.243147705078125,0.0194007158279418,0.0940389633178711,0.0409669876098632,0.0053263176232576,0.0013315794058144,0.0162452682852745
1.772637333842141e+18,7.263140869140625,-0.0051236152648925,0.0886831283569336,0.056288719177246,0.0047936858609318,-0.002130527049303,0.0165115855634212
1.772637333862134e+18,7.283134033203125,0.008908987045288,0.0979537963867187,0.0711731910705566,-0.0026631588116288,-0.0034621064551174,0.0125168468803167
1.772637333882127e+18,7.303127197265625,0.017724871635437,0.0883235931396484,0.0519156455993652,-0.0007989476434886,-0.0069242129102349,0.0106526352465152
1.7726373339021202e+18,7.3231201171875,-0.0171525478363037,0.0547065734863281,0.042159080505371,-0.0005326317623257,-0.0101200034841895,0.011185267008841
1.7726373339221138e+18,7.34311376953125,-0.018235445022583,0.0547971725463867,0.0800457000732421,-0.0061252652667462,-0.0146473739296197,0.0125168468803167
1.7726373339421076e+18,7.363107666015625,-0.0238223075866699,0.0787162780761718,0.1182451248168945,-0.0058589493855834,-0.0181094799190759,0.0135821104049682
1.7726373339820956e+18,7.403095703125,-0.0255215167999267,0.0637826919555664,0.0997405052185058,-0.006657897029072,-0.0215715859085321,0.0103863198310136
1.7726373340020895e+18,7.42308935546875,-0.016392707824707,0.0399017333984375,0.0899062156677246,-0.0098536871373653,-0.0229031667113304,0.0069242129102349
1.7726373340220836e+18,7.44308349609375,-0.0351577997207641,0.0401763916015625,0.0894794464111328,-0.0119842141866683,-0.0284957997500896,0.0045273699797689
1.7726373340420774e+18,7.463077392578125,-0.038621187210083,0.054718017578125,0.1132903099060058,-0.0106526352465152,-0.032490536570549,0.0037284223362803
1.7726373340620716e+18,7.483071533203125,-0.0199294090270996,0.0595130920410156,0.122894287109375,-0.0095873717218637,-0.032490536570549,0.0029294746927917
1.7726373340820654e+18,7.5030654296875,-0.0245215892791748,0.0549354553222656,0.0895967483520507,-0.011185267008841,-0.0322242230176925,0.0029294746927917
1.7726373341020595e+18,7.5230595703125,-0.0098563432693481,0.0505886077880859,0.1073818206787109,-0.0101200034841895,-0.0279631670564413,0.0045273699797689
1.7726373341220534e+18,7.543053466796875,0.0052322149276733,0.0654764175415039,0.0927929878234863,-0.0055926335044205,-0.0239684283733367,0.0074568446725606
1.7726373341420475e+18,7.563047607421875,0.0249842405319213,0.0465030670166015,0.0638279914855957,-0.0074568446725606,-0.0191747434437274,0.0031957905739545
1.7726373341620413e+18,7.583041259765625,-0.0082640647888183,0.0657844543457031,0.0972118377685546,-0.0074568446725606,-0.0175768472254276,0.0
1.7726373341820355e+18,7.603035400390625,-0.0315728187561035,0.0759410858154296,0.0866842269897461,-0.0125168468803167,-0.0149136893451213,0.0005326317623257
1.7726373342020293e+18,7.623029296875,-0.0018582344055175,0.0765800476074218,0.0665321350097656,-0.0082557927817106,-0.0117178987711668,0.0034621064551174
1.7726373342220232e+18,7.643023193359375,-0.0018161535263061,0.0772867202758789,0.060394287109375,-0.0050600017420947,-0.0095873717218637,0.0007989476434886
1.7726373342420173e+18,7.663017333984375,-0.0213021039962768,0.0922632217407226,0.063943862915039,-0.0034621064551174,-0.0047936858609318,-0.0023968429304659
1.7726373342620111e+18,7.68301123046875,-0.0159374475479125,0.0927152633666992,0.0296821594238281,-0.0034621064551174,-0.0005326317623257,-0.0037284223362803
1.7726373342820052e+18,7.703005126953125,0.0070822238922119,0.0933742523193359,0.0569314956665039,-0.0037284223362803,0.0026631588116288,-0.0026631588116288
1.772637334301999e+18,7.7229990234375,-0.009106159210205,0.079721450805664,0.0838484764099121,-0.0007989476434886,0.0013315794058144,-0.0005326317623257
1.7726373343219932e+18,7.7429931640625,-0.0285722017288208,0.0992765426635742,0.0213379859924316,-0.0002663158811628,0.0050600017420947,-0.0029294746927917
1.772637334341987e+18,7.762987060546875,0.0050808191299438,0.1045475006103515,0.0108656883239746,-0.0023968429304659,0.0042610540986061,-0.0061252652667462
1.7726373343619812e+18,7.782981201171875,0.0006558895111083,0.0764217376708984,0.0331177711486816,-0.0023968429304659,0.0029294746927917,-0.0071905287913978
1.772637334381975e+18,7.80297509765625,-0.0280039310455322,0.0818042755126953,0.0793046951293945,0.0015978952869772,-0.0005326317623257,-0.0074568446725606
1.7726373344019692e+18,7.82296923828125,-0.0233380794525146,0.0916519165039062,0.1027216911315918,-0.0015978952869772,-0.0018642111681401,-0.0053263176232576
1.7726373344219628e+18,7.842962646484375,4.25577163696e-05,0.0915937423706054,0.0883193016052246,-0.0007989476434886,0.0,-0.0050600017420947
1.7726373344419564e+18,7.862956298828125,0.0042195320129394,0.0862798690795898,0.0604314804077148,0.0085221081972122,-0.0023968429304659,-0.0098536871373653
1.7726373344619497e+18,7.88294970703125,0.0079818964004516,0.0761346817016601,0.0181441307067871,0.0082557927817106,0.0023968429304659,-0.0082557927817106
1.772637334481943e+18,7.902943115234375,-0.0117326974868774,0.1046972274780273,0.0087776184082031,0.0013315794058144,0.0029294746927917,-0.0050600017420947
1.7726373345019366e+18,7.9229365234375,0.0072375535964965,0.0951795578002929,0.0181851387023925,-0.0002663158811628,0.0015978952869772,-0.0061252652667462
1.77263733452193e+18,7.942929931640625,0.0166329145431518,0.0765752792358398,0.0122733116149902,-0.0015978952869772,-0.0002663158811628,-0.0069242129102349
1.7726373345419233e+18,7.96292333984375,0.0256844758987426,0.120366096496582,0.0395946502685546,-0.0007989476434886,-0.0005326317623257,-0.0045273699797689
1.772637334561917e+18,7.9829169921875,0.0153523683547973,0.1257534027099609,0.0676069259643554,0.0050600017420947,0.0042610540986061,-0.0015978952869772
1.7726373345819103e+18,8.00291015625,0.0055015087127685,0.1020793914794921,0.03825044631958,0.0069242129102349,0.0079894764348864,0.002130527049303
1.7726373346019036e+18,8.022903564453125,0.014786958694458,0.0874948501586914,0.0098371505737304,0.0101200034841895,0.0095873717218637,0.0047936858609318
1.7726373346218972e+18,8.042897216796876,0.0192493200302124,0.0824728012084961,0.0293688774108886,0.0101200034841895,0.0095873717218637,0.0007989476434886
1.7726373346418906e+18,8.062890625,0.0045150518417358,0.0872774124145507,0.0388321876525878,0.0079894764348864,0.0130494777113199,-0.0013315794058144
1.7726373346618842e+18,8.08288427734375,0.0187056064605712,0.0876379013061523,0.0524687767028808,0.006657897029072,0.0119842141866683,-0.0058589493855834
1.7726373346818775e+18,8.10287744140625,0.0084540843963623,0.0689811706542968,0.0704889297485351,0.0071905287913978,0.0106526352465152,-0.0087884236127138
1.7726373347018708e+18,8.122870849609376,0.0029895305633544,0.0695114135742187,0.0692963600158691,0.0082557927817106,0.0082557927817106,-0.0095873717218637
1.7726373347218644e+18,8.142864501953126,0.0057824850082397,0.0693693161010742,0.0451197624206543,0.0061252652667462,0.0063915811479091,-0.0071905287913978
1.7726373347418578e+18,8.16285791015625,0.00320565700531,0.0692996978759765,0.068572998046875,0.0023968429304659,0.0023968429304659,-0.0010652635246515
1.7726373347618511e+18,8.18285107421875,0.000374436378479,0.0598583221435546,0.0819644927978515,0.0013315794058144,-0.0002663158811628,0.0026631588116288
1.7726373347818447e+18,8.2028447265625,-0.0030356645584106,0.0558795928955078,0.0795469284057617,0.0015978952869772,-0.0018642111681401,0.0013315794058144
1.772637334801838e+18,8.222838134765626,-0.0114291906356811,0.0290241241455078,0.089367389678955,-0.0015978952869772,-0.0029294746927917,-0.002130527049303
1.7726373348218317e+18,8.242831787109376,-0.0003697872161865,0.0363044738769531,0.0885038375854492,0.0013315794058144,-0.0039947382174432,-0.0050600017420947
1.772637334841825e+18,8.262824951171876,-0.031487226486206,0.0435953140258789,0.0830640792846679,0.0010652635246515,-0.0037284223362803,-0.0061252652667462
1.7726373348618184e+18,8.282818359375,-0.0240728855133056,0.0693635940551757,0.0790014266967773,0.0063915811479091,-0.0031957905739545,-0.0034621064551174
1.772637334881812e+18,8.30281201171875,-0.0221669673919677,0.0760250091552734,0.1177535057067871,0.0093210563063621,-0.0055926335044205,-0.0005326317623257
1.7726373349018053e+18,8.322805419921876,-0.019789695739746,0.1065053939819336,0.0946016311645507,0.0119842141866683,-0.0071905287913978,-0.0018642111681401
1.772637334921799e+18,8.342798828125,-0.0204440355300903,0.1175251007080078,0.0868425369262695,0.0135821104049682,-0.0082557927817106,-0.0074568446725606
1.7726373349417933e+18,8.362793212890624,0.0039691925048828,0.113626480102539,0.0516872406005859,0.0186421126127243,-0.0047936858609318,-0.0191747434437274
1.7726373349617874e+18,8.382787353515624,0.0042217969894409,0.1089506149291992,0.0605092048645019,0.0213052704930305,0.0018642111681401,-0.0298273786902427
1.7726373349817815e+18,8.402781494140624,-0.024359107017517,0.104161262512207,0.0892972946166992,0.019441058859229,0.0047936858609318,-0.0332894846796989
1.7726373350017759e+18,8.42277587890625,-0.0239638090133667,0.0756778717041015,0.0697216987609863,0.0130494777113199,0.0023968429304659,-0.0266315881162881
1.77263733502177e+18,8.44277001953125,-0.0274419784545898,0.0764350891113281,0.068582534790039,0.0157126374542713,-0.0010652635246515,-0.0234357975423336
1.772637335041764e+18,8.46276416015625,-0.0163187980651855,0.0675191879272461,0.1012182235717773,0.0159789528697729,0.0013315794058144,-0.0242347456514835
1.7726373350617582e+18,8.48275830078125,-0.0294133424758911,0.0728168487548828,0.1005535125732421,0.0135821104049682,0.0061252652667462,-0.0207726396620273
1.7726373350817526e+18,8.502752685546875,-0.0189024209976196,0.0399084091186523,0.0947756767272949,0.0015978952869772,0.0063915811479091,-0.0141147412359714
1.7726373351017467e+18,8.52274658203125,-0.0419777631759643,0.0400362014770507,0.0947508811950683,-0.0031957905739545,-0.002130527049303,-0.0045273699797689
1.7726373351217408e+18,8.54274072265625,-0.0264739990234375,0.073613166809082,0.0901708602905273,-0.0063915811479091,-0.0095873717218637,0.002130527049303
1.7726373351417352e+18,8.562735107421876,0.0034042596817016,0.0690422058105468,0.0996103286743164,-0.0087884236127138,-0.0151800047606229,0.0026631588116288
1.7726373351617293e+18,8.582729248046874,-0.005561351776123,0.0600204467773437,0.089693546295166,-0.0109189506620168,-0.0143810575827956,-0.0034621064551174
1.7726373351817234e+18,8.602723388671874,-0.0102072954177856,0.0802259445190429,0.0733242034912109,-0.0159789528697729,-0.0122505305334925,-0.0037284223362803
1.772637335221712e+18,8.6427119140625,-0.0161480903625488,0.1194143295288086,0.0869436264038086,-0.0127831622958183,-0.0090547399595379,-0.002130527049303
1.772637335241706e+18,8.6627060546875,0.0180258750915527,0.0862493515014648,0.0486540794372558,-0.0090547399595379,-0.0047936858609318,-0.0029294746927917
1.7726373352617e+18,8.6827001953125,0.0045056343078613,0.0769281387329101,0.0387749671936035,-0.0037284223362803,0.0005326317623257,-0.0034621064551174
1.7726373352816945e+18,8.702694580078125,0.0058556795120239,0.0913915634155273,0.0341467857360839,-0.0042610540986061,0.0015978952869772,0.0015978952869772
1.7726373353016886e+18,8.7226884765625,-0.0065455436706542,0.0723428726196289,0.0056772232055664,-0.0069242129102349,-0.0005326317623257,0.0013315794058144
1.7726373353216827e+18,8.7426826171875,-0.0049294233322143,0.0626897811889648,0.0301799774169921,-0.0023968429304659,0.0047936858609318,-0.0023968429304659
1.7726373353416768e+18,8.7626767578125,-0.0081064701080322,0.0861225128173828,0.0459809303283691,0.0018642111681401,0.0071905287913978,-0.0085221081972122
1.7726373353616712e+18,8.782671142578126,0.0030606985092163,0.1045055389404296,0.0664601325988769,0.002130527049303,0.0082557927817106,-0.0087884236127138
1.7726373353816653e+18,8.802665283203124,0.0134185552597045,0.1033296585083007,0.0593695640563964,-0.0071905287913978,0.0122505305334925,-0.0031957905739545
1.7726373354016594e+18,8.822659423828124,0.0089128017425537,0.0734233856201171,0.0425376892089843,-0.002130527049303,0.0127831622958183,-0.0037284223362803
1.7726373354216535e+18,8.842653564453125,-0.0010328292846679,0.0869407653808593,0.0393195152282714,0.0026631588116288,0.0106526352465152,-0.0039947382174432
1.7726373354416474e+18,8.8626474609375,-0.0099813938140869,0.110321044921875,0.0495829582214355,-0.002130527049303,0.0090547399595379,-0.0018642111681401
1.772637335461641e+18,8.882640869140625,0.0196186304092407,0.1053724288940429,0.0836377143859863,-0.0055926335044205,0.0087884236127138,0.0002663158811628
1.7726373354816348e+18,8.902634765625,0.0006582736968994,0.1006383895874023,0.0883693695068359,-0.0058589493855834,0.0093210563063621,0.0002663158811628
1.7726373355016287e+18,8.922628662109375,0.0100729465484619,0.1051959991455078,0.0696167945861816,-0.0047936858609318,0.0074568446725606,0.0045273699797689
1.7726373355216225e+18,8.94262255859375,0.0150855779647827,0.0904140472412109,0.0321435928344726,-0.0058589493855834,0.0085221081972122,0.0087884236127138
1.772637335541616e+18,8.9626162109375,0.0201979875564575,0.0948038101196289,0.0282120704650878,-0.0013315794058144,0.0103863198310136,0.0117178987711668
1.77263733556161e+18,8.98260986328125,-0.0082815885543823,0.0992364883422851,0.0679011344909668,0.0007989476434886,0.0087884236127138,0.0135821104049682
1.7726373355816038e+18,9.002603759765625,0.0252522230148315,0.1037540435791015,0.0732245445251464,0.0050600017420947,0.0087884236127138,0.0106526352465152
1.7726373356015977e+18,9.02259765625,0.0339272022247314,0.0889081954956054,0.0828990936279296,0.0034621064551174,0.0063915811479091,0.0071905287913978
1.7726373356215913e+18,9.04259130859375,0.0176907777786254,0.0689649581909179,0.065380573272705,-0.0042610540986061,0.002130527049303,0.0050600017420947
1.7726373356415852e+18,9.062585205078124,-0.0220746994018554,0.0490503311157226,0.0664796829223632,-0.0039947382174432,-0.0005326317623257,0.0013315794058144
1.772637335661579e+18,9.0825791015625,-0.0038459300994873,0.053450584411621,0.0717945098876953,-0.0002663158811628,-0.0007989476434886,0.0013315794058144
1.7726373356815729e+18,9.10257275390625,0.0090137720108032,0.0863323211669921,0.0720882415771484,-0.0015978952869772,-0.0029294746927917,0.0042610540986061
1.7726373357015667e+18,9.122566650390626,0.0071479082107543,0.0808372497558593,0.0921497344970703,-0.0023968429304659,-0.002130527049303,0.0055926335044205
1.7726373357215603e+18,9.142560302734376,0.0245132446289062,0.0993099212646484,0.0882492065429687,-0.0034621064551174,-0.002130527049303,0.0045273699797689
1.7726373357415542e+18,9.16255419921875,0.0177996158599853,0.1128005981445312,0.0655198097229003,-0.0034621064551174,-0.0034621064551174,0.0045273699797689
1.772637335761548e+18,9.182548095703124,-0.0167404413223266,0.0691337585449218,0.0807037353515625,-0.0013315794058144,-0.0069242129102349,0.0050600017420947
1.7726373358015355e+18,9.222535400390624,0.0013656616210937,0.097665786743164,0.085641860961914,0.0018642111681401,-0.0098536871373653,0.0053263176232576
1.7726373358215293e+18,9.242529296875,-0.0126904249191284,0.0787944793701171,0.094736099243164,0.0050600017420947,-0.0127831622958183,0.0093210563063621
1.7726373358415232e+18,9.262523193359376,-0.0075181722640991,0.0740270614624023,0.0804133415222168,0.0007989476434886,-0.0085221081972122,0.0071905287913978
1.7726373358615168e+18,9.282516845703125,-0.0175204277038574,0.0882596969604492,0.0901589393615722,0.0071905287913978,-0.0002663158811628,0.0045273699797689
1.7726373358815107e+18,9.3025107421875,0.0060653686523437,0.0786762237548828,0.0661191940307617,0.0087884236127138,-0.0007989476434886,0.0045273699797689
1.7726373359015045e+18,9.32250439453125,-0.0081566572189331,0.0645580291748046,0.0512890815734863,0.0087884236127138,-0.0026631588116288,0.0063915811479091
1.772637335921498e+18,9.342498046875,-0.0177911520004272,0.1028051376342773,0.037057876586914,0.0085221081972122,-0.0034621064551174,0.0077231605537235
1.772637335941492e+18,9.362491943359377,0.0011153221130371,0.1118936538696289,0.0619049072265625,0.0069242129102349,-0.0047936858609318,0.006657897029072
1.7726373359614856e+18,9.382485595703123,0.0246713161468505,0.0872173309326171,0.0829668045043945,0.0015978952869772,-0.0050600017420947,0.0045273699797689
1.7726373359814792e+18,9.402479248046877,0.0146491527557373,0.1053447723388671,0.0513219833374023,0.0037284223362803,-0.0015978952869772,0.0005326317623257
1.772637336001473e+18,9.42247314453125,0.0138527154922485,0.1135215759277343,0.0346813201904296,0.0002663158811628,0.002130527049303,-0.0010652635246515
1.7726373360214666e+18,9.442466552734375,0.0043146610260009,0.1028623580932617,0.0224013328552246,-0.0010652635246515,0.0034621064551174,-0.0013315794058144
1.7726373360414602e+18,9.462460205078123,0.0278999805450439,0.0877685546875,0.0284972190856933,0.0026631588116288,0.0042610540986061,0.0005326317623257
1.7726373360614538e+18,9.482453857421875,0.0086338520050048,0.0872840881347656,0.0294075012207031,0.0077231605537235,0.0103863198310136,0.0
1.7726373360814477e+18,9.50244775390625,-0.0011024475097656,0.0865364074707031,0.0547699928283691,0.006657897029072,0.0114515833556652,-0.0031957905739545
1.7726373361014413e+18,9.522441162109375,0.0039474964141845,0.1051054000854492,0.0703554153442382,0.0029294746927917,0.0071905287913978,-0.0026631588116288
1.772637336121435e+18,9.542434814453124,-0.0053117275238037,0.0997447967529296,0.0475835800170898,0.0037284223362803,0.0058589493855834,0.0026631588116288
1.7726373361414287e+18,9.5624287109375,0.0094295740127563,0.0755290985107421,0.0481810569763183,0.0071905287913978,0.0090547399595379,0.0058589493855834
1.7726373361614223e+18,9.58242236328125,0.0103037357330322,0.0709800720214843,0.0664982795715332,0.0074568446725606,0.0114515833556652,0.0074568446725606
1.772637336181416e+18,9.602416015625,-0.0076848268508911,0.0759649276733398,0.0760016441345214,0.0079894764348864,0.0090547399595379,0.0119842141866683
1.7726373362014095e+18,9.622409423828126,0.015895128250122,0.0616044998168945,0.0854649543762207,0.0039947382174432,0.0037284223362803,0.0135821104049682
1.7726373362214034e+18,9.6424033203125,-0.0337246656417846,0.0756978988647461,0.1239013671875,-0.0013315794058144,-0.0018642111681401,0.0095873717218637
1.772637336241397e+18,9.66239697265625,-0.0254911184310913,0.0842876434326171,0.0871477127075195,-0.0005326317623257,-0.006657897029072,0.0061252652667462
1.7726373362613906e+18,9.682390625,0.0021997690200805,0.073765754699707,0.0551619529724121,-0.0045273699797689,-0.0071905287913978,0.0079894764348864
1.7726373362813842e+18,9.70238427734375,-0.0268107652664184,0.0875797271728515,0.0082631111145019,-0.0042610540986061,-0.0087884236127138,0.0087884236127138
1.772637336301378e+18,9.7223779296875,-0.0125210285186767,0.0773954391479492,0.0333576202392578,-0.0082557927817106,-0.0114515833556652,0.0090547399595379
1.7726373363213716e+18,9.74237158203125,-0.0275230407714843,0.0480709075927734,0.072641372680664,-0.0079894764348864,-0.0127831622958183,0.0069242129102349
1.7726373363413652e+18,9.762365234375,-0.0192170143127441,0.07135009765625,0.08799409866333,-0.0098536871373653,-0.0098536871373653,0.0031957905739545
1.772637336361359e+18,9.782359130859374,-0.0011787414550781,0.0944108963012695,0.0846405029296875,-0.0106526352465152,-0.0095873717218637,-0.0002663158811628
1.7726373363813527e+18,9.802352783203125,-0.0265321731567382,0.0881862640380859,0.0726752281188964,-0.0079894764348864,-0.0055926335044205,0.0007989476434886
1.7726373364013463e+18,9.82234619140625,-0.0510635375976562,0.0678005218505859,0.0652956962585449,0.0050600017420947,-0.0069242129102349,0.0007989476434886
1.77263733642134e+18,9.84233984375,-0.0084892511367797,0.057570457458496,0.0616154670715332,0.0079894764348864,-0.0042610540986061,0.006657897029072
1.7726373364413338e+18,9.862333740234376,-0.0192084312438964,0.0714445114135742,0.06707763671875,0.006657897029072,0.0002663158811628,0.0103863198310136
1.7726373364613274e+18,9.882327392578125,-0.0344747304916381,0.0565242767333984,0.1014413833618164,0.0055926335044205,0.0018642111681401,0.0069242129102349
1.772637336481321e+18,9.902321044921877,-0.0348144769668579,0.0467081069946289,0.0922231674194336,-0.0005326317623257,0.0,0.0055926335044205
1.7726373365013146e+18,9.922314453125,-0.0351448059082031,0.0803289413452148,0.0829954147338867,0.0002663158811628,-0.0055926335044205,0.0077231605537235
1.7726373365213084e+18,9.942308349609377,-0.0399177074432373,0.061594009399414,0.0869641304016113,0.0026631588116288,-0.0058589493855834,0.0061252652667462
1.772637336541302e+18,9.962302001953123,-0.0487231016159057,0.0761365890502929,0.1006107330322265,0.0037284223362803,-0.0050600017420947,0.0079894764348864
1.7726373365612956e+18,9.982295654296877,-0.0295984745025634,0.0806207656860351,0.1065797805786132,0.0050600017420947,-0.0045273699797689,0.0122505305334925
1.7726373365812892e+18,10.002289306640623,-0.0346518754959106,0.0800552368164062,0.0644807815551757,0.0042610540986061,-0.0063915811479091,0.0157126374542713
1.772637336601283e+18,10.022282958984375,-0.0393563508987426,0.0649576187133789,0.0563135147094726,-0.0005326317623257,-0.0042610540986061,0.0106526352465152
1.7726373366212767e+18,10.042276611328123,-0.0059559345245361,0.0831108093261718,0.0534300804138183,-0.0002663158811628,-0.0101200034841895,0.0061252652667462
1.7726373366412703e+18,10.062270263671875,0.0221447944641113,0.0963306427001953,0.0363154411315918,0.0005326317623257,-0.0130494777113199,0.0061252652667462
1.7726373366612641e+18,10.08226416015625,-0.0068564414978027,0.0952119827270507,0.0144410133361816,-0.0005326317623257,-0.0093210563063621,0.006657897029072
1.7726373366812577e+18,10.1022578125,-0.0024303197860717,0.0942964553833007,0.0065250396728515,-0.0005326317623257,-0.0031957905739545,0.0010652635246515
1.7726373367012513e+18,10.122251220703124,-0.0026706457138061,0.1031656265258789,0.036571979522705,0.0029294746927917,0.0007989476434886,-0.0026631588116288
1.772637336721245e+18,10.142244873046875,0.0023225545883178,0.1261749267578125,0.0432276725769043,-0.0015978952869772,0.002130527049303,-0.0031957905739545
1.7726373367412385e+18,10.162238525390626,0.0263622999191284,0.1107091903686523,0.0453391075134277,0.0005326317623257,0.0058589493855834,0.0015978952869772
1.7726373367612324e+18,10.182232421875,0.026248812675476,0.0905141830444336,0.0281224250793457,0.0069242129102349,0.0085221081972122,0.0042610540986061
1.772637336781226e+18,10.20222607421875,0.006942868232727,0.0898160934448242,-0.0089058876037597,0.0077231605537235,0.0127831622958183,0.0050600017420947
1.7726373368012196e+18,10.222219482421876,0.0217852592468261,0.0754642486572265,0.0199165344238281,0.0069242129102349,0.0141147412359714,0.0085221081972122
1.7726373368212134e+18,10.24221337890625,-0.0116695165634155,0.0802507400512695,0.0534834861755371,0.0106526352465152,0.0143810575827956,0.0090547399595379
1.772637336841207e+18,10.26220703125,0.0025839805603027,0.0943822860717773,0.0964360237121582,0.0090547399595379,0.0141147412359714,0.0103863198310136
1.7726373368612006e+18,10.28220068359375,-0.0027904510498046,0.0890750885009765,0.1260175704956054,0.0069242129102349,0.0114515833556652,0.0101200034841895
1.7726373368811942e+18,10.3021943359375,0.0059406757354736,0.0597953796386718,0.0645427703857421,0.0063915811479091,0.0077231605537235,0.0058589493855834
1.772637336901188e+18,10.32218798828125,-0.0048416852951049,0.0497303009033203,0.0274310111999511,0.0037284223362803,0.0079894764348864,0.0085221081972122
1.7726373369211814e+18,10.342181396484374,-0.0014400482177734,0.0589513778686523,0.0229783058166503,0.0015978952869772,0.0055926335044205,0.0109189506620168
1.772637336941174e+18,10.362174072265624,0.0068116188049316,0.0874462127685546,0.0374927520751953,0.0010652635246515,0.0037284223362803,0.0117178987711668
1.7726373369611668e+18,10.382166748046876,0.0105437040328979,0.0869855880737304,0.0572667121887207,0.0029294746927917,0.0013315794058144,0.0090547399595379
1.7726373369811594e+18,10.402159423828126,0.0230734348297119,0.0958003997802734,0.0774264335632324,-0.0029294746927917,-0.0013315794058144,0.0031957905739545
1.7726373370011523e+18,10.42215234375,0.0256465673446655,0.0902395248413086,0.0783314704895019,-0.0039947382174432,-0.0050600017420947,-0.0002663158811628
1.7726373370211448e+18,10.442144775390624,-0.0045989751815795,0.0943870544433593,0.0408539772033691,-0.0031957905739545,-0.0042610540986061,0.0023968429304659
1.7726373370411377e+18,10.4621376953125,0.0132861137390136,0.093785285949707,0.0464615821838378,0.0007989476434886,-0.0037284223362803,0.0053263176232576
1.7726373370611305e+18,10.482130615234375,-0.011539340019226,0.093118667602539,0.0762577056884765,0.0026631588116288,-0.0015978952869772,0.0063915811479091
1.772637337081123e+18,10.502123046875,-0.0079658031463623,0.0730600357055664,0.0920252799987793,0.0071905287913978,0.0018642111681401,0.0042610540986061
1.772637337101116e+18,10.522115966796877,0.0052230358123779,0.0531091690063476,0.106997013092041,0.0101200034841895,0.0047936858609318,0.0018642111681401
1.7726373371211085e+18,10.5421083984375,-0.0292878150939941,0.0480480194091796,0.0886988639831543,0.0101200034841895,0.0042610540986061,0.0005326317623257
1.7726373371411013e+18,10.562101318359376,-0.034432053565979,0.0721883773803711,0.0930461883544921,0.0087884236127138,0.0053263176232576,0.0013315794058144
1.772637337161094e+18,10.582093994140624,0.0091258287429809,0.0725536346435546,0.0966525077819824,0.011185267008841,0.0037284223362803,0.0045273699797689
1.7726373371810867e+18,10.602086669921874,-0.0235947370529174,0.0727424621582031,0.0965003967285156,0.0106526352465152,0.0007989476434886,0.006657897029072
1.7726373372010793e+18,10.622079345703124,-0.0083305835723876,0.0634222030639648,0.0728731155395507,0.0090547399595379,-0.0053263176232576,0.0050600017420947
1.7726373372210721e+18,10.642072021484376,0.0200221538543701,0.0732040405273437,0.0861692428588867,0.0026631588116288,-0.0077231605537235,0.0058589493855834
1.772637337241065e+18,10.66206494140625,-0.0141425132751464,0.1015758514404296,0.1106753349304199,-0.0010652635246515,-0.0149136893451213,0.0077231605537235
1.7726373372610575e+18,10.6820576171875,-0.013792872428894,0.114842414855957,0.0841274261474609,-0.0037284223362803,-0.017310531809926,0.0098536871373653
1.7726373372810504e+18,10.70205029296875,-0.0179277658462524,0.0805091857910156,0.0432929992675781,-0.0007989476434886,-0.0149136893451213,0.0109189506620168
1.772637337301043e+18,10.72204296875,-0.0161864757537841,0.0803327560424804,0.0344924926757812,0.0007989476434886,-0.0109189506620168,0.0069242129102349
1.7726373373210358e+18,10.742035888671875,0.0049467086791992,0.0707569122314453,0.0775003433227539,0.0002663158811628,-0.0085221081972122,0.0013315794058144
1.7726373373410286e+18,10.762028564453123,0.0153788328170776,0.0801219940185546,0.0972919464111328,-0.0026631588116288,-0.0045273699797689,-0.0026631588116288
1.7726373373610212e+18,10.782021240234377,-0.0123108625411987,0.0843238830566406,0.1040740013122558,-0.0055926335044205,-0.0039947382174432,-0.0005326317623257
1.772637337381014e+18,10.802013916015625,0.0030354261398315,0.0835647583007812,0.0913920402526855,-0.0085221081972122,-0.0050600017420947,0.0005326317623257
1.7726373374010066e+18,10.822006591796876,0.0080405473709106,0.0778465270996093,0.0692553520202636,-0.0015978952869772,0.0007989476434886,-0.0018642111681401
1.7726373374209994e+18,10.84199951171875,-0.0055512189865112,0.0863256454467773,0.0523862838745117,0.0031957905739545,-0.0018642111681401,0.0
1.7726373374409923e+18,10.8619921875,0.019237995147705,0.0667104721069336,0.0486617088317871,0.0,-0.0005326317623257,0.0093210563063621
1.7726373374609853e+18,10.8819853515625,0.0086860656738281,0.0765399932861328,0.0575275421142578,-0.0018642111681401,0.0005326317623257,0.0127831622958183
1.7726373374809782e+18,10.901978271484374,-0.0098952054977417,0.0716590881347656,0.0805873870849609,-0.0050600017420947,0.0023968429304659,0.0058589493855834
1.7726373375009713e+18,10.92197119140625,-0.0409225225448608,0.0630645751953125,0.0972929000854492,-0.0103863198310136,0.0031957905739545,0.0031957905739545
1.772637337520964e+18,10.941964111328126,-0.0345679521560668,0.0937986373901367,0.0891165733337402,-0.0087884236127138,0.0002663158811628,0.0042610540986061
1.7726373375409572e+18,10.961957275390626,-0.0159324407577514,0.1000232696533203,0.0683093070983886,-0.0077231605537235,-0.0023968429304659,0.0103863198310136
1.77263733756095e+18,10.981949951171876,-0.0221189260482788,0.0810890197753906,0.0489721298217773,-0.0045273699797689,-0.0005326317623257,0.0101200034841895
,,,,,-0.0010652635246515,0.0002663158811628,0.0130494777113199
,,,,,-0.0061252652667462,0.0007989476434886,0.011185267008841
,,,,,-0.0015978952869772,0.0007989476434886,-0.0002663158811628
,,,,,0.0210389550775289,0.0061252652667462,-0.0042610540986061
,,,,,0.0250336937606334,0.0063915811479091,-0.0095873717218637
,,,,,0.0042610540986061,0.0039947382174432,-0.0181094799190759
,,,,,-0.017310531809926,0.0010652635246515,-0.0159789528697729
,,,,,-0.0284957997500896,-0.0031957905739545,-0.0007989476434886
,,,,,-0.0018642111681401,-0.0002663158811628,0.0007989476434886
