time,seconds_elapsed,accel_z,accel_y,accel_x,gyro_x,gyro_y,gyro_z
1.7726372193792924e+18,0.22929248046875,0.0022765398025512,0.0583791732788085,0.0256609916687011,-0.0061252652667462,-0.0114515833556652,-0.0109189506620168
1.7726372193992855e+18,0.249285400390625,-0.0334487557411193,0.033121109008789,0.0530576705932617,-0.0069242129102349,-0.0114515833556652,-0.0207726396620273
1.772637219419278e+18,0.269278076171875,-0.0382817983627319,0.1878461837768554,0.1548471450805664,-0.0157126374542713,-0.0226368494331836,-0.0226368494331836
1.7726372194392686e+18,0.2892685546875,0.0226234793663024,0.173349380493164,0.1645193099975586,-0.0258326400071382,-0.0290284305810928,-0.0165115855634212
1.772637219459259e+18,0.3092587890625,-0.0209224820137023,0.0529193878173828,0.0792794227600097,-0.0130494777113199,-0.0205063223838806,-0.0149136893451213
1.7726372194792492e+18,0.329249267578125,-0.0208423733711242,0.0482387542724609,0.0359764099121093,0.0005326317623257,-0.0135821104049682,-0.0221042186021804
1.7726372194992394e+18,0.349239501953125,-0.0106593370437622,0.0394887924194335,0.0597453117370605,0.0031957905739545,-0.0090547399595379,-0.032490536570549
1.77263721951923e+18,0.36922998046875,0.0091165900230407,0.0450706481933593,0.0776944160461425,0.0007989476434886,0.0023968429304659,-0.0082557927817106
1.7726372195392202e+18,0.38922021484375,0.0148126482963562,0.0645551681518554,0.0868573188781738,0.0082557927817106,0.0007989476434886,0.0055926335044205
1.7726372195592108e+18,0.409210693359375,-0.0278222560882568,0.0647220611572265,0.0913305282592773,0.0063915811479091,0.0071905287913978,0.0029294746927917
1.772637219579201e+18,0.429200927734375,-0.0273667573928833,0.0413875579833984,0.0759229660034179,0.0053263176232576,0.0141147412359714,-0.0071905287913978
1.7726372195991913e+18,0.44919140625,-0.002364695072174,0.0472793579101562,0.0597519874572753,0.0042610540986061,0.0167779009789228,-0.0095873717218637
1.7726372196191818e+18,0.469181884765625,0.0159260034561157,0.0769176483154296,0.0634932518005371,0.002130527049303,0.0178431645035743,-0.0074568446725606
1.772637219639172e+18,0.489172119140625,-0.0030617117881774,0.0824241638183593,0.057347297668457,0.0069242129102349,0.0154463211074471,-0.0026631588116288
1.7726372196591624e+18,0.509162353515625,0.0341145396232605,0.0884428024291992,-0.0024452209472656,0.0082557927817106,0.0141147412359714,-0.0039947382174432
1.7726372196791526e+18,0.529152587890625,0.0274413228034973,0.1042642593383789,0.0281648635864257,0.0007989476434886,0.0125168468803167,-0.0095873717218637
1.7726372196991432e+18,0.54914306640625,0.0258076190948486,0.1197853088378906,0.0198292732238769,0.0037284223362803,0.0109189506620168,-0.0122505305334925
1.7726372197191334e+18,0.569133544921875,0.0154486298561096,0.1015481948852539,-0.0298843383789062,0.006657897029072,0.0063915811479091,-0.0082557927817106
1.772637219739124e+18,0.5891240234375,0.0053498148918151,0.078434944152832,-0.0171160697937011,0.0055926335044205,0.0074568446725606,-0.011185267008841
1.7726372197591142e+18,0.6091142578125,-0.0141056776046752,0.0648336410522461,0.0573983192443847,0.0105194775387644,0.0053263176232576,-0.0165115855634212
1.7726372197791045e+18,0.6291044921875,-0.0153785943984985,0.0790214538574218,0.0814652442932128,0.0094542140141129,-0.0031957905739545,-0.0159789528697729
1.7726372197990948e+18,0.6490947265625,-0.0164667963981628,0.1022806167602539,0.0681567192077636,-0.0010652635246515,-0.0138484258204698,-0.0093210563063621
1.7726372198190853e+18,0.669085205078125,-0.017446756362915,0.0778408050537109,0.0401148796081543,-0.0055926335044205,-0.0170442163944244,-0.0087884236127138
1.7726372198390756e+18,0.68907568359375,-0.0033598542213439,0.0676774978637695,0.0506949424743652,-0.0069242129102349,-0.0181094799190759,-0.0082557927817106
1.772637219859066e+18,0.709066162109375,-0.0328926444053649,0.0626773834228515,0.0759658813476562,-0.0061252652667462,-0.0234357975423336,-0.0029294746927917
1.7726372198790564e+18,0.729056396484375,-0.0526961088180542,0.0472850799560546,0.0968556404113769,-0.0050600017420947,-0.0205063223838806,0.0071905287913978
1.7726372198990467e+18,0.749046630859375,-0.0439731478691101,0.0409011840820312,0.094301700592041,-0.0058589493855834,-0.022370534017682,0.0077231605537235
1.7726372199190377e+18,0.76903759765625,-0.0351291894912719,0.0305671691894531,0.0865426063537597,-0.0098536871373653,-0.0237021129578351,0.0069242129102349
1.7726372199390313e+18,0.78903125,-0.0113714337348937,0.0488615036010742,0.0832781791687011,-0.0114515833556652,-0.0258326400071382,0.0079894764348864
1.772637219959025e+18,0.80902490234375,-0.0161694288253784,0.0527019500732421,0.1041493415832519,-0.0098536871373653,-0.0263652727007865,0.0127831622958183
1.7726372199790182e+18,0.829018310546875,-0.0033385753631591,0.032928466796875,0.1002893447875976,-0.0079894764348864,-0.0215715859085321,0.0122505305334925
1.7726372200190054e+18,0.86900537109375,-0.0474095344543457,0.0378761291503906,0.0805716514587402,-0.0023968429304659,-0.0141147412359714,0.0101200034841895
1.772637220038999e+18,0.8889990234375,-0.0233781933784484,0.0720129013061523,0.1034650802612304,-0.0015978952869772,-0.0061252652667462,0.0077231605537235
1.7726372200589926e+18,0.90899267578125,-0.0092532634735107,0.0390625,0.0927848815917968,0.0005326317623257,-0.0005326317623257,0.011185267008841
1.7726372200789862e+18,0.928986328125,0.0036945343017578,0.0397796630859375,0.1057252883911132,0.0023968429304659,0.0007989476434886,0.0077231605537235
1.7726372200989798e+18,0.948979736328125,-0.0441780686378479,0.0742053985595703,0.1082196235656738,0.0106526352465152,0.0063915811479091,0.0018642111681401
1.7726372201189732e+18,0.96897314453125,-0.0157399177551269,0.065312385559082,0.0590128898620605,0.0109189506620168,0.011185267008841,-0.0026631588116288
1.7726372201389668e+18,0.988966796875,0.0068734288215637,0.0418577194213867,0.0723600387573242,0.0061252652667462,0.0101200034841895,-0.0061252652667462
1.7726372201589604e+18,1.00896044921875,0.0151894092559814,0.0283756256103515,0.0513701438903808,0.0023968429304659,0.0071905287913978,-0.006657897029072
1.772637220178954e+18,1.0289541015625,0.0147941708564758,0.116098403930664,0.0055079460144042,0.0053263176232576,0.0013315794058144,-0.0069242129102349
1.7726372201989476e+18,1.048947509765625,-0.0126551389694213,0.1024417877197265,0.0282950401306152,0.0069242129102349,0.0031957905739545,-0.0098536871373653
1.7726372202189412e+18,1.068941162109375,0.0117859840393066,0.1363096237182617,0.0326786041259765,0.0031957905739545,0.0031957905739545,-0.0093210563063621
1.7726372202389348e+18,1.088934814453125,0.0024227499961853,0.1643505096435547,0.0244064331054687,0.0045273699797689,0.0023968429304659,-0.006657897029072
1.772637220258928e+18,1.10892822265625,0.0120502710342407,0.0913467407226562,0.016885757446289,0.0058589493855834,0.0,-0.0077231605537235
1.7726372202789217e+18,1.128921630859375,-0.0118049383163452,0.0764198303222656,0.0177946090698242,0.0042610540986061,-0.0031957905739545,-0.0149136893451213
1.7726372202989153e+18,1.148915283203125,-0.0256217718124389,0.1234588623046875,0.0194602012634277,-0.0029294746927917,-0.0034621064551174,-0.0093210563063621
1.772637220318909e+18,1.168908935546875,-0.0012823939323425,0.1318244934082031,0.0457749366760253,-0.0114515833556652,-0.0085221081972122,-0.0063915811479091
1.7726372203389025e+18,1.188902587890625,-0.0049711465835571,0.1018781661987304,0.0768709182739257,-0.0098536871373653,-0.0103863198310136,0.0069242129102349
1.772637220358896e+18,1.208896240234375,-0.0277013778686523,0.0812149047851562,0.0796723365783691,-0.0045273699797689,-0.0055926335044205,0.0106526352465152
1.7726372203788897e+18,1.2288896484375,-0.041990041732788,0.0459356307983398,0.1019802093505859,-0.0026631588116288,-0.0090547399595379,0.0087884236127138
1.772637220398883e+18,1.248883056640625,-0.0320655107498168,0.0250873565673828,0.1002736091613769,-0.0063915811479091,-0.0127831622958183,0.0069242129102349
1.7726372204188767e+18,1.268876708984375,-0.0313024520874023,0.0052595138549804,0.0930862426757812,-0.0149136893451213,-0.0167779009789228,0.0141147412359714
1.7726372204388708e+18,1.288870849609375,-0.0215368866920471,0.0085296630859375,0.099557876586914,-0.0154463211074471,-0.0162452682852745,0.0162452682852745
1.772637220458865e+18,1.308864990234375,-0.0070488452911376,0.0507764816284179,0.1203041076660156,-0.0151800047606229,-0.0175768472254276,0.0159789528697729
1.772637220478859e+18,1.32885888671875,-0.0358110070228576,0.0546159744262695,0.1076307296752929,-0.0130494777113199,-0.0191747434437274,0.0205063223838806
1.772637220498853e+18,1.34885302734375,-0.0211989283561706,0.0257749557495117,0.0604057312011718,-0.0090547399595379,-0.017310531809926,0.0191747434437274
1.7726372205188472e+18,1.36884716796875,-0.0077382326126098,0.0351085662841796,0.0319480895996093,-0.0063915811479091,-0.0031957905739545,0.0178431645035743
1.7726372205388413e+18,1.38884130859375,-0.0040817856788635,0.0872678756713867,0.0269598960876464,0.0002663158811628,0.0061252652667462,0.0109189506620168
1.7726372205588357e+18,1.408835693359375,0.0277358889579772,0.0875511169433593,0.0548987388610839,0.0047936858609318,0.0106526352465152,0.0087884236127138
1.7726372205788298e+18,1.428829833984375,0.0050426721572875,0.0640325546264648,0.0822501182556152,0.0074568446725606,0.0119842141866683,0.0087884236127138
1.772637220598824e+18,1.448823974609375,-0.0626141428947448,0.0840377807617187,0.0565834045410156,0.0069242129102349,0.0151800047606229,0.0077231605537235
1.772637220618818e+18,1.468818115234375,-0.0096518397331237,0.0943117141723632,-0.0067920684814453,0.0079894764348864,0.0101200034841895,0.0039947382174432
1.7726372206388122e+18,1.488812255859375,0.0001458525657653,0.1097869873046875,0.0439729690551757,0.0079894764348864,0.0055926335044205,-0.0010652635246515
1.7726372206588063e+18,1.50880615234375,-0.0188798308372497,0.0870809555053711,0.1039390563964843,0.0063915811479091,0.0034621064551174,-0.0026631588116288
1.7726372206788004e+18,1.52880029296875,-0.0195534229278564,0.0823774337768554,0.0886921882629394,0.0149136893451213,-0.0034621064551174,-0.0061252652667462
1.7726372207187886e+18,1.56878857421875,-0.0155740976333618,0.0542783737182617,0.1178092956542968,0.0135821104049682,-0.0055926335044205,-0.0098536871373653
1.7726372207387827e+18,1.58878271484375,-0.0014510154724121,0.0503034591674804,0.0828666687011718,-0.0037284223362803,-0.0023968429304659,-0.0058589493855834
1.7726372207587768e+18,1.60877685546875,-0.006544291973114,0.0649242401123046,0.0669202804565429,-0.0058589493855834,-0.0045273699797689,-0.0090547399595379
1.772637220778771e+18,1.62877099609375,0.0031978487968444,0.0898017883300781,0.0509228706359863,-0.0023968429304659,-0.0053263176232576,-0.0125168468803167
1.772637220798765e+18,1.64876513671875,0.0313846468925476,0.0433683395385742,0.0588288307189941,-0.0031957905739545,-0.0119842141866683,-0.0077231605537235
1.7726372208187592e+18,1.66875927734375,0.0064966082572937,0.0303316116333007,0.0897989273071289,-0.0015978952869772,-0.0119842141866683,0.0023968429304659
1.7726372208387533e+18,1.688753173828125,-0.0082265138626098,0.0650768280029296,0.0875635147094726,-0.0010652635246515,-0.0095873717218637,0.0007989476434886
1.7726372208587474e+18,1.708747314453125,5.2452087402e-06,0.0794763565063476,0.0670390129089355,-0.0034621064551174,0.0005326317623257,-0.0050600017420947
1.7726372208787415e+18,1.728741455078125,0.0167846083641052,0.0895824432373046,0.036928653717041,0.0037284223362803,0.0063915811479091,-0.0093210563063621
1.7726372208987356e+18,1.748735595703125,0.015980064868927,0.1042146682739257,0.0129632949829101,0.0037284223362803,0.0055926335044205,-0.0082557927817106
1.7726372209187297e+18,1.768729736328125,0.0443609356880188,0.1283273696899414,0.0126104354858398,0.0082557927817106,0.0055926335044205,-0.0135821104049682
1.7726372209387244e+18,1.788724365234375,0.0100377798080444,0.1376495361328125,-0.0014324188232421,0.0079894764348864,0.0082557927817106,-0.0154463211074471
1.7726372209587187e+18,1.80871875,0.0108242034912109,0.1037940979003906,-0.0103001594543457,0.0122505305334925,0.0151800047606229,-0.0117178987711668
1.772637220978713e+18,1.828713134765625,0.039620816707611,0.0748147964477539,-0.0050816535949707,0.0237021129578351,0.0207726396620273,-0.0095873717218637
1.7726372209987075e+18,1.84870751953125,0.0205259919166564,0.0889577865600586,0.0336732864379882,0.0258326400071382,0.0282294824719429,-0.0087884236127138
1.7726372210386964e+18,1.888696533203125,0.0227801203727722,0.1113777160644531,0.0464134216308593,0.0170442163944244,0.0290284305810928,-0.006657897029072
1.7726372210586908e+18,1.90869091796875,0.0288375616073608,0.0807437896728515,0.0452404022216796,0.0159789528697729,0.0199736915528774,-0.0010652635246515
1.7726372210786852e+18,1.928685302734375,0.0342131853103637,0.0745668411254882,0.038252830505371,0.0079894764348864,0.0141147412359714,0.002130527049303
1.7726372210986796e+18,1.948679443359375,0.0341681838035583,0.0547523498535156,0.0394134521484375,-0.0037284223362803,0.0018642111681401,0.0029294746927917
1.772637221118674e+18,1.968673828125,0.0201122760772705,0.0590677261352539,0.0690646171569824,0.0007989476434886,-0.0010652635246515,0.0018642111681401
1.7726372211386683e+18,1.988668212890625,-0.0080183744430542,0.0582647323608398,0.0706162452697753,-0.0018642111681401,0.0007989476434886,0.002130527049303
1.772637221158663e+18,2.008662841796875,-0.0441508889198303,0.0479049682617187,0.1106166839599609,-0.0090547399595379,-0.0015978952869772,0.0093210563063621
1.7726372211786573e+18,2.0286572265625,-0.0137883424758911,0.0616941452026367,0.1263189315795898,-0.0117178987711668,-0.0058589493855834,0.019441058859229
1.7726372211986516e+18,2.048651611328125,-0.01887047290802,0.046767234802246,0.1224713325500488,-0.0114515833556652,-0.0114515833556652,0.0207726396620273
1.7726372212386404e+18,2.088640380859375,-0.0144128203392028,0.069711685180664,0.1290130615234375,-0.0106526352465152,-0.0141147412359714,0.0125168468803167
1.772637221258635e+18,2.108635009765625,-0.0184828042984008,0.0645942687988281,0.1105575561523437,-0.0106526352465152,-0.0197073742747306,0.0058589493855834
1.7726372212786294e+18,2.12862939453125,0.0052660107612609,0.0356864929199218,0.0821714401245117,-0.0135821104049682,-0.0199736915528774,0.0101200034841895
1.7726372212986237e+18,2.148623779296875,-0.0321312546730041,0.0356254577636718,0.0679659843444824,-0.0170442163944244,-0.019441058859229,0.0119842141866683
1.772637221318618e+18,2.1686181640625,-0.0172040462493896,0.0456447601318359,0.0858440399169921,-0.0213052704930305,-0.0175768472254276,0.011185267008841
1.7726372213386125e+18,2.188612548828125,-0.0251545906066894,0.0699234008789062,0.0663862228393554,-0.0103863198310136,-0.0125168468803167,0.0074568446725606
1.7726372213586068e+18,2.20860693359375,-0.0229332447052001,0.0698966979980468,0.0859870910644531,-0.0023968429304659,-0.0087884236127138,0.0071905287913978
1.7726372213786015e+18,2.2286015625,-0.039980411529541,0.0553522109985351,0.1010308265686035,-0.0042610540986061,-0.0090547399595379,0.006657897029072
1.7726372213985958e+18,2.248595947265625,-0.0188337564468383,0.06976318359375,0.0773510932922363,-0.0079894764348864,-0.0101200034841895,0.0053263176232576
1.7726372214185902e+18,2.268590087890625,0.0071452260017395,0.0892324447631836,0.0676770210266113,-0.0087884236127138,-0.0090547399595379,0.0039947382174432
1.772637221438584e+18,2.288583984375,0.003191590309143,0.0759057998657226,0.027620792388916,-0.0053263176232576,-0.0069242129102349,0.0031957905739545
1.7726372214585782e+18,2.308578125,-0.0393661260604858,0.0673475265502929,0.0018281936645507,-0.0037284223362803,-0.0031957905739545,-0.0010652635246515
1.772637221478572e+18,2.328572021484375,-0.0279949903488159,0.068246841430664,0.0244770050048828,-0.0082557927817106,-0.0039947382174432,-0.0037284223362803
1.7726372214985661e+18,2.348566162109375,-0.0054842233657836,0.0928735733032226,0.0669665336608886,-0.0162452682852745,-0.0063915811479091,0.002130527049303
1.77263722151856e+18,2.36856005859375,-0.0123741030693054,0.1026315689086914,0.0910639762878418,-0.0154463211074471,-0.0053263176232576,0.0037284223362803
1.772637221538554e+18,2.38855419921875,-0.0354926586151123,0.0547904968261718,0.0921583175659179,-0.013315794058144,-0.0037284223362803,0.0037284223362803
1.772637221558548e+18,2.4085478515625,-0.0406531691551208,0.020817756652832,0.0976691246032714,-0.0143810575827956,-0.0010652635246515,0.0007989476434886
1.772637221578542e+18,2.4285419921875,-0.0208467841148376,0.0674238204956054,0.0942506790161132,-0.0122505305334925,0.0007989476434886,-0.0045273699797689
1.772637221598536e+18,2.448535888671875,-0.0522515773773193,0.0951557159423828,0.0868477821350097,-0.0031957905739545,-0.0061252652667462,-0.0103863198310136
1.772637221638524e+18,2.48852392578125,-0.0306412577629089,0.0317764282226562,0.0663404464721679,-0.0087884236127138,-0.0090547399595379,-0.0095873717218637
1.772637221658518e+18,2.50851806640625,-0.0344709157943725,0.0222053527832031,0.0808568000793457,-0.022370534017682,-0.0101200034841895,-0.0037284223362803
1.7726372216785119e+18,2.528511962890625,-0.0285602211952209,0.0560741424560546,0.1139864921569824,-0.0255663245916366,-0.0109189506620168,-0.0015978952869772
1.772637221698506e+18,2.548506103515625,-0.0330459475517272,0.089029312133789,0.1044259071350097,-0.0165115855634212,-0.0109189506620168,0.0063915811479091
1.7726372217184998e+18,2.568499755859375,-0.0429412722587585,0.0791597366333007,0.0665602684020996,-0.0053263176232576,-0.0098536871373653,0.0063915811479091
1.772637221738494e+18,2.588493896484375,-0.0560248494148254,0.0322065353393554,0.0900959968566894,0.0002663158811628,-0.0002663158811628,0.0058589493855834
1.7726372217584878e+18,2.60848779296875,-0.0293686389923095,0.0515050888061523,0.1227765083312988,-0.0079894764348864,0.0002663158811628,0.0109189506620168
1.772637221778482e+18,2.62848193359375,-0.0178436636924743,0.0948772430419921,0.0986919403076171,-0.0122505305334925,0.0002663158811628,0.013315794058144
1.772637221798476e+18,2.64847607421875,-0.0171525478363037,0.0660943984985351,0.1036667823791503,-0.0085221081972122,-0.002130527049303,0.0103863198310136
1.77263722181847e+18,2.668469970703125,-0.0306495428085327,0.0471792221069335,0.0506625175476074,-0.0031957905739545,0.0005326317623257,0.0053263176232576
1.772637221838464e+18,2.688464111328125,-0.0053592920303344,0.0529432296752929,0.0347766876220703,-0.0034621064551174,0.0058589493855834,-0.0015978952869772
1.7726372218584579e+18,2.708457763671875,0.004210352897644,0.1018972396850586,0.0520668029785156,-0.0013315794058144,0.0074568446725606,-0.0023968429304659
1.772637221878452e+18,2.728451904296875,0.0037402510643005,0.093170166015625,0.0600371360778808,0.0053263176232576,0.0061252652667462,0.0015978952869772
1.7726372218984458e+18,2.74844580078125,0.0031163692474365,0.0796594619750976,0.0488061904907226,0.0045273699797689,0.0109189506620168,0.0
1.7726372219184397e+18,2.768439697265625,-0.0266198515892028,0.0661182403564453,0.0854773521423339,-0.0037284223362803,0.0170442163944244,-0.0055926335044205
1.7726372219384335e+18,2.78843359375,-0.0185845494270324,0.0677671432495117,0.1072897911071777,-0.0034621064551174,0.0205063223838806,-0.0047936858609318
1.7726372219584271e+18,2.80842724609375,-0.0206286907196044,0.0777807235717773,0.1050939559936523,0.0026631588116288,0.017310531809926,-0.0007989476434886
1.772637221978421e+18,2.8284208984375,-0.0184065103530883,0.0556259155273437,0.0689663887023925,0.0050600017420947,0.0130494777113199,-0.0013315794058144
1.7726372219984148e+18,2.848414794921875,-0.0307634472846984,0.04766845703125,0.0655732154846191,-0.0002663158811628,0.0157126374542713,-0.0061252652667462
1.7726372220184084e+18,2.868408447265625,-0.0330052971839904,0.0824518203735351,0.0906181335449218,0.0026631588116288,0.0109189506620168,-0.0117178987711668
1.7726372220384023e+18,2.88840234375,-0.0016016364097595,0.1031036376953125,0.08697509765625,0.0053263176232576,0.006657897029072,-0.0106526352465152
1.772637222058396e+18,2.90839599609375,-0.0097208619117736,0.0757789611816406,0.0424013137817382,0.0055926335044205,0.0050600017420947,-0.0095873717218637
1.7726372220783898e+18,2.9283896484375,-0.0352450013160705,0.0433578491210937,0.0113744735717773,0.0077231605537235,0.0063915811479091,-0.0103863198310136
1.7726372220983834e+18,2.94838330078125,-0.0073687434196472,0.0732297897338867,-0.0195565223693847,0.0130494777113199,0.0082557927817106,-0.011185267008841
1.7726372221183772e+18,2.968377197265625,-0.0228760242462158,0.1114406585693359,0.0362734794616699,0.0189084280282259,0.0162452682852745,-0.0143810575827956
1.7726372221383708e+18,2.988370849609375,-6.66975975036e-05,0.1401748657226562,0.0744237899780273,0.022370534017682,0.0170442163944244,-0.0146473739296197
1.7726372221583647e+18,3.00836474609375,-0.0105215907096862,0.130828857421875,0.0307297706604003,0.0255663245916366,0.0159789528697729,-0.019441058859229
1.7726372221783583e+18,3.028358154296875,-0.0017641186714172,0.0929632186889648,0.0068755149841308,0.0260989554226398,0.019441058859229,-0.0226368494331836
1.7726372221983521e+18,3.04835205078125,-0.017435073852539,0.0589380264282226,0.0123219490051269,0.023169482126832,0.022370534017682,-0.0221042186021804
1.7726372222183457e+18,3.068345703125,-0.0181092619895935,0.0491113662719726,0.0366020202636718,0.0284957997500896,0.0197073742747306,-0.0165115855634212
1.7726372222383396e+18,3.088339599609375,0.005537211894989,0.0729694366455078,0.0416216850280761,0.0279631670564413,0.0221042186021804,-0.013315794058144
1.7726372222583334e+18,3.10833349609375,0.0328165292739868,0.0728092193603515,0.0656089782714843,0.0197073742747306,0.0247673764824867,-0.017310531809926
1.772637222278327e+18,3.1283271484375,0.0018382668495178,0.0772600173950195,0.1137423515319824,0.0159789528697729,0.0183757953345775,-0.0114515833556652
1.772637222298321e+18,3.14832080078125,-0.0125321149826049,0.0526285171508789,0.1196503639221191,0.0135821104049682,0.0130494777113199,-0.0047936858609318
1.7726372223183145e+18,3.168314453125,0.0015254616737365,0.0327672958374023,0.1065840721130371,0.0119842141866683,0.0106526352465152,-0.0026631588116288
1.7726372223383084e+18,3.188308349609375,-0.0304499268531799,0.0133562088012695,0.0976176261901855,0.0069242129102349,0.0047936858609318,-0.0029294746927917
1.772637222358302e+18,3.208302001953125,-0.0143713951110839,0.0040693283081054,0.1404981613159179,0.0050600017420947,-0.0023968429304659,0.0031957905739545
1.7726372223782958e+18,3.2282958984375,0.0041338801383972,0.0379867553710937,0.18292236328125,0.0050600017420947,-0.0045273699797689,0.0037284223362803
1.7726372223982894e+18,3.248289306640625,-0.0246473550796508,0.0623102188110351,0.1294460296630859,-0.0042610540986061,-0.0063915811479091,0.002130527049303
1.772637222418283e+18,3.268282958984375,-0.024218201637268,0.0296344757080078,0.0567002296447753,-0.0023968429304659,-0.0079894764348864,0.0013315794058144
1.7726372224382753e+18,3.288275390625,-0.0332756042480468,0.0307264328002929,0.0212869644165039,0.0074568446725606,-0.0079894764348864,0.0018642111681401
1.7726372224582676e+18,3.308267578125,-0.0187349319458007,0.0655441284179687,0.0094184875488281,0.0039947382174432,-0.0093210563063621,0.0047936858609318
1.77263722247826e+18,3.328260009765625,-0.0099318623542785,0.0903682708740234,0.0210018157958984,-0.0029294746927917,-0.0053263176232576,0.0095873717218637
1.7726372224982523e+18,3.348252197265625,-0.0013803839683532,0.1158323287963867,0.003824234008789,-0.0034621064551174,-0.0007989476434886,0.0061252652667462
1.7726372225182446e+18,3.36824462890625,0.0122294425964355,0.1358041763305664,0.0213923454284667,-0.0050600017420947,0.0071905287913978,0.0015978952869772
1.7726372225582295e+18,3.4082294921875,0.0296069979667663,0.1394195556640625,-0.0055394172668457,-0.0002663158811628,0.0101200034841895,-0.0042610540986061
1.7726372225782218e+18,3.428221923828125,-0.0178563594818115,0.1004495620727539,-0.0139861106872558,0.0130494777113199,0.0151800047606229,-0.0042610540986061
1.7726372225982141e+18,3.448214111328125,-0.0265564918518066,0.1098737716674804,0.0098090171813964,0.0117178987711668,0.0218379013240337,-0.0082557927817106
1.7726372226182065e+18,3.46820654296875,-0.0068611502647399,0.0866098403930664,0.0336904525756835,0.0101200034841895,0.023169482126832,-0.0122505305334925
1.7726372226381988e+18,3.48819873046875,-0.0056835412979125,0.0481939315795898,0.0436372756958007,0.0087884236127138,0.0210389550775289,-0.0141147412359714
1.772637222658191e+18,3.508191162109375,-0.0236422419548034,0.0713090896606445,0.0836939811706543,0.0135821104049682,0.0207726396620273,-0.017310531809926
1.7726372226781834e+18,3.528183349609375,0.0134720206260681,0.0654821395874023,0.0806708335876464,0.0143810575827956,0.0183757953345775,-0.0186421126127243
1.7726372226981757e+18,3.54817578125,0.0219388604164123,0.0362234115600585,0.062838077545166,0.0077231605537235,0.0090547399595379,-0.0149136893451213
1.772637222718168e+18,3.56816796875,-0.0383092761039733,0.0511245727539062,0.0812954902648925,0.0037284223362803,-0.0010652635246515,-0.0045273699797689
1.7726372227381604e+18,3.588160400390625,-0.0261317491531372,0.0572900772094726,0.0984296798706054,0.0031957905739545,-0.0053263176232576,0.0061252652667462
1.7726372227581527e+18,3.608152587890625,0.0076194405555725,0.0588407516479492,0.1197190284729003,-0.0029294746927917,-0.0101200034841895,0.0101200034841895
1.772637222778145e+18,3.62814501953125,-0.0255295038223266,0.0648479461669921,0.0983176231384277,-0.0106526352465152,-0.0162452682852745,0.0047936858609318
1.7726372227981373e+18,3.648137451171875,-0.0339460372924804,0.0514841079711914,0.1110663414001464,-0.0127831622958183,-0.0130494777113199,0.0029294746927917
1.77263722281813e+18,3.6681298828125,-0.0130005478858947,0.0667457580566406,0.0858078002929687,-0.0098536871373653,-0.0106526352465152,0.0005326317623257
1.7726372228381222e+18,3.688122314453125,-0.0117861032485961,0.0625877380371093,0.0800824165344238,-0.0141147412359714,-0.0098536871373653,0.0077231605537235
1.7726372228581146e+18,3.708114501953125,0.0079815983772277,0.0536317825317382,0.0935268402099609,-0.0077231605537235,-0.0103863198310136,0.0125168468803167
1.772637222878107e+18,3.72810693359375,0.0326854586601257,0.0776185989379882,0.0781393051147461,0.0026631588116288,-0.006657897029072,0.0095873717218637
1.7726372228980992e+18,3.74809912109375,0.0060582756996154,0.0691814422607421,0.0768141746520996,-0.0002663158811628,-0.0018642111681401,0.0
1.7726372229180918e+18,3.768091796875,0.0123132467269897,0.0746564865112304,0.066347599029541,-0.0082557927817106,0.0095873717218637,-0.0087884236127138
1.7726372229380856e+18,3.788085693359375,0.0432493686676025,0.0944528579711914,0.0272493362426757,-0.0026631588116288,0.0175768472254276,-0.0162452682852745
1.7726372229580792e+18,3.808079345703125,0.054397165775299,0.0805349349975586,-0.0020537376403808,0.0114515833556652,0.0197073742747306,-0.0162452682852745
1.772637222978073e+18,3.828072998046875,0.0265700221061706,0.0767173767089843,0.0107111930847167,0.0127831622958183,0.0268979035317897,-0.0127831622958183
1.772637222998067e+18,3.84806689453125,0.0147144794464111,0.0731592178344726,0.0561099052429199,0.0069242129102349,0.0290284305810928,-0.0109189506620168
1.7726372230180605e+18,3.868060546875,0.016203224658966,0.0595359802246093,0.0837459564208984,0.0063915811479091,0.0276968516409397,-0.0085221081972122
1.7726372230380544e+18,3.888054443359375,0.0301718711853027,0.0505485534667968,0.0539536476135253,0.0074568446725606,0.0279631670564413,-0.0079894764348864
1.7726372230580483e+18,3.90804833984375,0.0026185512542724,0.0704622268676757,0.0478992462158203,0.0114515833556652,0.0300936941057443,-0.0085221081972122
1.772637223078042e+18,3.9280419921875,0.0492316484451293,0.0903539657592773,0.070411205291748,0.0130494777113199,0.034621063619852,-0.0079894764348864
1.7726372230980357e+18,3.94803564453125,0.0235062837600708,0.0909605026245117,0.1079297065734863,0.0055926335044205,0.0311589576303958,-0.0069242129102349
1.7726372231180296e+18,3.968029541015625,-0.0094987750053405,0.1009187698364257,0.0689082145690918,0.0026631588116288,0.0284957997500896,-0.0077231605537235
1.772637223158017e+18,4.00801708984375,0.0266918540000915,0.0638284683227539,0.0007362365722656,0.0013315794058144,0.0258326400071382,-0.0058589493855834
1.772637223178011e+18,4.028010986328125,0.0509524941444397,0.0745325088500976,0.0226988792419433,0.0061252652667462,0.0229031667113304,-0.0077231605537235
1.7726372231980047e+18,4.048004638671875,0.031602144241333,0.0753622055053711,0.0499029159545898,0.0002663158811628,0.0135821104049682,-0.0135821104049682
1.7726372232179983e+18,4.067998291015625,0.0131506323814392,0.0713167190551757,0.0293984413146972,-0.0053263176232576,0.0127831622958183,-0.0093210563063621
1.7726372232379922e+18,4.0879921875,-0.0100241899490356,0.0866765975952148,0.0373139381408691,0.0018642111681401,0.0103863198310136,-0.0069242129102349
1.772637223257986e+18,4.107986083984375,-0.0095061063766479,0.1014842987060546,0.0307235717773437,0.0042610540986061,0.0119842141866683,-0.0077231605537235
1.77263722327798e+18,4.12797998046875,-0.0141468048095703,0.0884914398193359,0.0101604461669921,0.0055926335044205,0.0151800047606229,-0.0090547399595379
1.7726372232979735e+18,4.147973388671875,-0.0087120532989501,0.0893173217773437,0.0129499435424804,0.0165115855634212,0.0127831622958183,-0.0098536871373653
1.7726372233179674e+18,4.16796728515625,0.0013247728347778,0.114293098449707,0.0255341529846191,0.0138484258204698,0.0141147412359714,-0.0074568446725606
1.7726372233379612e+18,4.187961181640625,0.0111131072044372,0.1240739822387695,0.0204172134399414,0.0034621064551174,0.0165115855634212,-0.0034621064551174
1.7726372233579548e+18,4.207954833984375,0.0106488466262817,0.0854749679565429,0.0016708374023437,-0.0007989476434886,0.0167779009789228,-0.0063915811479091
1.7726372233779487e+18,4.22794873046875,-0.0049788355827331,0.0664892196655273,0.0011320114135742,-0.0002663158811628,0.0127831622958183,-0.0114515833556652
1.7726372233979425e+18,4.247942626953125,-0.0152595043182373,0.0674581527709961,0.018404483795166,0.0042610540986061,0.0071905287913978,-0.0114515833556652
1.7726372234179361e+18,4.26793603515625,-0.0299539566040039,0.0784597396850586,0.087012767791748,0.0039947382174432,0.0061252652667462,-0.0093210563063621
1.7726372234379295e+18,4.287929443359375,-0.0348752737045288,0.0603876113891601,0.075411319732666,-0.0007989476434886,0.0037284223362803,-0.0085221081972122
1.7726372234579228e+18,4.3079228515625,-0.0400100946426391,0.022749900817871,0.0932526588439941,-0.002130527049303,0.0053263176232576,-0.0109189506620168
1.7726372234779162e+18,4.327916259765625,-0.0177258849143981,0.0135488510131835,0.08268404006958,0.002130527049303,0.0058589493855834,-0.0098536871373653
1.7726372234979095e+18,4.347909423828125,-0.0241265296936035,0.0334644317626953,0.0912127494812011,-0.0005326317623257,0.0045273699797689,-0.0077231605537235
1.7726372235179028e+18,4.36790283203125,-0.0115370750427246,0.0392541885375976,0.0890741348266601,-0.0010652635246515,0.0039947382174432,-0.0114515833556652
1.7726372235378962e+18,4.387896240234375,-0.0132924318313598,0.0600299835205078,0.0858144760131836,-0.002130527049303,0.0002663158811628,-0.0071905287913978
1.7726372235578895e+18,4.4078896484375,0.0037137866020202,0.0574617385864257,0.0765633583068847,-0.0031957905739545,-0.0050600017420947,0.0023968429304659
1.772637223577883e+18,4.4278828125,-0.0276550650596618,0.0360345840454101,0.0762491226196289,0.0002663158811628,-0.0106526352465152,0.0005326317623257
1.7726372235978762e+18,4.447876220703125,-0.0257543325424194,0.0578508377075195,0.0708556175231933,-0.002130527049303,-0.0151800047606229,-0.0055926335044205
1.7726372236178696e+18,4.46786962890625,-0.0191194415092468,0.0415163040161132,0.0699114799499511,-0.006657897029072,-0.017310531809926,-0.0125168468803167
1.772637223637863e+18,4.48786279296875,-0.0259785652160644,0.0394296646118164,0.0932927131652832,-0.0063915811479091,-0.0143810575827956,-0.0122505305334925
1.7726372236578563e+18,4.507856201171875,-0.0142380595207214,0.0656681060791015,0.1221404075622558,-0.0039947382174432,-0.0087884236127138,-0.0087884236127138
1.7726372236778496e+18,4.527849609375,-0.045623779296875,0.0725250244140625,0.0890974998474121,0.0007989476434886,-0.0087884236127138,-0.0042610540986061
1.772637223697843e+18,4.547843017578125,-0.0186632275581359,0.074467658996582,0.0660123825073242,0.0050600017420947,-0.0101200034841895,-0.0061252652667462
1.7726372237178363e+18,4.567836181640625,-0.0245798230171203,0.0811910629272461,0.0574316978454589,0.0050600017420947,-0.0095873717218637,-0.0095873717218637
1.7726372237378296e+18,4.58782958984375,-0.0199782848358154,0.0635824203491211,0.0497169494628906,0.0058589493855834,-0.0071905287913978,-0.0141147412359714
1.772637223757823e+18,4.607822998046875,-0.019936203956604,0.0454092025756835,0.0478830337524414,0.0069242129102349,-0.0071905287913978,-0.0221042186021804
1.7726372237778163e+18,4.62781640625,-0.0386737585067749,0.0601797103881835,0.061591625213623,0.0069242129102349,-0.013315794058144,-0.0260989554226398
1.7726372237978097e+18,4.6478095703125,-0.0146973133087158,0.0510416030883789,0.046398639678955,0.0061252652667462,-0.019441058859229,-0.0282294824719429
1.772637223817803e+18,4.667802978515625,-0.0104051232337951,0.0330629348754882,0.048891544342041,0.0077231605537235,-0.0186421126127243,-0.0306263267993927
1.7726372238377964e+18,4.68779638671875,-0.0584339499473571,0.049025535583496,0.0315380096435546,0.0034621064551174,-0.019441058859229,-0.0303600095212459
1.7726372238577897e+18,4.707789794921875,-0.0288988947868347,0.0792427062988281,0.043311595916748,0.002130527049303,-0.0205063223838806,-0.0271642208099365
1.772637223877783e+18,4.727782958984375,0.0098689198493957,0.085092544555664,0.051100730895996,0.0058589493855834,-0.019441058859229,-0.0234357975423336
1.7726372238977764e+18,4.7477763671875,0.0156199932098388,0.0762977600097656,0.0354328155517578,0.0002663158811628,-0.022370534017682,-0.0210389550775289
1.7726372239177697e+18,4.767769775390625,0.0025025010108947,0.0727672576904296,0.0333032608032226,-0.0039947382174432,-0.0239684283733367,-0.0205063223838806
1.7726372239577572e+18,4.807757080078125,-0.0183454751968383,0.076028823852539,0.051612377166748,-0.0079894764348864,-0.0213052704930305,-0.017310531809926
1.7726372239777508e+18,4.827750732421875,-0.0221471190452575,0.0868091583251953,0.0447554588317871,-0.0103863198310136,-0.0191747434437274,-0.0125168468803167
1.7726372239977446e+18,4.84774462890625,0.0068838596343994,0.083414077758789,0.0614638328552246,-0.011185267008841,-0.020240006968379,-0.0042610540986061
1.7726372240177385e+18,4.867738525390625,-0.0074993968009948,0.0753335952758789,0.048962116241455,-0.0103863198310136,-0.0157126374542713,-0.0015978952869772
1.772637224037732e+18,4.887732177734375,-0.012428343296051,0.0808544158935546,0.0571484565734863,-0.0026631588116288,-0.0074568446725606,-0.0077231605537235
1.772637224057726e+18,4.907725830078125,-0.0115752816200256,0.057234764099121,0.0279269218444824,0.0,-0.0045273699797689,-0.0154463211074471
1.7726372240777196e+18,4.927719482421875,-0.0247406959533691,0.0914888381958007,0.0172157287597656,-0.0007989476434886,0.0005326317623257,-0.0170442163944244
1.7726372240977134e+18,4.94771337890625,-0.0091750025749206,0.1068525314331054,0.0676703453063964,-0.0047936858609318,0.0010652635246515,-0.0127831622958183
1.7726372241177073e+18,4.967707275390625,-0.0028643012046813,0.1073999404907226,0.0717053413391113,-0.0069242129102349,0.0,-0.0074568446725606
1.7726372241377009e+18,4.987700927734375,0.0313487648963928,0.1072492599487304,0.0578432083129882,-0.0058589493855834,-0.0010652635246515,-0.0103863198310136
1.7726372241576947e+18,5.00769482421875,-0.0180578827857971,0.0875988006591796,0.0496525764465332,-0.0101200034841895,-0.002130527049303,-0.0135821104049682
1.7726372241776883e+18,5.027688232421875,-0.0177845954895019,0.0633535385131836,0.0463013648986816,-0.0109189506620168,-0.0055926335044205,-0.017310531809926
1.7726372241976822e+18,5.04768212890625,-0.0322489738464355,0.063359260559082,0.0758619308471679,-0.0087884236127138,-0.0074568446725606,-0.0127831622958183
1.7726372242176758e+18,5.06767578125,-0.0095797777175903,0.0401601791381835,0.0798478126525878,-0.0077231605537235,-0.0015978952869772,-0.0119842141866683
1.7726372242376696e+18,5.087669677734375,-0.0125691890716552,0.026982307434082,0.0875015258789062,-0.0007989476434886,0.0,-0.0162452682852745
1.7726372242576632e+18,5.107663330078125,-0.0257404446601867,0.0418653488159179,0.1107058525085449,0.0029294746927917,-0.0002663158811628,-0.0130494777113199
1.772637224277657e+18,5.127656982421875,-0.0015541315078735,0.0702934265136718,0.140087604522705,-0.0002663158811628,0.0029294746927917,-0.0047936858609318
1.772637224297651e+18,5.14765087890625,-0.0248990058898925,0.06591796875,0.09210205078125,-0.0031957905739545,0.0055926335044205,-0.0050600017420947
1.7726372243176445e+18,5.16764453125,-0.0390660762786865,0.0152502059936523,0.069157600402832,-0.002130527049303,0.0090547399595379,-0.0090547399595379
1.7726372243376384e+18,5.187638427734375,-0.047178030014038,0.0133018493652343,0.1023902893066406,-0.0034621064551174,0.0095873717218637,-0.0087884236127138
1.772637224357632e+18,5.207632080078125,-0.0012065768241882,0.058502197265625,0.1037573814392089,-0.0029294746927917,0.0106526352465152,-0.0015978952869772
1.7726372243776259e+18,5.2276259765625,-0.0027844905853271,0.1076116561889648,0.1164226531982421,-0.002130527049303,0.0125168468803167,0.0050600017420947
1.7726372243976197e+18,5.24761962890625,0.0276166200637817,0.0945310592651367,0.0807371139526367,-0.0165115855634212,0.0143810575827956,0.0074568446725606
1.772637224417613e+18,5.267613037109375,-0.0184680223464965,0.0576448440551757,0.0208353996276855,-0.0199736915528774,0.0178431645035743,0.0058589493855834
1.7726372244376061e+18,5.287606201171875,-0.0016451478004455,0.0403032302856445,0.0273976325988769,-0.0157126374542713,0.0157126374542713,-0.0005326317623257
1.772637224457599e+18,5.307598876953125,-0.0380929708480834,0.0804347991943359,0.0243082046508789,-0.0063915811479091,0.0157126374542713,-0.0106526352465152
1.7726372244775918e+18,5.327591796875,0.0170031785964965,0.0821723937988281,0.0453872680664062,0.0013315794058144,0.0186421126127243,-0.0103863198310136
1.772637224497585e+18,5.3475849609375,0.037958025932312,0.1024456024169921,0.0477843284606933,0.0050600017420947,0.0181094799190759,0.0
1.7726372245175777e+18,5.36757763671875,0.0294806361198425,0.1219358444213867,0.0611300468444824,0.0095873717218637,0.020240006968379,0.0015978952869772
1.7726372245375706e+18,5.387570556640625,0.0443288683891296,0.1167573928833007,0.0284070968627929,0.0101200034841895,0.0247673764824867,-0.0149136893451213
1.7726372245575634e+18,5.4075634765625,0.0396063327789306,0.1069440841674804,0.0144848823547363,0.0143810575827956,0.032490536570549,-0.0300936941057443
1.7726372245775565e+18,5.427556396484375,0.0200121402740478,0.0832223892211914,0.0139698982238769,0.0050600017420947,0.0343547500669956,-0.0292947478592395
1.7726372245975493e+18,5.44754931640625,0.0099413990974426,0.0741252899169921,0.0512967109680175,0.0002663158811628,0.0348873808979988,-0.0159789528697729
1.7726372246175421e+18,5.467542236328125,0.0095478892326354,0.0651369094848632,0.0596833229064941,0.0007989476434886,0.031691588461399,-0.0127831622958183
1.7726372246375352e+18,5.48753515625,0.0140721797943115,0.0654993057250976,0.0781159400939941,0.0053263176232576,0.0239684283733367,-0.0149136893451213
1.772637224657528e+18,5.507528076171875,0.027380883693695,0.0845937728881836,0.0732755661010742,-0.0042610540986061,0.0175768472254276,-0.017310531809926
1.772637224677521e+18,5.52752099609375,-0.0176608562469482,0.0650854110717773,0.0592255592346191,-0.0050600017420947,0.0125168468803167,-0.0191747434437274
1.772637224697514e+18,5.547513916015625,-0.0141574740409851,0.0457534790039062,0.0551338195800781,-0.0063915811479091,0.0135821104049682,-0.0189084280282259
1.7726372247175068e+18,5.5675068359375,-0.0101704597473144,0.06024169921875,0.0739421844482421,-0.0071905287913978,0.0095873717218637,-0.0154463211074471
1.7726372247374996e+18,5.587499755859375,0.0077852606773376,0.0796318054199218,0.0924677848815918,-0.0058589493855834,0.0063915811479091,-0.0069242129102349
1.7726372247574925e+18,5.607492431640625,-0.0078072547912597,0.0751495361328125,0.0820937156677246,-0.0050600017420947,-0.0002663158811628,0.0018642111681401
1.7726372247774856e+18,5.627485595703125,0.0064368844032287,0.0704126358032226,0.048431396484375,-0.0042610540986061,-0.0047936858609318,0.0042610540986061
1.7726372247974784e+18,5.647478515625,-0.0032992959022521,0.0751972198486328,0.0627918243408203,-0.0026631588116288,-0.0037284223362803,0.0005326317623257
1.7726372248174712e+18,5.66747119140625,-0.0274441838264465,0.0746994018554687,0.0684928894042968,0.0,-0.006657897029072,-0.0039947382174432
1.772637224837464e+18,5.687464111328125,-0.027560532093048,0.0649795532226562,0.059147834777832,-0.0010652635246515,-0.0063915811479091,-0.0063915811479091
1.7726372248574572e+18,5.70745703125,-0.0033262372016906,0.0556230545043945,0.0396065711975097,-0.0015978952869772,-0.0061252652667462,-0.0047936858609318
1.77263722487745e+18,5.727449951171875,0.0094941854476928,0.060429573059082,0.0728449821472168,-0.0005326317623257,-0.0079894764348864,-0.0013315794058144
1.7726372248974428e+18,5.74744287109375,-0.021507978439331,0.0746431350708007,0.1015052795410156,0.0023968429304659,-0.0090547399595379,0.0037284223362803
1.7726372249174356e+18,5.767435546875,-0.0277642607688903,0.0647554397583007,0.0587120056152343,0.0077231605537235,-0.0071905287913978,0.0010652635246515
1.7726372249374285e+18,5.787428466796875,0.0230522751808166,0.0553808212280273,0.0244569778442382,0.0029294746927917,-0.0045273699797689,-0.0002663158811628
1.7726372249574216e+18,5.807421630859375,0.0284001231193542,0.1085281372070312,0.02777099609375,0.0037284223362803,-0.002130527049303,-0.0015978952869772
1.7726372249774144e+18,5.827414306640625,-0.0082588791847229,0.1084222793579101,0.0321078300476074,0.0061252652667462,-0.0039947382174432,-0.0042610540986061
1.7726372249974072e+18,5.8474072265625,-0.0235245823860168,0.1033792495727539,0.0372200012207031,0.0029294746927917,-0.0010652635246515,-0.002130527049303
1.7726372250174e+18,5.867400146484375,0.0105137825012207,0.1083450317382812,0.0040388107299804,-0.0007989476434886,-0.0013315794058144,-0.0002663158811628
1.772637225037393e+18,5.887392822265625,0.0157338976860046,0.0943861007690429,0.0129146575927734,-0.0018642111681401,-0.0063915811479091,0.0037284223362803
1.7726372250773786e+18,5.927378662109375,-0.0030481219291687,0.0850601196289062,0.0508179664611816,-0.0018642111681401,-0.0050600017420947,0.0053263176232576
1.7726372250973714e+18,5.947371337890625,0.0124433636665344,0.0609292984008789,0.0555396080017089,-0.0047936858609318,-0.0077231605537235,-0.0005326317623257
1.7726372251173642e+18,5.9673642578125,-0.0012290477752685,0.0606899261474609,0.0656995773315429,-0.0058589493855834,-0.0157126374542713,-0.0010652635246515
1.772637225137357e+18,5.987357177734375,-0.019433319568634,0.0795364379882812,0.0664682388305664,0.0029294746927917,-0.017310531809926,0.0013315794058144
1.77263722515735e+18,6.007349853515625,-0.0189263224601745,0.0648384094238281,0.033637523651123,0.0047936858609318,-0.0130494777113199,0.0023968429304659
1.7726372251773427e+18,6.0273427734375,-0.0082615613937377,0.0742778778076171,0.0053529739379882,0.0034621064551174,-0.0079894764348864,0.0007989476434886
1.7726372251973358e+18,6.047335693359375,0.0014823079109191,0.0693950653076171,0.0630469322204589,0.0087884236127138,-0.0127831622958183,-0.0058589493855834
1.7726372252173286e+18,6.06732861328125,-0.0043097138404846,0.0593757629394531,0.0966386795043945,0.0125168468803167,-0.0213052704930305,-0.0047936858609318
1.7726372252373215e+18,6.087321533203125,-0.0145487785339355,0.0683193206787109,0.0785660743713378,-0.0005326317623257,-0.0263652727007865,0.0026631588116288
1.7726372252573143e+18,6.107314208984375,-0.0282346010208129,0.0821132659912109,0.070202350616455,-0.0141147412359714,-0.0268979035317897,0.0037284223362803
1.7726372252773071e+18,6.12730712890625,-0.0076944231986999,0.0818004608154296,0.0566616058349609,-0.0162452682852745,-0.0237021129578351,-0.0023968429304659
1.7726372252973e+18,6.147300048828125,0.0078368186950683,0.0626583099365234,0.0334663391113281,-0.0157126374542713,-0.025300009176135,-0.0013315794058144
1.7726372253172928e+18,6.167292724609375,-0.0106375813484191,0.0631008148193359,0.0567021369934082,-0.0127831622958183,-0.025300009176135,0.0015978952869772
1.7726372253372856e+18,6.18728564453125,-0.028285264968872,0.0828285217285156,0.0750608444213867,-0.0151800047606229,-0.0178431645035743,0.0034621064551174
1.7726372253572785e+18,6.207278564453125,-0.017139196395874,0.0879535675048828,0.0555353164672851,-0.0143810575827956,-0.0175768472254276,0.0047936858609318
1.7726372253772713e+18,6.227271240234375,-0.011286973953247,0.0881185531616211,0.0506172180175781,-0.0141147412359714,-0.0178431645035743,0.0058589493855834
1.7726372253972641e+18,6.24726416015625,-0.0150383114814758,0.0690717697143554,0.0553669929504394,-0.0151800047606229,-0.0197073742747306,0.006657897029072
1.772637225417257e+18,6.267257080078125,-0.0604137182235717,0.0738115310668945,0.0558977127075195,-0.0154463211074471,-0.0226368494331836,0.0053263176232576
1.7726372254372495e+18,6.28724951171875,-0.0478309988975524,0.0592374801635742,0.0903348922729492,-0.0186421126127243,-0.025300009176135,0.0039947382174432
1.772637225457242e+18,6.3072421875,-0.0068410634994506,0.0541467666625976,0.0865631103515625,-0.0119842141866683,-0.0276968516409397,0.0050600017420947
1.7726372254772347e+18,6.327234619140625,-0.0040051937103271,0.0825023651123046,0.0734090805053711,-0.0074568446725606,-0.0258326400071382,0.0085221081972122
1.7726372254972273e+18,6.347227294921875,-0.0300998091697692,0.0628290176391601,0.0652408599853515,-0.0093210563063621,-0.0197073742747306,0.0087884236127138
1.7726372255172198e+18,6.3672197265625,-0.0226120948791503,0.0627164840698242,0.0515379905700683,-0.0143810575827956,-0.013315794058144,0.0074568446725606
1.7726372255372124e+18,6.38721240234375,0.0042417645454406,0.058349609375,0.0608077049255371,-0.0138484258204698,-0.0098536871373653,0.0045273699797689
1.772637225557205e+18,6.407205078125,-0.0069028735160827,0.0540122985839843,0.0748648643493652,-0.0109189506620168,-0.0114515833556652,-0.0007989476434886
1.7726372255771976e+18,6.427197509765625,-0.0182784795761108,0.0591201782226562,0.0939292907714843,-0.0143810575827956,-0.0146473739296197,-0.0026631588116288
1.7726372255971901e+18,6.447190185546875,-0.0247625708580017,0.0591564178466796,0.0847907066345214,-0.0170442163944244,-0.0162452682852745,-0.0023968429304659
1.7726372256171827e+18,6.4671826171875,0.0072921514511108,0.0305290222167968,0.0946979522705078,-0.0149136893451213,-0.0143810575827956,0.0005326317623257
1.7726372256371753e+18,6.48717529296875,0.0192363262176513,0.0544404983520507,0.0712156295776367,-0.013315794058144,-0.0138484258204698,0.0
1.772637225657168e+18,6.50716796875,0.0028277039527893,0.0641336441040039,0.0618753433227539,-0.0170442163944244,-0.0149136893451213,0.0031957905739545
1.7726372256771604e+18,6.527160400390625,0.0292874574661254,0.0691852569580078,0.0330491065979003,-0.0245010610669851,-0.0130494777113199,0.0063915811479091
1.772637225697153e+18,6.547153076171875,0.0399417281150817,0.0789728164672851,0.0418181419372558,-0.0207726396620273,-0.0103863198310136,0.0069242129102349
1.7726372257171456e+18,6.5671455078125,0.0454074144363403,0.1079187393188476,0.0702972412109375,-0.0197073742747306,-0.0058589493855834,0.0069242129102349
1.7726372257371382e+18,6.58713818359375,0.0221613645553588,0.0939273834228515,0.0792713165283203,-0.0178431645035743,-0.0047936858609318,0.0095873717218637
1.7726372257571308e+18,6.607130859375,0.0326343774795532,0.084482192993164,0.0647854804992675,-0.0191747434437274,-0.0077231605537235,0.0061252652667462
1.7726372257771233e+18,6.627123291015625,0.0480111837387084,0.0699901580810546,0.0891289710998535,-0.020240006968379,-0.0077231605537235,0.0023968429304659
1.772637225797116e+18,6.647115966796875,0.0103092193603515,0.0218791961669921,0.0944008827209472,-0.0221042186021804,-0.006657897029072,-0.0015978952869772
1.7726372258171085e+18,6.6671083984375,0.0190585255622863,0.0166244506835937,0.0993356704711914,-0.0213052704930305,-0.0069242129102349,0.0
1.772637225837101e+18,6.68710107421875,-0.0052822232246398,0.0501880645751953,0.0992231369018554,-0.0178431645035743,-0.0023968429304659,0.002130527049303
1.7726372258570936e+18,6.70709375,0.0231080055236816,0.0746488571166992,0.11737060546875,-0.017310531809926,0.0042610540986061,0.002130527049303
1.7726372258770862e+18,6.727086181640625,0.0125186443328857,0.0509834289550781,0.1070785522460937,-0.013315794058144,0.006657897029072,0.0026631588116288
1.7726372258970788e+18,6.747078857421875,0.0121163725852966,0.0323638916015625,0.0838251113891601,-0.0106526352465152,0.0055926335044205,0.0023968429304659
1.7726372259170714e+18,6.7670712890625,0.0204136371612548,0.0665206909179687,0.044112205505371,-0.0157126374542713,0.0023968429304659,0.0
1.7726372259370657e+18,6.787065673828125,0.0184220671653747,0.058049201965332,0.0656366348266601,-0.0114515833556652,-0.0005326317623257,-0.0005326317623257
1.77263722595706e+18,6.80706005859375,0.0124844908714294,0.1116514205932617,0.0733218193054199,-0.0077231605537235,-0.0061252652667462,-0.0013315794058144
1.7726372259770542e+18,6.82705419921875,0.0072321891784667,0.0785436630249023,0.0628504753112793,-0.0109189506620168,-0.0095873717218637,-0.0015978952869772
1.7726372259970486e+18,6.847048583984375,0.0064720511436462,0.0649700164794921,0.061807632446289,-0.0125168468803167,-0.013315794058144,0.0029294746927917
1.772637226017043e+18,6.86704296875,-0.0284107327461242,0.0702953338623046,0.0605711936950683,-0.0135821104049682,-0.013315794058144,0.0039947382174432
1.772637226037037e+18,6.887037109375,-0.035796046257019,0.0460901260375976,0.0606179237365722,-0.006657897029072,-0.0149136893451213,0.0063915811479091
1.7726372260570314e+18,6.907031494140625,-0.0242053270339965,0.0503425598144531,0.0563855171203613,-0.0050600017420947,-0.0175768472254276,0.0045273699797689
1.7726372260770258e+18,6.92702587890625,-0.0022215843200683,0.0783443450927734,0.0670504570007324,-0.0055926335044205,-0.0117178987711668,-0.0023968429304659
1.77263722609702e+18,6.94702001953125,-0.0032787919044494,0.0684242248535156,0.0663199424743652,0.0002663158811628,-0.0085221081972122,-0.0031957905739545
1.7726372261170143e+18,6.96701416015625,0.0193913578987121,0.0780582427978515,0.0324692726135253,-0.0007989476434886,-0.0063915811479091,-0.0037284223362803
1.7726372261370086e+18,6.987008544921875,-0.024946391582489,0.0873928070068359,0.0566902160644531,0.0010652635246515,-0.0058589493855834,-0.0058589493855834
1.7726372261570028e+18,7.007002685546875,-0.0446510910987854,0.0720815658569336,0.0535855293273925,0.0069242129102349,-0.0047936858609318,-0.0106526352465152
1.7726372261969912e+18,7.0469912109375,-0.0251317620277404,0.0468425750732421,0.0944089889526367,0.0087884236127138,-0.0031957905739545,-0.0138484258204698
1.7726372262169856e+18,7.066985595703125,-0.0020464658737182,0.0849637985229492,0.1042327880859375,0.0029294746927917,0.0002663158811628,-0.0058589493855834
1.77263722623698e+18,7.08697998046875,-0.025868535041809,0.089242935180664,0.0525245666503906,0.0029294746927917,-0.0026631588116288,-0.0063915811479091
1.7726372262569743e+18,7.106974365234375,-0.0101338028907775,0.0839338302612304,0.0441527366638183,0.0050600017420947,0.0007989476434886,-0.0098536871373653
1.7726372262769684e+18,7.126968505859375,0.0064452290534973,0.0933780670166015,0.0208253860473632,0.0109189506620168,-0.0013315794058144,-0.0026631588116288
1.7726372262969628e+18,7.146962890625,-0.0053858757019042,0.0605440139770507,0.0247101783752441,0.0138484258204698,-0.0071905287913978,0.0023968429304659
1.772637226316957e+18,7.16695703125,-0.0024424195289611,0.066131591796875,0.062018871307373,0.0130494777113199,-0.0015978952869772,0.0058589493855834
1.7726372263369513e+18,7.186951416015625,-0.0093445181846618,0.0902433395385742,0.0861186981201171,0.0098536871373653,0.0037284223362803,0.0055926335044205
1.7726372263569457e+18,7.206945556640625,0.0392631888389587,0.0474472045898437,0.0472931861877441,0.0079894764348864,0.0034621064551174,0.0
1.7726372263769398e+18,7.226939697265625,0.0130040645599365,-0.0181961059570312,0.0777416229248046,0.0058589493855834,-0.0037284223362803,-0.0007989476434886
1.7726372263969341e+18,7.24693408203125,-0.0290810465812683,0.0079336166381835,0.0538306236267089,0.0034621064551174,-0.0026631588116288,0.0058589493855834
1.7726372264169283e+18,7.26692822265625,-0.0624316930770874,0.0961418151855468,0.0452260971069335,0.0,-0.0029294746927917,0.011185267008841
1.7726372264369219e+18,7.286921875,0.0007554292678833,0.0975780487060546,0.0291695594787597,-0.0015978952869772,0.0013315794058144,0.0085221081972122
1.7726372264569152e+18,7.306915283203125,0.0411757826805114,0.0333881378173828,0.0671477317810058,0.0058589493855834,0.0031957905739545,0.0018642111681401
1.7726372264769088e+18,7.32690869140625,-0.0133782625198364,0.0617685317993164,0.0967297554016113,-0.0034621064551174,0.0015978952869772,0.0061252652667462
1.7726372264969021e+18,7.346902099609375,-0.0116229653358459,0.0744085311889648,0.1091465950012207,-0.011185267008841,0.0026631588116288,0.0063915811479091
1.7726372265168957e+18,7.366895751953125,0.0045379996299743,0.0858936309814453,0.0962171554565429,-0.0114515833556652,0.0026631588116288,-0.0010652635246515
1.772637226536889e+18,7.38688916015625,-0.0141276717185974,0.1021308898925781,-0.0078778266906738,-0.0135821104049682,0.0045273699797689,-0.0074568446725606
1.7726372265568824e+18,7.40688232421875,-0.0085262656211853,0.0899000167846679,-0.016641616821289,-0.0159789528697729,0.0010652635246515,-0.0023968429304659
1.772637226576876e+18,7.4268759765625,0.0024250745773315,0.1358900070190429,0.0451512336730957,-0.0141147412359714,-0.0031957905739545,0.0013315794058144
1.7726372265968694e+18,7.446869384765625,0.0139991641044616,0.1767873764038086,0.078869342803955,0.0007989476434886,-0.006657897029072,-0.0082557927817106
1.772637226616863e+18,7.466863037109375,0.0130714178085327,0.1305627822875976,0.042724609375,0.0109189506620168,-0.0154463211074471,-0.0218379013240337
1.7726372266368563e+18,7.486856201171875,0.0019437670707702,0.0603933334350585,-0.0019721984863281,0.0125168468803167,-0.0117178987711668,-0.0255663245916366
1.77263722665685e+18,7.506849853515625,0.0269697904586792,0.0180988311767578,0.0056004524230957,-0.0167779009789228,0.0069242129102349,-0.0154463211074471
1.7726372266768433e+18,7.52684326171875,0.0123992562294006,0.0281229019165039,0.0478324890136718,-0.0263652727007865,0.0109189506620168,-0.0165115855634212
1.7726372266968369e+18,7.5468369140625,-0.0303041934967041,0.0993242263793945,0.0827589035034179,0.0085221081972122,0.0045273699797689,-0.0436758026480674
1.7726372267168302e+18,7.566830322265625,-0.0239292383193969,0.1138849258422851,0.0970268249511718,0.0034621064551174,0.0050600017420947,-0.0442084372043609
1.7726372267368238e+18,7.58682373046875,0.002289593219757,0.0713014602661132,0.1107411384582519,-0.0090547399595379,0.0082557927817106,-0.023169482126832
1.7726372267568172e+18,7.606817138671875,0.0043717622756958,0.0244388580322265,0.0994758605957031,0.0002663158811628,0.0109189506620168,-0.0199736915528774
1.7726372267768108e+18,7.626810791015625,-0.023029088973999,0.0162439346313476,0.0928254127502441,0.0031957905739545,0.0122505305334925,-0.0226368494331836
1.772637226796804e+18,7.64680419921875,-0.0540764927864074,0.065098762512207,0.1008896827697753,-0.0045273699797689,0.0034621064551174,-0.0276968516409397
1.7726372268167974e+18,7.66679736328125,-0.0556970834732055,0.0989837646484375,0.1151037216186523,-0.0103863198310136,-0.0026631588116288,-0.0298273786902427
1.772637226836791e+18,7.686791015625,-0.0090416073799133,0.0902481079101562,0.0805954933166503,-0.019441058859229,-0.0013315794058144,-0.020240006968379
1.7726372268567844e+18,7.706784423828125,0.0128101110458374,0.0818128585815429,0.0644364356994628,-0.0229031667113304,-0.0013315794058144,-0.0119842141866683
1.772637226876778e+18,7.726778076171875,-0.003365159034729,0.0590581893920898,0.0578041076660156,-0.0181094799190759,-0.0087884236127138,-0.0074568446725606
1.772637226916765e+18,7.766764892578125,-0.0278268456459045,0.0616083145141601,0.0584025382995605,-0.0130494777113199,-0.0226368494331836,-0.0058589493855834
1.772637226936759e+18,7.786759033203125,0.0279532670974731,0.0630970001220703,0.0560951232910156,-0.0114515833556652,-0.023169482126832,0.0018642111681401
1.7726372269567534e+18,7.80675341796875,0.0164531469345092,0.0977487564086914,0.0543842315673828,-0.0101200034841895,-0.0090547399595379,0.0015978952869772
1.7726372269967416e+18,7.84674169921875,-0.0125001072883605,0.0191268920898437,0.070589542388916,-0.0109189506620168,0.0005326317623257,-0.0018642111681401
1.772637227016736e+18,7.866736083984375,0.0007134675979614,0.0259056091308593,0.0481252670288085,-0.0125168468803167,0.0034621064551174,-0.0053263176232576
1.77263722703673e+18,7.886730224609375,0.0043071508407592,0.0513582229614257,0.0781393051147461,-0.0071905287913978,0.0055926335044205,-0.0125168468803167
1.7726372270567242e+18,7.90672412109375,0.0185872912406921,0.0727291107177734,0.0835456848144531,-0.0026631588116288,0.0095873717218637,-0.0125168468803167
1.7726372270767186e+18,7.926718505859375,0.0431925058364868,0.0609903335571289,0.0553770065307617,-0.0063915811479091,0.0141147412359714,-0.0039947382174432
1.7726372270967127e+18,7.946712646484375,0.0436359643936157,0.0687189102172851,0.0713953971862793,-0.0119842141866683,0.0199736915528774,-0.0034621064551174
1.772637227116707e+18,7.96670703125,0.0184103846549987,0.0914745330810546,0.0743994712829589,-0.0071905287913978,0.0234357975423336,-0.0103863198310136
1.7726372271367012e+18,7.986701171875,-0.0089280009269714,0.0983638763427734,0.0609288215637207,-0.0071905287913978,0.0178431645035743,-0.0119842141866683
1.7726372271566953e+18,8.0066953125,-0.0303381085395813,0.0818004608154296,0.037050724029541,-0.0122505305334925,0.0125168468803167,-0.0106526352465152
1.7726372271766897e+18,8.026689697265626,-0.005008041858673,0.0893926620483398,0.0509295463562011,-0.017310531809926,0.0165115855634212,-0.0103863198310136
1.7726372271966838e+18,8.046683837890624,-0.0140280127525329,0.0918283462524414,0.0318574905395507,-0.0154463211074471,0.0149136893451213,-0.0141147412359714
1.7726372272166781e+18,8.06667822265625,-0.0330848693847656,0.0938940048217773,0.056558609008789,-0.0127831622958183,0.0114515833556652,-0.0127831622958183
1.7726372272366723e+18,8.08667236328125,-0.0080430507659912,0.1095733642578125,0.0595364570617675,-0.0157126374542713,0.0085221081972122,-0.006657897029072
1.7726372272566664e+18,8.106666259765625,-0.0202735066413879,0.1006498336791992,0.0729279518127441,-0.019441058859229,0.013315794058144,-0.0074568446725606
1.7726372272766607e+18,8.12666064453125,-0.0136482715606689,0.0867776870727539,0.0865859985351562,-0.0151800047606229,0.0162452682852745,-0.0183757953345775
1.7726372272966548e+18,8.14665478515625,-0.0273575186729431,0.082493782043457,0.0743079185485839,-0.0135821104049682,0.0143810575827956,-0.0207726396620273
1.772637227316649e+18,8.16664892578125,-0.0203808546066284,0.0969772338867187,0.0648303031921386,-0.0146473739296197,0.0143810575827956,-0.0199736915528774
1.7726372273366433e+18,8.186643310546875,-0.0029498934745788,0.0822687149047851,0.0515646934509277,-0.0229031667113304,0.0175768472254276,-0.0234357975423336
1.7726372273566374e+18,8.206637451171876,-0.000250220298767,0.0873374938964843,0.0561985969543457,-0.0284957997500896,0.0157126374542713,-0.0274305362254381
1.7726372273766316e+18,8.226631591796876,0.0167620778083801,0.1025772094726562,0.0596680641174316,-0.0189084280282259,0.0058589493855834,-0.0298273786902427
1.772637227396626e+18,8.2466259765625,0.0192933678627014,0.1036138534545898,0.0675721168518066,-0.0109189506620168,0.0002663158811628,-0.0292947478592395
1.77263722741662e+18,8.2666201171875,-0.0021185278892517,0.066659927368164,0.0424585342407226,-0.0146473739296197,-0.0023968429304659,-0.0279631670564413
1.7726372274366136e+18,8.286613525390624,0.0149856209754943,0.0437679290771484,0.0880632400512695,-0.0122505305334925,-0.0010652635246515,-0.0287621151655912
1.7726372274566072e+18,8.306607177734374,-0.0290144681930542,0.0591688156127929,0.0961747169494628,-0.0058589493855834,-0.0023968429304659,-0.0295610632747411
1.7726372274766008e+18,8.326600830078124,0.0082988739013671,0.0789356231689453,0.1051025390625,-0.0029294746927917,-0.0031957905739545,-0.0245010610669851
1.7726372274965944e+18,8.346594482421875,0.0481404662132263,0.0780792236328125,0.096841812133789,-0.006657897029072,-0.0079894764348864,-0.0178431645035743
1.772637227516588e+18,8.366588134765625,0.0297595262527465,0.0871391296386718,0.0644454956054687,-0.0141147412359714,-0.0093210563063621,-0.0087884236127138
1.7726372275365816e+18,8.38658154296875,0.0299846529960632,0.0678310394287109,0.0551800727844238,-0.0151800047606229,-0.0037284223362803,-0.0031957905739545
1.7726372275565752e+18,8.4065751953125,0.0195829272270202,0.064030647277832,0.0734539031982421,-0.0063915811479091,-0.0010652635246515,-0.0042610540986061
1.7726372275765688e+18,8.42656884765625,0.0311918258666992,0.0830001831054687,0.1201767921447753,-0.0045273699797689,0.0034621064551174,-0.0034621064551174
1.7726372275965624e+18,8.4465625,-0.0111475586891174,0.0645027160644531,0.0955181121826171,-0.0122505305334925,0.0090547399595379,0.0045273699797689
1.772637227616556e+18,8.46655615234375,-0.0149090886116027,0.0357799530029296,0.0901451110839843,-0.0122505305334925,0.0074568446725606,0.0034621064551174
1.7726372276365496e+18,8.486549560546875,-0.0141135454177856,0.059422492980957,0.0806059837341308,-0.0114515833556652,0.0085221081972122,-0.0058589493855834
1.7726372276565432e+18,8.506543212890625,-0.0232009887695312,0.0447206497192382,0.0902132987976074,-0.0127831622958183,0.0047936858609318,-0.0090547399595379
1.7726372276765368e+18,8.526536865234375,-0.0079829096794128,0.0721549987792968,0.0910391807556152,-0.0138484258204698,0.0018642111681401,-0.0093210563063621
1.7726372277165243e+18,8.566524169921875,-0.0248095393180847,0.0839509963989257,0.0663185119628906,-0.0146473739296197,0.0015978952869772,-0.006657897029072
1.772637227736518e+18,8.586517822265625,-0.0231275558471679,0.0631904602050781,0.0498380661010742,-0.0165115855634212,0.0031957905739545,-0.0090547399595379
1.7726372277565112e+18,8.60651123046875,-0.0399544239044189,0.0436115264892578,0.0754261016845703,-0.019441058859229,0.0109189506620168,-0.0061252652667462
1.772637227776505e+18,8.626505126953125,-0.0349355340003967,0.0568046569824218,0.1005563735961914,-0.0109189506620168,0.0071905287913978,0.0002663158811628
1.7726372277964987e+18,8.646498779296875,0.0149691700935363,0.0896854400634765,0.0829806327819824,-0.0061252652667462,0.0005326317623257,0.0063915811479091
1.7726372278164923e+18,8.6664921875,0.0386918187141418,0.1034297943115234,0.0889725685119628,-0.0058589493855834,-0.0029294746927917,0.0047936858609318
1.772637227836486e+18,8.68648583984375,-0.0436765551567077,0.116952896118164,0.0905075073242187,-0.0010652635246515,-0.0047936858609318,-0.0013315794058144
1.7726372278564795e+18,8.7064794921875,-0.0625784397125244,0.1059503555297851,0.0454311370849609,0.0063915811479091,-0.0055926335044205,-0.0050600017420947
1.772637227876473e+18,8.72647314453125,-0.0056892037391662,0.0901498794555664,0.033766746520996,0.0157126374542713,-0.0093210563063621,-0.0039947382174432
1.7726372278964667e+18,8.746466796875,-0.0207614302635192,0.0795583724975586,0.0260639190673828,0.0189084280282259,-0.0063915811479091,-0.0023968429304659
1.77263722791646e+18,8.7664599609375,-0.0119261741638183,0.0693559646606445,0.027167797088623,0.0189084280282259,-0.0053263176232576,-0.0005326317623257
1.772637227936452e+18,8.7864521484375,-0.0268054604530334,0.0687713623046875,0.0234513282775878,0.023169482126832,-0.0026631588116288,0.0015978952869772
1.7726372279564442e+18,8.806444091796875,-0.0177807807922363,0.106302261352539,0.0297207832336425,0.022370534017682,-0.0015978952869772,0.0023968429304659
1.7726372279764365e+18,8.8264365234375,-0.0088666081428527,0.086186408996582,0.0506496429443359,0.0210389550775289,-0.0050600017420947,0.0082557927817106
1.7726372279964283e+18,8.84642822265625,-0.0095308423042297,0.0706996917724609,0.0671043395996093,0.0189084280282259,-0.0047936858609318,0.0114515833556652
1.7726372280164204e+18,8.86642041015625,-0.006061315536499,0.0691738128662109,0.021982192993164,0.0165115855634212,-0.0018642111681401,0.017310531809926
1.7726372280364127e+18,8.88641259765625,0.0121213197708129,0.0487375259399414,0.0099525451660156,0.0183757953345775,0.002130527049303,0.0122505305334925
1.7726372280564047e+18,8.90640478515625,-0.0032262802124023,0.0671014785766601,0.0401163101196289,0.0117178987711668,0.0069242129102349,0.0077231605537235
1.7726372280763965e+18,8.926396484375,0.0042424798011779,0.1000642776489257,0.0792489051818847,-0.0029294746927917,0.0117178987711668,0.0074568446725606
1.7726372280963889e+18,8.946388916015625,-0.0071918368339538,0.0947647094726562,0.0895462036132812,-0.0023968429304659,0.0103863198310136,0.0082557927817106
1.772637228116381e+18,8.966380859375,0.0112919807434082,0.0940818786621093,0.0668225288391113,0.0082557927817106,0.0039947382174432,0.006657897029072
1.772637228136373e+18,8.986373046875,0.0246701836585998,0.0694141387939453,0.0824365615844726,0.0037284223362803,0.0050600017420947,0.0127831622958183
1.772637228156365e+18,9.006364990234376,0.0035884976387023,0.0830545425415039,0.0596203804016113,0.0005326317623257,-0.0010652635246515,0.017310531809926
1.772637228176357e+18,9.026357177734376,0.0115214586257934,0.0727701187133789,0.0511612892150878,0.002130527049303,-0.0039947382174432,0.0130494777113199
1.7726372281963492e+18,9.04634912109375,-0.0041371583938598,0.0625772476196289,0.052159309387207,0.0029294746927917,-0.0034621064551174,0.0087884236127138
1.7726372282163412e+18,9.06634130859375,-0.0041214227676391,0.0760955810546875,0.0634088516235351,0.0002663158811628,-0.0061252652667462,0.0055926335044205
1.7726372282363333e+18,9.086333251953125,0.0055166482925415,0.0752735137939453,0.0746021270751953,-0.0018642111681401,-0.0082557927817106,0.0074568446725606
1.7726372282563254e+18,9.106325439453125,-0.0043330788612365,0.0790386199951171,0.0765571594238281,0.0015978952869772,-0.0058589493855834,0.0098536871373653
1.7726372282763174e+18,9.1263173828125,0.0095117688179016,0.0634689331054687,0.083597183227539,0.0007989476434886,-0.0058589493855834,0.0119842141866683
1.7726372282963095e+18,9.1463095703125,0.013594627380371,0.0622520446777343,0.0571093559265136,0.002130527049303,-0.0069242129102349,0.0143810575827956
1.7726372283163016e+18,9.166301513671876,0.0074394941329956,0.061345100402832,0.0778326988220214,0.0034621064551174,-0.0058589493855834,0.0165115855634212
1.7726372283362936e+18,9.186293701171875,-0.0086103081703186,0.0753669738769531,0.078256607055664,0.0031957905739545,-0.002130527049303,0.0106526352465152
1.7726372283562857e+18,9.20628564453125,-0.0001955032348632,0.075296401977539,0.0734243392944336,0.0069242129102349,-0.0047936858609318,0.0061252652667462
1.7726372283962698e+18,9.246269775390624,0.0171802043914794,0.0646219253540039,0.0656952857971191,0.0103863198310136,-0.0031957905739545,0.0058589493855834
1.772637228416262e+18,9.266261962890624,-0.0169604420661926,0.0685005187988281,0.0673718452453613,0.0069242129102349,-0.0010652635246515,0.0055926335044205
1.7726372284362542e+18,9.286254150390626,0.0108754038810729,0.0820484161376953,0.0832099914550781,0.0031957905739545,0.0018642111681401,0.0074568446725606
1.7726372284562468e+18,9.306246826171876,0.0095194578170776,0.0717554092407226,0.0604267120361328,0.0079894764348864,-0.0023968429304659,0.0069242129102349
1.772637228476239e+18,9.326239013671875,0.008771002292633,0.0617876052856445,0.0275206565856933,0.0109189506620168,0.0023968429304659,0.0071905287913978
1.7726372284962317e+18,9.346231689453123,-0.0067373514175415,0.0760097503662109,0.0228476524353027,0.0103863198310136,0.0013315794058144,0.0061252652667462
1.772637228516224e+18,9.36622412109375,-0.007819652557373,0.0759868621826171,0.0610551834106445,0.0047936858609318,0.0037284223362803,0.0077231605537235
1.7726372285362166e+18,9.386216552734377,-0.0185528993606567,0.0854511260986328,0.051520824432373,0.0002663158811628,0.0034621064551174,0.0101200034841895
1.772637228556209e+18,9.406208984375,-0.0100369453430175,0.0854120254516601,0.0801796913146972,0.0023968429304659,0.0015978952869772,0.0095873717218637
1.7726372285762012e+18,9.426201171875,-0.0018683671951293,0.0850629806518554,0.0806374549865722,0.0034621064551174,0.0034621064551174,0.0122505305334925
1.7726372285961938e+18,9.44619384765625,-0.0120922327041625,0.0893678665161132,0.0527338981628418,0.0034621064551174,0.0010652635246515,0.0135821104049682
1.772637228616186e+18,9.46618603515625,-0.0026776194572448,0.0983486175537109,0.020336627960205,0.0047936858609318,-0.0005326317623257,0.0122505305334925
1.7726372286361787e+18,9.4861787109375,0.0062728524208068,0.102604866027832,0.0308594703674316,0.0095873717218637,-0.0005326317623257,0.0061252652667462
1.772637228656171e+18,9.5061708984375,0.0104660987854003,0.0689201354980468,0.0407285690307617,0.0077231605537235,-0.0007989476434886,0.0005326317623257
1.7726372286761633e+18,9.526163330078123,0.0298240184783935,0.078587532043457,0.0166363716125488,0.0047936858609318,0.0005326317623257,0.0018642111681401
1.772637228696156e+18,9.546156005859377,0.0329397916793823,0.1025581359863281,0.0403032302856445,0.0061252652667462,0.0002663158811628,0.0055926335044205
1.7726372287161482e+18,9.566148193359377,-0.0023556351661682,0.083200454711914,0.0594749450683593,0.0045273699797689,0.0018642111681401,0.0093210563063621
1.7726372287361408e+18,9.586140869140625,-0.0080664157867431,0.0587329864501953,0.0555348396301269,0.0053263176232576,0.0026631588116288,0.0098536871373653
1.772637228756133e+18,9.606133056640624,0.024708867073059,0.077488899230957,0.0323443412780761,0.0082557927817106,0.0029294746927917,0.0071905287913978
1.7726372287761257e+18,9.626125732421874,0.024573802947998,0.0720424652099609,0.0479660034179687,0.0093210563063621,0.0058589493855834,0.0058589493855834
1.772637228796118e+18,9.646117919921876,0.0013693571090698,0.0515451431274414,0.0841040611267089,0.006657897029072,0.0047936858609318,0.0007989476434886
1.7726372288161103e+18,9.6661103515625,0.0098296999931335,0.0689640045166015,0.077219009399414,0.0082557927817106,0.0039947382174432,0.0002663158811628
1.772637228836103e+18,9.68610302734375,0.0137014389038085,0.076390266418457,0.0908184051513671,0.0095873717218637,0.0050600017420947,-0.0015978952869772
1.7726372288560952e+18,9.70609521484375,0.0029828548431396,0.0547237396240234,0.1002602577209472,0.0085221081972122,0.0039947382174432,0.0002663158811628
1.7726372288760878e+18,9.726087890625,0.0014426708221435,0.0427360534667968,0.0663280487060546,0.0079894764348864,0.0023968429304659,0.002130527049303
1.7726372288960801e+18,9.746080078125,-0.0277701020240783,0.0453453063964843,0.0374183654785156,0.0074568446725606,0.0015978952869772,0.0031957905739545
1.7726372289160727e+18,9.76607275390625,-0.0095869302749633,0.0341711044311523,0.0355377197265625,0.0031957905739545,0.0031957905739545,0.0053263176232576
1.7726372289360666e+18,9.786066650390625,-0.0062788128852844,0.0668487548828125,0.0800743103027343,0.0053263176232576,0.006657897029072,0.0063915811479091
1.7726372289560607e+18,9.806060791015623,0.0009858012199401,0.0808181762695312,0.0949511528015136,0.0045273699797689,0.0034621064551174,0.0023968429304659
1.7726372289760545e+18,9.826054443359377,-0.0057318210601806,0.0949354171752929,0.0855598449707031,-0.0026631588116288,-0.0005326317623257,0.0007989476434886
1.7726372289960486e+18,9.846048583984375,-0.0298858880996704,0.0709142684936523,0.0616044998168945,0.0007989476434886,-0.0037284223362803,-0.0015978952869772
1.7726372290160428e+18,9.866042724609375,-0.0022646784782409,0.0618753433227539,0.0413126945495605,0.0101200034841895,-0.0058589493855834,-0.0007989476434886
1.7726372290360366e+18,9.88603662109375,0.0071114301681518,0.0770444869995117,0.0732922554016113,0.0069242129102349,-0.0063915811479091,0.0037284223362803
1.7726372290560307e+18,9.90603076171875,0.0066646933555603,0.0819978713989257,0.0777010917663574,0.0005326317623257,-0.0023968429304659,0.0061252652667462
1.7726372290760246e+18,9.926024658203126,-0.0084204077720642,0.0769805908203125,0.0636501312255859,-0.0002663158811628,-0.0013315794058144,0.0037284223362803
1.7726372290960187e+18,9.946018798828124,-0.0229113101959228,0.0575513839721679,0.0448813438415527,-0.0013315794058144,-0.0010652635246515,0.0125168468803167
1.7726372291160128e+18,9.9660126953125,-0.0181553959846496,0.0715217590332031,0.0552287101745605,-0.0005326317623257,-0.0023968429304659,0.0178431645035743
1.7726372291360067e+18,9.986006591796874,-0.0424744486808776,0.0803241729736328,0.075235366821289,0.0034621064551174,-0.0002663158811628,0.0221042186021804
1.7726372291560008e+18,10.006000732421874,-0.0331597328186035,0.0793666839599609,0.0530753135681152,0.006657897029072,0.002130527049303,0.0250336937606334
1.7726372291959887e+18,10.04598876953125,0.0129650831222534,0.0591516494750976,0.050114631652832,0.0090547399595379,0.0026631588116288,0.0271642208099365
1.7726372292359767e+18,10.085976806640623,-0.0171411633491516,0.0865907669067382,0.0618886947631835,0.011185267008841,0.0055926335044205,0.0247673764824867
1.7726372292559708e+18,10.105970703125,0.0148891806602478,0.0765447616577148,0.0290980339050292,0.0077231605537235,0.0042610540986061,0.0199736915528774
1.7726372292759647e+18,10.125964599609375,0.0044354200363159,0.0521965026855468,0.0201330184936523,0.0071905287913978,0.0,0.0127831622958183
1.7726372292959588e+18,10.145958740234375,-0.0007992982864379,0.0757646560668945,0.0357766151428222,0.0050600017420947,-0.0050600017420947,0.0063915811479091
1.772637229315953e+18,10.165952880859376,-0.010789930820465,0.0897550582885742,0.0556063652038574,0.0101200034841895,-0.0045273699797689,0.0023968429304659
1.7726372293359468e+18,10.18594677734375,-0.0103700757026672,0.0751771926879882,0.0512757301330566,0.0061252652667462,-0.0029294746927917,0.0013315794058144
1.7726372293559409e+18,10.20594091796875,0.0227566957473754,0.0843391418457031,0.0376434326171875,0.0031957905739545,-0.0018642111681401,-0.0026631588116288
1.772637229375935e+18,10.22593505859375,-0.0170555710792541,0.1027145385742187,0.0490956306457519,0.0018642111681401,0.0013315794058144,-0.0082557927817106
1.7726372293959288e+18,10.2459287109375,-0.0216066837310791,0.0778636932373046,0.0315890312194824,0.0007989476434886,-0.0026631588116288,-0.0061252652667462
1.7726372294359176e+18,10.28591748046875,-0.0069450736045837,0.0720577239990234,0.0528340339660644,0.0018642111681401,-0.0010652635246515,0.0013315794058144
1.7726372294559122e+18,10.305912109375,0.0075862407684326,0.0575590133666992,0.048309326171875,0.0034621064551174,-0.0023968429304659,0.0031957905739545
1.7726372294759068e+18,10.32590673828125,0.0018556118011474,0.0668239593505859,0.0104408264160156,0.0010652635246515,-0.002130527049303,0.0031957905739545
1.7726372294959017e+18,10.345901611328124,-0.0131112933158874,0.0566692352294921,0.063539981842041,0.0007989476434886,-0.0007989476434886,0.0063915811479091
1.7726372295158963e+18,10.365896240234376,-0.0226264595985412,0.0655746459960937,0.0791239738464355,0.002130527049303,-0.0018642111681401,0.0090547399595379
1.772637229535891e+18,10.385890869140624,-0.0282412767410278,0.0602684020996093,0.0703916549682617,0.0026631588116288,0.0042610540986061,0.0079894764348864
1.7726372295558858e+18,10.4058857421875,-0.0059448480606079,0.0641965866088867,0.0431265830993652,0.0053263176232576,0.0045273699797689,0.0058589493855834
1.7726372295758804e+18,10.42588037109375,-0.0298966169357299,0.0633831024169921,0.0350003242492675,0.006657897029072,0.0013315794058144,0.0058589493855834
1.772637229595875e+18,10.445875,0.0132055282592773,0.0629768371582031,0.0406618118286132,0.0045273699797689,-0.0026631588116288,0.0071905287913978
1.7726372296158697e+18,10.46586962890625,0.0742588639259338,0.0677309036254882,0.0405325889587402,0.0053263176232576,0.0007989476434886,0.0061252652667462
1.7726372296358646e+18,10.485864501953126,0.0379517674446105,0.072662353515625,0.0589847564697265,0.0061252652667462,0.0039947382174432,0.0029294746927917
1.7726372296558592e+18,10.505859130859376,-0.0111740231513977,0.0676164627075195,0.0880212783813476,0.0047936858609318,0.0045273699797689,0.0039947382174432
1.7726372296758538e+18,10.525853759765624,-0.0022932291030883,0.0860586166381836,0.0317940711975097,0.0007989476434886,0.0023968429304659,0.002130527049303
1.7726372296958484e+18,10.545848388671876,0.0076056122779846,0.051985740661621,-0.0006642341613769,-0.0007989476434886,0.0023968429304659,0.0037284223362803
1.7726372297158433e+18,10.56584326171875,0.0225170254707336,0.0470046997070312,0.0423011779785156,0.0058589493855834,-0.0034621064551174,0.0058589493855834
1.772637229735838e+18,10.585837890625,0.0216569304466247,0.0610408782958984,0.0667595863342285,0.0031957905739545,-0.0047936858609318,0.0093210563063621
1.7726372297558326e+18,10.60583251953125,0.0248305201530456,0.0556507110595703,0.0820145606994628,-0.0026631588116288,-0.0037284223362803,0.0090547399595379
1.7726372297758272e+18,10.6258271484375,0.0192607045173645,0.0787200927734375,0.0739927291870117,-0.0039947382174432,-0.0013315794058144,0.0063915811479091
1.772637229795822e+18,10.645822021484374,0.0190174579620361,0.0970563888549804,0.0707402229309082,-0.0034621064551174,-0.0010652635246515,0.0031957905739545
1.7726372298158167e+18,10.665816650390624,0.0140762329101562,0.0817451477050781,0.0629186630249023,0.0013315794058144,-0.0013315794058144,0.0013315794058144
1.7726372298358113e+18,10.685811279296876,0.0088052153587341,0.0709667205810546,0.0459580421447753,0.0029294746927917,-0.0042610540986061,0.0039947382174432
1.7726372298558062e+18,10.70580615234375,-0.0107766985893249,0.0651283264160156,0.0478782653808593,0.0007989476434886,-0.0042610540986061,0.0090547399595379
1.7726372298758008e+18,10.72580078125,0.0022963285446166,0.0646610260009765,0.0677213668823242,0.0029294746927917,-0.0029294746927917,0.0061252652667462
1.7726372298957955e+18,10.74579541015625,0.0098282098770141,0.0645875930786132,0.0681295394897461,0.0050600017420947,0.0002663158811628,0.006657897029072
1.77263722991579e+18,10.7657900390625,-0.0198044776916503,0.0837602615356445,0.0775518417358398,0.0082557927817106,0.0039947382174432,0.0087884236127138
1.7726372299357832e+18,10.785783203125,-0.0197746157646179,0.1632680892944336,0.0317625999450683,0.0018642111681401,0.0061252652667462,0.0069242129102349
1.7726372299557763e+18,10.8057763671875,0.0051222443580627,-0.0800123214721679,0.1013250350952148,0.0013315794058144,0.0042610540986061,0.0015978952869772
1.7726372299757693e+18,10.825769287109376,-0.0405732989311218,-0.0245313644409179,0.0163502693176269,0.0159789528697729,0.0045273699797689,-0.0031957905739545
1.7726372299957624e+18,10.845762451171876,-0.0341101288795471,0.2278347015380859,0.0248017311096191,0.0125168468803167,0.0015978952869772,-0.0018642111681401
1.7726372300157555e+18,10.865755615234375,0.0074303150177001,0.1640710830688476,0.0321516990661621,0.0058589493855834,0.0031957905739545,0.0063915811479091
,,,,,0.0039947382174432,0.0053263176232576,0.0063915811479091
,,,,,0.0002663158811628,0.006657897029072,0.0023968429304659
,,,,,0.0013315794058144,0.0034621064551174,0.0034621064551174
,,,,,0.0085221081972122,0.0002663158811628,0.0042610540986061
,,,,,0.0061252652667462,-0.0013315794058144,0.0077231605537235
,,,,,0.0002663158811628,-0.002130527049303,0.0095873717218637
,,,,,-0.0037284223362803,-0.0082557927817106,0.0101200034841895
,,,,,-0.0026631588116288,-0.0079894764348864,0.0122505305334925
,,,,,-0.0023968429304659,-0.0093210563063621,0.0138484258204698
,,,,,-0.0026631588116288,-0.013315794058144,0.0087884236127138
,,,,,0.0023968429304659,-0.0135821104049682,0.0029294746927917
,,,,,0.0029294746927917,-0.013315794058144,0.0002663158811628
,,,,,0.0189084280282259,0.0018642111681401,0.0058589493855834
,,,,,0.0862863436341285,0.0207726396620273,0.0018642111681401
,,,,,-0.0050600017420947,-0.0135821104049682,-0.0229031667113304
,,,,,-0.0777642354369163,-0.0237021129578351,-0.0015978952869772
,,,,,-0.0335558019578456,-0.0047936858609318,0.0250336937606334
