time,seconds_elapsed,accel_z,accel_y,accel_x,gyro_x,gyro_y,gyro_z
1772807708873553700,0.0895537109375,0.1652683036118745,0.0740764590799808,0.0763596381137147,-0.0252366457134485,-0.0083684371784329,-0.0182805154472589
1772807708893602600,0.1096025390625,0.1112614036142826,0.078032649359852,0.1294281064837239,-0.0206575617194175,-0.0140266381204128,0.0026095656212419
1772807708913651700,0.129651611328125,0.0745873312115669,0.1056095153324306,0.0645822526888921,-0.0049954685382544,-0.0193057004362344,0.034563984721899
1772807708933700900,0.149700927734375,0.0630313334524631,0.0472821217872202,0.0252400935880839,-0.0144018875434994,-0.0272983536124229,0.0289499461650848
1772807708953749800,0.169749755859375,-0.0123082774311304,0.0363863415025174,0.0292699336260557,-0.005995619110763,-0.0079885702580213,0.0118897370994091
1772807708973798700,0.189798583984375,0.0445253704249858,0.0411392351180315,-0.0356869245288893,0.0357993654906749,0.0318576209247112,0.0261731632053852
1772807708993847600,0.20984765625,0.0233101484388113,-0.0124772042572498,0.010257135321293,0.0292412899434566,0.0077068866230547,0.0359406247735023
1772807709013896700,0.229896728515625,0.139966689094901,-0.0259634394265711,-0.0431184993017464,-0.001772821182385,0.0042270477861166,0.0286170877516269
1772807709033945900,0.24994580078125,0.1088227782905101,-0.0044923429831862,-0.0702684998980723,-0.0200856048613786,0.0013639190001413,0.007316289935261
1772807709053994800,0.269994873046875,0.0876005420416593,0.0160056706443428,-0.0379071395953185,-0.0024679945781826,-0.0008356960024684,0.0034585446119308
1772807709074043600,0.290043701171875,0.0874620103538036,0.0225664904646575,0.0024318485231138,0.0270187444984912,-0.0015139017486944,0.0103602260351181
1772807709094092500,0.310092529296875,0.1431751297473907,0.0154600194603204,-0.0498512964217923,0.0039794286713004,0.002057921141386,0.0129266567528247
1772807709114141700,0.3301416015625,0.1838362259596586,0.017615882319957,-0.0434680616580881,-0.034912534058094,0.0042809667065739,-0.0081196837127208
1772807709134190800,0.35019091796875,0.0459749847114086,0.0561884818203747,0.0543200941326096,-0.0126666603609919,-0.0090737929567694,-0.0165343433618545
1772807709154239700,0.37023974609375,0.0524263528078794,0.0958797100871801,0.0126175991086289,0.0273269619792699,-0.0036763709504157,0.012870636768639
1772807709174288600,0.39028857421875,0.0187047004699707,0.0238145908296108,0.0426318117633461,-0.0051198406144976,-0.0249096862971782,0.0099727772176265
1772807709194337500,0.410337646484375,0.076274845907092,-0.0001467149943113,0.0618270722292363,-0.0440478399395942,0.0010789249790832,-0.0098770409822463
1772807709214386700,0.43038671875,-0.0860790315628051,0.0313838570401072,0.0232279500480741,-0.0137491514906287,0.016173904761672,0.0051279384642839
1772807709234435800,0.450435791015625,-0.0324497327059507,0.0799941586911678,0.0227536835998296,0.0563524439930915,0.0337729379534721,0.0420251935720443
1772807709254484700,0.470484619140625,0.0625035101860761,0.0318722250789403,-0.0084678955506533,0.0642439275979995,0.0064592910930514,0.0493291765451431
1772807709274533600,0.49053369140625,0.1903314331978559,-0.0149307348892092,-0.0395744334867224,0.013079185038805,-0.0067508625797927,0.0154027063399553
1772807709294582500,0.51058251953125,0.2524479898929596,-0.0110088852703571,-0.0735905752591788,-0.0294574461877346,0.0199226532131433,-0.0098088644444942
1772807709314631700,0.530631591796875,0.1470259599566459,0.0050403322547674,-0.0455359722396358,-0.0380188450217247,0.009748495183885,-0.0084112212061882
1772807709334680800,0.550680908203125,-0.0036783962517976,0.0213444013237953,-0.0101927283155731,-0.0218834169209003,-0.0449922196567058,-0.0012295693159103
1772807709354729700,0.570729736328125,0.0035486323922872,0.0629660131312906,-0.0263699196019209,0.0393712408840656,-0.0220128502696752,0.0158999972045421
1772807709374778600,0.590778564453125,0.0085246672391891,0.0478626981541514,-0.0550403529648669,0.0516728274524211,0.0099642407149076,0.0177406594157218
1772807709394827500,0.61082763671875,0.1040250226199626,-0.037363515971601,0.0027197803527116,0.0009154609870165,0.0242143869400024,-0.001315975561738
1772807709414876700,0.630876708984375,0.0289250657111406,-0.0446782228991389,-0.000677552201692,-0.0166663285344839,0.0097464937716722,-0.0003548879176378
1772807709434925800,0.65092578125,0.0157283150076866,0.0286515094667673,0.0429340461129322,0.0198785010725259,0.0110657969489693,0.000424180412665
1772807709454974700,0.670974609375,0.0514057775884866,0.0340644744262099,0.0205120604191906,0.0454966016113758,-0.0070855459198355,0.0117343962192535
1772807709475024000,0.69102392578125,0.12928221347332,0.0285869197979569,-0.0108848935645073,0.0131617421284317,-0.0083063030615448,0.0019301979336887
1772807709495072500,0.711072509765625,0.1793026741832494,0.0327127675563096,-0.0073744377581402,-0.0181991551071405,0.0133747486397624,-0.0068793296813964
1772807709515121700,0.73112158203125,0.0707090284734964,0.0762532185971736,0.0166129888877272,-0.0040650479495525,0.0066128503531217,-0.0025751339271664
1772807709535170800,0.7511708984375,-0.0042407063096761,0.0783764943614602,0.0195698293993249,0.0426868759095668,-0.0205304790288209,0.015522439032793
1772807709555219700,0.7712197265625,0.1489724178493023,0.0544011600121855,0.0242339487528428,0.0363363027572631,-0.0015573202399536,0.0169411059468984
1772807709575268900,0.791268798828125,0.1400830089509487,-0.0019932196438312,0.0068044558504596,-0.0222636256366968,-0.0097768064588308,-0.0025398861616849
1772807709595317500,0.8113173828125,0.1785597468614578,0.0120943424195051,0.0303221826253458,-0.0413773134350776,0.0081283999606966,-0.0080759041011333
1772807709615366700,0.83136669921875,0.0748246470987796,0.006355798767507,0.0295947086010128,-0.0324578955769538,-0.0075292377732694,0.0136313084512948
1772807709635415800,0.851415771484375,0.0921288331210613,0.0144768536418676,-0.0346008097926154,-0.0174291469156742,-0.0156648736447095,0.0219622869044542
1772807709655464700,0.871464599609375,0.1000607951641082,0.0031833062112331,-0.0553430987711064,-0.0224327389150857,-0.0093936193734407,0.0015787396114319
1772807709675513900,0.891513916015625,0.0206663559317588,0.0357560807749629,-0.0387580573362298,-0.0072052739560604,0.0108728278428316,-0.0074305990710854
1772807709695562500,0.9115625,-0.0034714755028486,0.0552925558939576,-0.0192755774267949,0.021343370899558,0.0220889504998922,0.0054062814451754
1772807709715611600,0.931611572265625,-0.0008849661409854,0.0204378078728914,-0.0027464674302376,0.0208516642451286,0.0066600842401385,-0.0001598712988197
1772807709735660800,0.951660888671875,0.1181266132086515,0.0106385906532406,0.0322932817689143,0.0052691977471113,0.0181572623550891,-0.017270928248763
1772807709755709000,0.971708984375,0.0437222373485565,0.026456922031939,0.0775365181396715,-0.0002972965594381,-0.009353769943118,-0.0050092213787138
1772807709775758000,0.991758056640625,0.0590770428687334,0.0608732786357402,0.0059248600043356,0.00655173137784,-0.0213645379990339,0.0141389481723308
1772807709795807000,1.011806884765625,0.1013514194965362,0.0488446949288249,0.0331117585449479,0.0136664938181638,0.0104401186108589,0.0059186313301324
1772807709815855900,1.03185595703125,0.1708726994901895,0.0443874232590198,0.0048265068409964,0.0009129324462264,0.039746418595314,0.0030600051395595
1772807709835905000,1.051905029296875,0.1632020187318325,0.0270113410443067,0.0234966291879303,-0.0224486291408538,-0.0101864766329526,0.0048848241567611
1772807709855954000,1.071953857421875,-0.011652443870902,0.0675306906983256,0.0544155538637191,0.0020232482347637,-0.0594636909663677,0.0057251192629337
1772807709876003000,1.092003173828125,0.1256114160060882,0.1260746496036648,-0.0381298972342163,0.0492500588297843,0.0130216404795646,0.0267688166350126
1772807709896052000,1.112052001953125,0.0572995118021965,0.0199342422649264,0.0283163044293411,0.0113264173269271,0.0142897255718708,0.0252593643963336
1772807709916100900,1.132100830078125,0.1592372067540884,-0.0212415254712104,0.0207088616329245,-0.0613890998065471,0.0008410866139456,0.0167054533958435
1772807709936150000,1.15214990234375,-0.0360129781454801,-0.0688756755664944,0.0109492275049909,-0.0685155838727951,-0.0313357301056385,0.0014409180730581
1772807709956199000,1.172198974609375,-0.0104623573035001,0.083875822430104,-0.0601579699732363,0.0323059633374214,0.0305494461208581,-0.0004980354569852
1772807709976248000,1.192248046875,-0.0282382524907588,0.0152387779250741,-0.0089729589959606,0.0797842219471931,0.0279942397028207,0.0388081893324852
1772807709996297000,1.212296875,0.1938397335797548,-0.0225616681590676,-0.024091928199958,0.027071475982666,0.0127979777753353,0.05085926130414
1772807710016345900,1.232345947265625,0.2980219925880432,-0.0650035103082656,-0.0741179053352214,-0.0521326623857021,0.0078368484973907,0.0105162244290113
1772807710036395000,1.25239501953125,0.1595925960630178,-0.0247568401157856,-0.0300912782126106,-0.0569531247019767,-0.0079799555242061,-0.0321071818470954
1772807710056444000,1.27244384765625,0.0553080457240343,0.0428051225036382,-0.0326352088080719,-0.0094207562506198,-0.0168643109500408,-0.0377984382212162
1772807710076493000,1.2924931640625,0.0405862774103879,0.0704527156248688,-0.0427947289737872,0.0070647010579705,-0.0174026507884264,-0.0186957977712154
1772807710096542000,1.3125419921875,0.0183177469789981,0.0496019430369138,-0.0164654336431995,0.0041972761973738,0.0007196278893388,0.0078468648716807
1772807710116591000,1.332591064453125,0.0642646746397018,0.0687280837893486,-0.0080281341602094,0.0056589944288134,0.0290320497006177,0.0152129437774419
1772807710136640000,1.352639892578125,0.0728928022533655,-0.0111921328827738,0.0182465266400016,-0.0044430391862988,0.0207809619605541,0.0119732245802879
1772807710156689000,1.37268896484375,0.1669043803811073,-0.0200853411734104,0.0398374500707723,-0.0234965812414884,0.0007169832242652,0.0030777908395975
1772807710176738000,1.392738037109375,0.1122124207288026,-0.0035574002206325,0.0926213293457403,-0.0142646459862589,-0.0288349781185388,0.01058916375041
1772807710196787000,1.412786865234375,0.0867781197428703,0.0277656665429472,0.0036130941969342,0.013484071008861,-0.0364180319011211,0.0410181358456611
1772807710216836000,1.432836181640625,0.0966366659343242,0.0313119608476758,-0.098891733118426,0.0045634545385837,-0.015828251838684,0.0317218825221061
1772807710236885000,1.452885009765625,0.1716781706541776,-0.0344620954416692,-0.1521706659013405,-0.023275276646018,0.0319118089973926,-0.0083253644406795
1772807710256934000,1.472933837890625,0.1180693300634622,-0.0355675724655389,-0.0662181650613434,-0.0431750379502773,0.0086450856178998,-0.0380676612257957
1772807710276983000,1.492983154296875,0.0384258845061063,-0.0105314770169556,0.0064338507060892,-0.0182435847818851,-0.0477863326668739,-0.0296295918524265
1772807710297032000,1.513031982421875,0.0543605357408523,0.0450428184278309,-0.0485098369512706,0.0003992940764874,-0.0584974735975265,-0.0168772116303443
1772807710317081000,1.5330810546875,-0.0019148937106132,0.0393400767415761,-0.0912119922707788,0.0066556306555867,-0.0302489586174488,-0.0112540014088153
1772807710337130000,1.5531298828125,-0.0306786313802003,0.0230750245086848,-0.0391176113636232,-0.0159773249179124,-0.0088990880176424,-0.0295404121279716
1772807710357179000,1.573178955078125,-0.0169371062755584,-0.0071023793511092,-0.0202289874278008,0.0090969149023294,0.0098961275070905,-0.0237022526562213
1772807710377228000,1.59322802734375,0.0418722255676984,0.0160112236022949,-0.0009327690717764,0.022316226735711,0.0098222261294722,-0.0158959981054067
1772807710397277000,1.61327685546875,0.1300233872294426,-0.0050160745963454,0.0269500393111258,0.0155058102682232,0.0044731851667165,-0.0280338078737258
1772807710417326000,1.633326171875,0.1865747110128402,0.0349022404246032,0.0497241811770945,0.0125800175592303,0.011665841564536,-0.0377797000110149
1772807710437375000,1.653375,0.2106979294002056,0.0432243708290159,0.0496435719552449,0.0041693560779094,0.007572803646326,-0.0366957001388073
1772807710457422800,1.6734228515625,0.2205348482817411,0.0471301460959017,0.0804297370968386,-0.0292207356542348,-0.0080842217430472,-0.048378150910139
1772807710477473000,1.69347314453125,0.1312017833590507,0.0730637749060988,0.1042536437440663,-0.0409094393253326,-0.0219406131654977,-0.0358019396662712
1772807710497522000,1.71352197265625,0.0463069931447505,0.0856156518347561,0.0909036752402782,-0.0113654388114809,-0.0122770760208368,0.0072322851046919
1772807710517571000,1.733571044921875,0.0557715715825557,0.0832188198260962,0.0684832787154242,-0.007186590693891,0.0069849332794547,0.0136644355952739
1772807710537620000,1.753619873046875,0.0679874945551157,0.0248139771305024,0.0512523405924439,-0.0346171036362648,0.0114930942654609,-0.0029092356562614
1772807710557668900,1.7736689453125,0.0990846436083316,0.0573185087636113,0.0373760283933021,-0.0401021875441074,0.0169907603412866,-0.0071580689400434
1772807710577718000,1.793718017578125,0.0294172331422567,0.0556201804131269,0.0878172717985697,-0.0069595486856997,0.0015294859185814,0.0122474143281579
1772807710597767000,1.813766845703125,0.064309098303318,0.0633807314120233,0.0300267616090364,0.0128941386938095,-0.0225790850818157,0.0273590255528688
1772807710617816000,1.833816162109375,0.0443482602924108,0.0026335633739829,0.022863336253073,-0.031330183148384,-0.0462302155792713,-0.0001854533329606
1772807710637865000,1.853864990234375,0.0511766450077295,0.0068204936698079,-0.0628403591913171,-0.0564789026975631,0.0011057159863412,-0.0226292964071035
1772807710657913900,1.873913818359375,-0.1020756421178579,0.023926965162903,-0.0393664167592301,-0.0259259603917598,0.0205511320382356,-0.0111368894577026
1772807710677963000,1.893962890625,-0.1139993041455745,0.0677156918764114,-0.0444365230977535,0.0552297905087471,0.0410620905458927,0.0234339125454425
1772807710698012000,1.914011962890625,-0.0012152210086584,0.0038509763397276,-0.0122066436875611,0.0841085314750671,0.0287207774817943,0.0415373034775257
1772807710718061000,1.93406103515625,0.1284890172690153,-0.0416588750779628,0.0095826335932128,0.0498419478535652,0.0002574015525169,0.0192594081163406
1772807710738110700,1.95411083984375,0.2372141804039478,-0.0324567469686269,-0.0638334253492765,0.0025987548287957,0.003229797584936,-0.0001020180061459
1772807710758160000,1.974159912109375,0.1768728166878223,-0.0060338733367621,-0.0489548773050308,-0.0291545130312442,0.0105025470256805,-0.0146977230906486
1772807710778208800,1.994208740234375,0.1417810450404882,0.0395543040141463,-0.0572535720349289,-0.0268134605139493,0.0042108027264475,-0.0202721580862998
1772807710798258000,2.0142578125,-0.0138151748627424,0.0653480859622359,0.0016946385560557,0.0248402804136276,-0.0172919109463691,-0.0033437586389482
1772807710818306800,2.034306884765625,0.0913625249236822,0.103068598677963,-0.069336114418786,0.0518146827816963,0.0034625260159373,0.0091165397316217
1772807710838355700,2.054355712890625,0.1865063219517469,-0.0072951254442334,-0.0006952157225459,0.0035349472891539,0.0180933475494384,0.0002548033371567
1772807710858404900,2.07440478515625,0.2402338204860687,0.0088094755299389,-0.0123971795572899,-0.0597721636295318,0.0071614813059568,-0.0161193236708641
1772807710878453800,2.094453857421875,0.1447743816375732,-0.0291682268172502,-0.0010503127705305,-0.0704651996493339,-0.0096220606938004,-0.0193333309143781
1772807710898503000,2.1145029296875,0.0218126033574342,0.0566188360616564,-0.0255126817180775,-0.0221261642873287,-0.0196446515619754,-0.0177999623119831
1772807710918551800,2.1345517578125,0.0191530287593603,0.0435392819970846,-0.016661796465516,0.0185607224702835,-0.0172190610319376,-0.0092803575098514
1772807710938600700,2.1546005859375,-0.0023965397477149,0.0208333830617368,-0.0375589472121559,0.0008301080670207,-0.0214192029088735,-0.015664679929614
1772807710958649900,2.17464990234375,-0.0066892685055732,0.00322173852548,0.0072889148991554,-0.0181311108171939,-0.013905581086874,-0.0219483878463506
1772807710978698800,2.19469873046875,-0.0392161581009626,0.0401253819003701,-0.0044982430010102,0.0093531999737024,0.0109765902161598,-0.0115812923759222
1772807710998748000,2.214747802734375,-0.003092120796442,0.0456453143656253,0.0011884973985143,0.0307706948369741,0.0167351067066192,0.0024006064049899
1772807711018796800,2.234796875,0.0960614963948726,0.0149504625029861,0.0243092607450671,0.0307729113847017,0.0141125954687595,5.15151768922e-05
1772807711038845700,2.254845703125,0.1577332319319248,0.0168877141758799,-0.0281292208920232,0.0017919070087373,0.0064817499369382,-0.0091484729200601
1772807711058894800,2.274894775390625,0.1544341903865337,-0.0182847214922308,-6.03701514191e-05,-0.0184998251497745,-0.0034569618292152,-0.0237392708659172
1772807711078943700,2.29494384765625,0.0461012414395809,0.0644892771758139,-0.0022352117061614,0.0153884980827569,-0.0128704104572534,-0.0250389873981475
1772807711098993000,2.314992919921875,0.1412427003800868,0.0706543756768107,0.0403603049010969,0.0357220396399498,0.005027471575886,-0.0046919560991227
1772807711119041800,2.335041748046875,0.1230482875198125,0.0334514570944011,0.0098636424916796,0.0006746244616806,-0.0181006845086812,0.014910252764821
1772807711139090700,2.355090576171875,0.1459574539422989,0.0101933311037719,0.0275574488860554,-0.0386015437543392,-0.0070524434559047,-0.000939879566431
1772807711159139800,2.375139892578125,0.0248924491941928,0.0565428482159972,0.0275914607535116,-0.0090432949364185,0.0173186045140028,-0.0114821847528219
1772807711179188700,2.395188720703125,-0.0483422983646392,0.0224101308591663,0.0434485167074017,0.0321855023503303,0.000563716108445,-0.0042544291354715
1772807711199238000,2.41523779296875,-0.0150876790165901,0.0174644911505281,0.0472254414302296,0.0310759376734495,-0.0084650460630655,-0.0011884779669344
1772807711219287000,2.435287109375,0.1199877309054136,0.0220018423192203,-0.0321103629500605,0.0148922195658087,0.0339144319295883,0.0096179656684398
1772807711239335700,2.455335693359375,0.1175093580931425,0.0030814532719552,0.000956917132344,-0.0020840996876358,0.036923162639141,0.0029604395385831
1772807711259384800,2.475384765625,0.0937608182370662,-0.0020661387495696,0.0193904907770454,-0.0016361561138182,-0.0064568594098091,-0.0027814139612019
1772807711279433700,2.495433837890625,0.0808364547342062,0.0069829907551407,-0.0008985380086116,0.014361847192049,-0.0191018413752317,0.0057078967802226
1772807711299483000,2.51548291015625,0.137079735481739,0.0249427180767059,-0.052758233377058,0.0113230487331748,-0.0001028740807669,0.0052001262083649
1772807711319532000,2.535531982421875,0.1294371117740869,0.0192730018772184,-0.0799740474849007,-0.0101046990603208,0.0122639536857604,-0.0055642039515078
1772807711339580700,2.55558056640625,0.1369160693526268,0.0358289998807013,-0.0376255827075801,-0.0048223198391497,0.0121154012158513,-0.0063670678064227
1772807711359629800,2.5756298828125,0.0628758506298065,0.0227867090865969,-0.0191466720838099,0.0194023717194795,-0.0264448728412389,0.0090203117579221
1772807711379678700,2.5956787109375,0.1252308922559022,0.0498804677173495,-0.004339453976415,0.0187510959804058,-0.0234903339296579,0.0020304846111685
1772807711399727900,2.615727783203125,0.1107657290518283,0.0161545775957405,0.003491385779716,-0.0102826878428459,-0.0131343128159642,-0.0039237323217093
1772807711419777000,2.635777099609375,0.0565554154366254,0.0432848688445985,0.021766079068277,-0.0252133440226316,-0.0087998416274786,-0.009761955589056
1772807711439825700,2.65582568359375,0.0457405914336442,0.057240767352283,0.0693195834090933,-0.0008756052702665,-0.0067898132838308,0.005448009353131
1772807711459874800,2.675874755859375,0.0798708245724439,0.0614805968791246,0.0475328268789686,0.0333112999796867,-0.00223865872249,0.026842288672924
1772807711479923700,2.695923828125,0.0683195029884576,0.0512916496895253,0.0486449528393335,0.0349519923329353,-0.0347616113722324,0.0303940623998641
1772807711499972900,2.715972900390625,0.1029541785180568,0.0206434134475886,0.0166509280116297,0.0169460941106081,-0.0401007160544395,0.0234914161264896
1772807711520022000,2.73602197265625,0.0828068780243396,0.0064689037531614,-0.0192546442366205,-0.0096129067242145,-0.0322578400373458,0.0182499028742313
1772807711540070700,2.756070556640625,0.0535340217888355,-0.007237111646682,-0.0345179355484433,-0.005486027803272,-0.0146178528666496,0.0103289196267724
1772807711560119800,2.776119873046875,-0.0263309575647115,0.0233829214140772,-0.0428167033435776,0.0164625067263841,-0.0003208055568393,0.0071524484083056
1772807711580167700,2.796167724609375,0.0138724580079317,0.002268675584346,-0.0822033043743111,0.0284388307482004,0.0133046898990869,0.0038869164418429
1772807711600217900,2.8162177734375,0.0825052647292614,-0.0205360075503587,-0.0556191392335109,0.0178616885095834,0.0231448300182819,0.0014138109982013
1772807711620267000,2.83626708984375,0.1368856742143631,-0.032316753976047,-0.0629352161342278,-0.0060307276435196,0.015048261731863,-0.010328771546483
1772807711640315600,2.856315673828125,0.2007441061407327,-0.0135753747574985,-0.0164666940185241,-0.017117379233241,0.0098029701039195,-0.0228225328028202
1772807711660364800,2.87636474609375,0.1302320615440607,0.0279563668094575,-0.0149243964799679,-0.0159609895199537,-0.022298339754343,-0.0274775717407464
1772807711680413700,2.89641357421875,0.0679039079248905,0.0622575726009905,0.0255841212527826,0.0085695199668407,-0.0392447523772716,-0.0216750893741846
1772807711700461800,2.9164619140625,0.1005675756424665,0.0603444324560463,-0.0046032377454452,0.012361372821033,-0.0103734135627746,-0.0021058586426079
1772807711720510700,2.9365107421875,0.1230126316845417,0.0311864347718656,0.0163260982377454,-0.0254097059369087,0.0133983865380287,-0.0100582148879766
1772807711740560100,2.95656005859375,0.0367617506861686,0.041414252667129,0.0329489691986702,-0.0327998474240303,0.0066913934424519,-0.0179558023810386
1772807711760608300,2.976608154296875,0.0033761984348297,0.071963120187819,0.0592474127332679,0.0075359037145972,-0.0161563288420438,-0.0057533299550414
1772807711780658000,2.996657958984375,-0.0131476508647203,0.0804508164174854,0.0503227315921336,0.0424164310097694,-0.0094115976244211,0.0021219614427536
1772807711800706000,3.0167060546875,0.0739057786881923,0.0608735708966851,-0.0012567585954442,0.0195227451622486,0.0285302847623825,0.0003241032827645
1772807711820755000,3.0367548828125,0.1421165606051683,-0.0135649994939565,0.0524176945773884,-0.0242408476769924,0.0467365272343158,0.0074610929004848
1772807711840804000,3.05680419921875,0.1405173087149858,0.002076660143584,0.0440534603306092,-0.0361172147095203,0.0272445753216743,0.0151359308511018
1772807711860854300,3.076854248046875,0.0798217247337102,0.0308063494130969,0.0163182619911618,-0.0012844861485064,-0.0106832105666399,0.0063723875209689
1772807711880902100,3.096902099609375,0.1126607490181922,0.0824862677678465,-0.0638349231866188,0.0405903942883014,-0.0229279212653636,0.0057594217360019
1772807711900951000,3.116950927734375,0.1462409470587968,0.0394528894662857,-0.0620693017535842,0.0259736776351928,-0.0257130451500415,0.0130400285124778
1772807711921000000,3.137,0.1556470733076334,-0.0258142402142286,-0.0556401820215396,-0.0398239828646183,-0.0144823379814624,0.0116495611146092
1772807711941049000,3.157049072265625,0.1095364795178174,-0.031312399239093,-0.0641763935680501,-0.0709891840815544,0.0070766834542155,-0.0001124828122556
1772807711961098200,3.17709814453125,-0.0278963071852922,-0.0175008776381611,-0.0172626301691867,-0.0456620715558528,-0.0027763415127992,-0.0120871253311634
1772807711981148000,3.19714794921875,-0.0863917507737875,0.0402716585032641,-0.0130499443775974,0.028983362019062,-0.0167277976870536,0.0004936684854328
1772807712001197000,3.217197021484375,-0.0512771827727556,0.0263362182617187,0.0113186270729638,0.0648161917924881,-0.0109801078215241,0.0233513917773962
1772807712021245000,3.237244873046875,0.1342377900540828,0.0151003923676908,0.0176564700586721,0.0244394298642873,0.0267723221331834,0.0280326381325721
1772807712041294000,3.257294189453125,0.2036094324439764,-0.0270328222237527,0.0304464665921404,-0.0401836819946765,0.029177863150835,0.0139577910304069
1772807712061343200,3.27734326171875,0.2469581603050231,0.0092461133815348,0.0362076056684367,-0.0639846250414848,0.0064733400940895,-0.0019803047180175
1772807712081392000,3.29739208984375,0.0541781649112701,0.0474723836623132,0.0797489700247533,-0.025756848976016,-0.0404672138392925,-0.0049522300250828
1772807712101441000,3.31744091796875,0.0354337169528007,0.1325799398444593,0.0102214794860221,0.0323270447552204,-0.0335353650152683,0.0174628812819719
1772807712121490000,3.337489990234375,0.0919388635069131,0.0748734546765685,0.0437328866067342,0.0186542458832263,-0.0036923761945217,0.0252080895006656
1772807712141539000,3.3575390625,0.1713461622208356,0.0392268256254494,0.020392964084167,-0.0432601682841777,0.0347396098077297,0.0256535951048135
1772807712161588200,3.377588134765625,0.1744008736163377,0.0255012287423014,0.0433279042687267,-0.0667598098516464,0.0415286123752594,0.0299356188625097
1772807712181637000,3.39763720703125,0.1566892758369445,0.081303926115483,0.0251412545897997,-0.039745457470417,0.0058076954446733,0.0277080200612545
1772807712201686000,3.41768603515625,0.0285877965807914,0.0745559131599962,0.1171471919835545,-0.0019168091239407,-0.0618053264915943,0.0249879565089941
1772807712221735000,3.43773486328125,0.0510422049731016,0.1125922138266265,0.0427220107974484,0.0318807438015937,-0.0452205576002597,0.0536746606230735
1772807712241784000,3.4577841796875,0.0376812036186456,0.0474693149223923,0.0389647771557793,0.0103987576439976,-0.0079398974776268,0.0887196660041809
1772807712261833200,3.477833251953125,0.0831271960198879,-0.0282559342779219,0.0759860920935869,-0.0355026014149189,-0.0041024256497621,0.0907234326004982
1772807712281882000,3.497882080078125,0.0305032748132944,-0.0625897271648049,0.0416484267491847,-0.0503056943416595,-0.0130869522690773,0.0662657171487808
1772807712301931300,3.51793115234375,0.013511808001995,-0.053671092171967,-0.0079196505507454,-0.0233294256031513,-0.0188017673790454,0.0440023653209209
1772807712321980000,3.53797998046875,-0.0438829808682203,-0.0559717703297734,-0.0313932093903422,0.0101785575971007,-0.0097319288179278,0.0276369303464889
1772807712342029000,3.558029052734375,-0.0532791702449321,-0.0478156441420316,-0.0676378773998469,0.0301052574068307,0.0180667582899332,0.0352735295891761
1772807712362078200,3.578078125,0.0432189640015363,-0.0340408012896776,-0.0448562463471665,0.032707430422306,0.0349518321454525,0.0359900742769241
1772807712382127000,3.598127197265625,0.0755810184240341,-0.048994478663057,-0.0984436422910541,0.0043028239160776,0.014740495942533,0.0257156156003475
1772807712402176300,3.61817626953125,0.1871522186398506,-0.0264399708971381,-0.1364073161128908,-0.0161144770681858,0.0151167660951614,0.0031472262926399
1772807712422225000,3.638224853515625,0.1042079779714345,0.0231792155355215,-0.0815641114216297,-0.0042070834897458,-0.0193012095987796,-0.0082111395895481
1772807712442274000,3.658274169921875,0.0725233844190836,0.0539623302035033,-0.0946395738329738,0.041409533470869,-0.02874007076025,0.0073482524603605
1772807712462323200,3.6783232421875,0.1300865155935287,0.0213001237906515,-0.0981510525526478,0.0386477075517177,-0.0032324937637895,0.0159482583403587
1772807712482372000,3.6983720703125,0.1555856985092163,-0.0354280178643763,-0.0513176243809983,-0.0167362354695796,0.0008184857433661,-0.0092630684375762
1772807712502421200,3.718421142578125,0.0832148743033409,0.0054008361302316,-0.0801031354909762,-0.0301179531961679,-0.0240544565021991,-0.0212755054235458
1772807712522470000,3.738469970703125,-0.0108212537437677,0.0606039601750671,-0.0355428764156997,0.019880898296833,-0.0258408207446336,-0.0171537492424249
1772807712542519000,3.75851904296875,0.0636713849216699,0.0759134652487933,-0.0275802269734442,0.0563649609684944,-0.003878149902448,-0.0070820590481162
1772807712562568200,3.778568115234375,0.0987882910102605,0.0089608666993677,0.0100556761987507,0.0140196802094578,-0.0174461472779512,-0.0187900569289922
1772807712582617000,3.7986171875,0.1280161390602588,-0.0051876317709684,-0.0062621656673029,-0.0410390868782997,-0.0030284863896667,-0.0404955223202705
1772807712602666200,3.818666259765625,0.0191635501533746,0.0318733941227197,0.0421324108738452,-0.0265500731766223,0.0117588862776756,-0.0351961366832256
1772807712622715000,3.83871484375,-0.0817056387841701,0.0934073286242783,0.0473871530642732,0.0482094772160053,-0.0058728181757032,-0.0028189071454107
1772807712642764000,3.858763916015625,0.0238069920450448,0.0685524349614977,-0.0016322773769497,0.0873311758041381,-0.0042187580838799,0.0169471688568592
1772807712662813200,3.878813232421875,0.1731973430454731,-0.0002530979782342,0.0086608973721042,0.0401229634881019,0.0059379548765718,-0.0044702603481709
1772807712682862000,3.898862060546875,0.154148359182477,-0.0322102248616516,0.0326945377798751,-0.0131150037050247,-0.0010670057963579,-0.0201482996344566
1772807712702911200,3.9189111328125,0.1083043073743581,-0.0048551849462091,-0.0080791154287755,-0.0171377062797546,-0.0083093736320734,-0.0237917397171258
1772807712722960000,3.9389599609375,0.0927946035534143,0.0037152211308479,-0.0009436375256627,0.0035933554172515,-0.0036437888629734,-0.0317926071584224
1772807712743008500,3.959008544921875,0.0948831002652645,0.028512100996077,0.0117362496968358,0.0048550320789217,0.0043639433570206,-0.0317242257297039
1772807712763057700,3.9790576171875,0.0836754775524139,0.0336114699617028,0.0233373287066817,0.0027006671298295,-0.0037296428345143,-0.013200169429183
1772807712783106800,3.99910693359375,0.044998833155632,0.0546665329501032,-0.0049777518799528,0.022016042843461,-0.0085644563660025,-0.0074199354276061
1772807712803155700,4.01915576171875,0.1319300976336002,0.0402555841512978,-0.0035127208286896,0.0157158486545085,0.0166937708854675,-0.0135339628905057
1772807712823204900,4.039204833984375,0.1572831500768661,0.0018000351592898,0.0008698781697079,-0.0095895091071724,0.006188076455146,-0.0149923879653215
1772807712843253500,4.05925341796875,0.2228928095847368,0.0006298223361372,-0.0063500996790826,-0.0326888412237167,-0.0007544090040028,-0.0134805757552385
1772807712863302700,4.079302734375,0.084078213134408,-0.0003407762616872,0.0034675665127113,-0.0412106439471244,-0.0402203947305679,-0.0142422132194042
1772807712883351800,4.099351806640625,0.074620648959279,0.0402484237581491,-0.0433361241078004,-0.0167678836733102,-0.0245341695845127,-0.0230072867125272
1772807712903400700,4.119400634765625,0.0072352119505405,0.0189908239349722,-0.0240954170649871,-0.0017806326504796,-0.0037745530717074,-0.028670972213149
1772807712923449900,4.139449951171875,0.0496937129735946,0.0252143746249377,-0.0446882693691179,-0.0072574680671095,0.023182600736618,-0.0272261090576648
1772807712943498500,4.15949853515625,-0.0001057984620332,-0.0029342998862266,0.0478641959914937,-0.0223758798092603,-0.0056186681613326,-0.0225212536752223
1772807712963547600,4.179547607421875,-0.0925152020901441,0.040216859576106,0.0610905381156131,0.0113701000809669,-0.01886304654181,-0.0180899426341056
1772807712983596800,4.1995966796875,-0.0268827462285757,0.0721941524647176,0.0007597688587382,0.0574324019253253,0.0281155928969383,-0.0130113735795021
1772807713003645700,4.219645751953125,0.0651835430502891,0.0441327178455889,0.0355316243693232,0.041098304092884,0.0367659889161586,-0.0083787888288497
1772807713023694800,4.23969482421875,0.1961591164380312,0.0227061911962926,0.0578446149969473,-0.0024141133762896,0.0186835881322622,0.0035419850610196
1772807713043743500,4.259743408203125,0.1631184321016073,0.0640299891009926,0.035899252105318,-0.0065757436677813,-0.002546417992562,0.0151333510875701
1772807713063792600,4.279792724609375,0.1296878716647624,0.0513509786613285,-0.0038387744452804,0.0124275982379913,-0.0035244822502136,0.0145971374586224
1772807713083841800,4.299841796875,0.1073842699199914,-0.0006510112546384,0.046571598897688,0.0054802987724542,-0.0152021571993827,-0.0044547352008521
1772807713103890700,4.319890625,0.1169686753451824,0.010110182864964,0.028194303751178,0.0006546503864228,-0.0190456323325634,0.0055544888600707
1772807713123939800,4.33993994140625,0.0842582458764314,0.0494968752272427,-0.0458413118617609,-0.001704822294414,-0.0110360430553555,0.0122882965952157
1772807713143988700,4.35998876953125,0.1034317329019308,0.0535514113150537,-0.0671772376181557,-0.0037776539102196,0.0182900223881006,0.0009614599402993
1772807713164037600,4.38003759765625,0.0487877040445804,0.0114633510395884,0.0288788519492372,0.0044349613599479,0.0110181523486971,0.0009383433498442
1772807713184086800,4.400086669921875,0.0507481904625892,0.0070491878591477,0.0109934685055166,0.0130376378074288,-0.0248919371515512,0.0091223306953907
1772807713204135700,4.4201357421875,0.0745259564131498,-0.0159635850682854,-0.017342106879875,0.0078278295695781,-0.0221874713897705,0.003532528411597
1772807713224184800,4.440184814453125,0.1136860004127025,0.0008649462662637,-0.0526760532526299,-0.0046723834238946,0.0146075673401355,-0.0146536193788051
1772807713244233700,4.460233642578125,0.046005964371562,-0.0192098735131323,0.0178494353475049,-0.0011867503635585,0.0163322668522596,-0.0147990547120571
1772807713264282600,4.48028271484375,0.0524696074277162,-0.0055685939125716,0.0318615210218355,0.0232077185064554,0.0126399919390678,0.0127772539854049
1772807713284331800,4.500331787109375,0.0776589937418699,-0.0166559512466192,0.0154828888792544,0.0341059491038322,0.00797323230654,0.0082369968295097
1772807713304380700,4.520380615234375,0.1650742423444986,0.0032557869255542,-0.0192609826458618,0.0108262747526168,0.0144745483994483,-0.0307935178279876
1772807713324429800,4.540429931640625,0.1450298177033662,0.0168923903509974,-0.0051546793494373,-0.0209318250417709,0.0231123827397823,-0.0469744727015495
1772807713344478700,4.560478759765625,0.0957744961470365,0.0709925215899944,0.0321184914575889,-0.0222012195736169,0.0119733661413192,-0.0236203987151384
1772807713364527600,4.580527587890625,0.0272264450997114,0.0928103856444358,0.0467325981456786,0.0035463992971926,-0.0092851258814334,0.0015132566913962
1772807713384576800,4.60057666015625,0.0228542213648557,0.100063133251667,0.0198905492536723,0.0280900429934263,-0.0021785418502986,0.0058171809650957
1772807713404625700,4.620625732421875,0.1546282516539096,0.0718976537361741,-0.0077976316062733,0.0221018847078084,0.0280660670250654,0.0032454188913106
1772807713424674800,4.6406748046875,0.1292968265205621,0.0172702837526798,0.0219841605320572,-0.0185427460819482,0.0147972265258431,0.0100223962217569
1772807713444723700,4.6607236328125,0.2089455327749252,-0.0025546529188752,0.0026581498259678,-0.0406814292073249,0.0075010634027421,0.008667953312397
1772807713464772600,4.680772705078125,0.0120277069240808,-0.0176022921860218,-0.0006000847849994,-0.0288532190024852,-0.0268245302140712,-0.0076141790486872
1772807713484821800,4.70082177734375,0.0606593436241149,0.032482758192718,-0.0512836125135421,0.019916983321309,-0.008197315968573,-0.0121671184897422
1772807713504870700,4.72087060546875,0.0067868836611509,-0.0071682841941714,-0.0435272262331098,0.0307359863072633,-0.0025670267641544,-0.0078442338854074
1772807713524919800,4.740919921875,0.1188105038195848,0.0023345804274082,-0.0538979962630197,-0.0101646650582551,0.005590381566435,-0.014590167440474
1772807713544968700,4.76096875,0.0384042571961879,-0.0299760360687971,0.0219452167611569,-0.0228803269565105,0.0020853693131357,-0.0200335755944252
1772807713565017600,4.781017578125,0.0565314500391483,0.0807607591494917,-0.0501066776886582,0.0108692049980163,0.0141350720077753,-0.0198039729148149
1772807713585066800,4.801066650390625,0.1054302132427692,0.0300821267917752,0.0082821637202054,0.0162166096270084,0.0007824691710993,-0.0222570337355136
1772807713605115600,4.82111572265625,0.2264315051048994,0.0402791111573576,0.0043478564785793,-0.0262071900069713,-0.0085231866687536,-0.0243619587272405
1772807713625164800,4.841164794921875,0.1126677632808685,0.0091413378328084,0.030593254651688,-0.0551031529903411,-0.0397786684334278,-0.0173756722360849
1772807713645213700,4.861213623046875,0.0579874940663576,0.102182755754143,-0.0294887640085071,-0.0133589040488004,-0.0164376571774482,-0.0227440726011991
1772807713665262600,4.8812626953125,0.0072094929873943,0.0527317654952406,0.0214248461488634,0.0176465958356857,-0.0053294575773179,-0.0257495958358049
1772807713685311700,4.901311767578125,0.040175943043828,0.023445903647691,0.0124199576446786,-0.0047656376846134,-0.0231196135282516,-0.0216739885509014
1772807713705360600,4.921360595703125,0.0152454999268054,-0.0043513270772993,0.0366885393194854,-0.0160609912127256,-0.0156064350157976,-0.009882315993309
1772807713725409800,4.941409912109375,0.0146709149092435,0.0462742599189281,-0.0065292556382715,0.0057083535939455,0.0256582666188478,-0.0087374374270439
1772807713745458700,4.961458740234375,0.0182008426010608,0.0005002046070992,0.0332621450673788,0.0149936862289905,0.0115880342200398,-0.0152389919385313
1772807713765507600,4.981507568359375,0.0412397728830575,-0.0047569852687418,0.0289378886600956,0.011807213537395,-0.023616025224328,-0.0189210772514343
1772807713785556700,5.001556640625,0.1504524272739887,0.0423677539996802,0.0227764434209093,0.0259350575506687,0.0110462568700313,-0.0116806235164403
1772807713805605600,5.021605712890625,0.1672813969999551,0.0098692137159407,0.0390075568515807,0.0017221781890839,0.0028154291212558,-0.0093647111207246
1772807713825654800,5.04165478515625,0.1760603312611579,0.004358487470448,0.0573429125525057,-0.0455273166298866,-0.0266309268772602,-0.0150535106658935
1772807713845703700,5.06170361328125,0.154629420697689,0.024867899274826,0.0601384980877861,-0.0540303029119968,-0.0135063827037811,-0.022865105420351
1772807713865752600,5.081752685546875,-0.0269891292124986,0.0668478230006992,0.0787669549837708,-0.0153607139363884,-0.0268126092851161,-0.0065895202569663
1772807713885801700,5.1018017578125,0.0207458509087562,0.090100249902904,0.0419769280511885,0.0350137762725353,-0.0020193459931761,0.0167929865419864
1772807713905850600,5.1218505859375,0.0401250896394252,0.0504442390799522,0.0438930638708174,0.0279169399291276,0.0163898672908544,0.016361653804779
1772807713925899800,5.141899658203125,0.1194616612046956,-0.0019036416642367,0.0610990502156317,-0.021032890304923,0.0160432085394859,0.0118491780012846
1772807713945948700,5.16194873046875,0.0792816265076398,0.0024687282010912,0.0526406531456857,-0.0368657372891902,-0.007967603392899,0.0124892871826887
1772807713965997600,5.18199755859375,0.0569371082305908,0.0223085701808333,0.0011891367193311,-0.0185523331165313,-0.0091662555932998,0.0004970366135239
1772807713986046700,5.202046630859375,0.0324713600158691,0.0383671400561928,-0.0114414314687252,0.0089712580665946,0.01046141423285,-0.0034735123626887
1772807714006095600,5.222095703125,0.038240006545186,0.0280731250569224,-0.0270047651730477,0.0141682811081409,0.0102533437311649,0.0107108913362026
1772807714026144800,5.242144775390625,0.0755441935449838,0.015504589254409,-0.0135847271077334,0.005320462398231,0.0027591320686042,0.0141938365995883
1772807714046193700,5.262193603515625,0.0835059662044048,0.0218611186742782,-0.0547009832089766,0.0016227979212999,0.0008111237548291,0.00539739895612
1772807714066242800,5.282242919921875,0.0694417850166559,0.0154633804611861,-0.0282789863599464,0.0151304388418793,0.0027013043873012,0.0026540819089859
1772807714086291700,5.302291748046875,0.1133130754470825,0.0175172442510724,-0.0496441016782075,0.0194570571184158,0.0047231293283402,0.0076264487579464
1772807714106340600,5.322340576171875,0.0949105727940797,0.0011310498565435,-0.0152381934031844,0.0109534496441483,-0.0076397685334086,0.0027405195869505
1772807714126389800,5.3423896484375,0.1638730498611927,0.0343669645041227,-0.0645100277028977,-0.0083157196640968,-0.0051833554171025,-0.0112458541989326
1772807714146438700,5.362438720703125,0.0188087453663349,0.0201779878929257,0.0080381258312612,-0.0051491768099367,-0.02226741053164,-0.0165128391236066
1772807714166487800,5.38248779296875,0.1311298871666193,0.0891254135213792,-0.0380806512650102,0.0106228534132242,0.0086096376180648,-0.0084168463945388
1772807714186536700,5.40253662109375,0.0745002374500036,0.0290926773630082,0.0208611113188788,-0.0094318501651287,-0.0123024582862854,-0.0053551294840872
1772807714206585600,5.422585693359375,0.1401157421767711,0.0699430125370621,0.0067991951534524,-0.0199500937014818,-0.0109744193032383,-0.0098089259117841
1772807714226634800,5.442634765625,-0.0315992533564567,0.0552364417925477,0.0252642416486516,0.0004958815407007,-0.0231027007102966,-0.0011918880045413
1772807714246683600,5.46268359375,0.0205716633856296,0.0741219056569039,0.0067403045730665,0.0347254462540149,-0.0065165436826646,0.0119821801781654
1772807714266732800,5.48273291015625,0.0180395145595073,-0.0041880993396043,0.0029469401720911,0.0132824275642633,-0.0154412230476737,0.0137064103037118
1772807714286781700,5.50278173828125,0.102293668782711,0.0074650751836597,-0.010975238729082,-0.0181598290801048,0.0065751476213335,0.0012213585432618
1772807714306830600,5.52283056640625,0.0888531724512577,-0.0083789751581847,-0.0244258180631324,-0.0168946050107479,0.0139674255624413,0.003820922691375
1772807714326879700,5.542879638671875,0.0333458047628402,0.0105509123697876,-0.0398228187572211,0.0082743987441062,-0.0052496781572699,-0.0058335689827799
1772807714346928600,5.5629287109375,0.1196656593441963,0.0110224754042923,-0.0604931567443534,0.0286861509084701,0.0056150597520172,-0.0185271613299846
1772807714366977800,5.582977783203125,0.0451560695439577,0.0071222530953586,0.0185041729291901,0.021673958748579,-0.0175425931811332,-0.0184973366558551
1772807714387026700,5.603026611328125,0.1075204635202884,0.0403368326939642,-0.0027382293248549,0.0154759408906102,-0.0103402324020862,-0.0002255574800074
1772807714407074800,5.62307470703125,0.1536982773274183,0.0358795610241591,-0.0252069585034623,0.0052635595202445,0.0125766303390264,-0.0007152240723371
1772807714427123700,5.643123779296875,0.1162976442158222,0.0430570514380931,0.0440016388118267,-0.0099774003028869,0.0018225302919745,-0.024018358439207
1772807714447172600,5.663172607421875,0.0836544347643852,0.0387261826269328,0.0789212322300299,-0.001205523032695,-0.0298204477876424,-0.013820138759911
1772807714467221800,5.6832216796875,0.0796679954767227,0.0471237163551151,0.0791905872233212,-0.0040861316956579,-0.0277338344603776,0.0065321773290634
1772807714487270700,5.703270751953125,0.130936410421133,0.0429623588919639,0.0255866054708138,-0.0194646436721086,0.0110164741054177,0.0173389036208391
1772807714507319800,5.72331982421875,0.0688362203389406,0.041271483195573,-0.0060297816835343,-0.0156564563512802,0.0409804098308086,0.005896913819015
1772807714527368700,5.74336865234375,0.0679366411507129,0.0123075467787683,0.0014071268515661,-0.000119887990877,0.0396122895181179,0.0021146819926798
1772807714547417600,5.76341748046875,0.0062888710111379,-0.0488280360549688,0.0503774209214374,-0.0037061870098114,-0.0144641753286123,0.0015976789873093
1772807714567466800,5.783466796875,0.0574842207193374,0.0082533029519021,-0.0184475108385086,0.0116603411734104,-0.0218206066638231,0.0057419389486312
1772807714587515600,5.803515625,0.0062643210917711,0.0285680689670145,-0.0476672121146693,0.0101089170202612,-0.0132204890251159,-0.0101719526574015
1772807714607564800,5.823564697265625,0.02230535531044,0.0255466753192245,-0.0088533877369016,0.003869883948937,0.0142661919817328,-0.0212234072387218
1772807714627613700,5.84361376953125,0.0069604866623878,0.0440142060324549,0.0212214325312525,0.0144827114418149,0.0287664774805307,0.0058127529919147
1772807714647662600,5.86366259765625,0.0641740737468004,0.0491771417535841,0.0159252988845109,0.0248649157583713,0.0150775099173188,0.0188264306634664
1772807714667711700,5.883711669921875,0.1175397532314062,0.0318128961071372,0.020880254410766,0.016635213047266,-1.04818318504e-05,0.0027615539729595
1772807714687760600,5.9037607421875,0.0933697730928659,0.0379684961274266,0.0533658986803144,0.0231348816305398,-0.017758211120963,-0.0014719744212925
1772807714707809800,5.923809814453125,0.1295130996197462,0.039745150411129,0.0380969813453033,0.0308943558484315,-0.0010051021818071,0.0166932176798582
1772807714727858700,5.943858642578125,0.133361007219553,0.0220259538471698,0.0598953735142946,0.0134663647040724,-0.0010948507115244,0.0283914171159267
1772807714747908000,5.963908203125,0.0644780251294374,-0.0133726917922496,-0.001441065653786,0.0065360190346837,-0.0084103476256132,0.0186463017016649
1772807714767957200,5.983957275390625,0.0534545268118381,-0.0055985506594181,-0.034343839356862,0.0135071082040667,0.0191365294158458,-0.0052732238546013
1772807714788006400,6.00400634765625,0.0670335548311471,-0.0335632469058036,-0.0194680495252832,0.0108969006687402,0.0447181053459644,-0.0094426479190588
1772807714808055000,6.024054931640625,0.037242227679491,-0.0342427536025643,0.0282689398899674,0.009392837062478,0.0246438682079315,0.0008499415125697
1772807714828104200,6.044104248046875,0.0583019668430089,0.000460603249073,0.0238473605880513,0.0395833179354667,0.0132657419890165,0.0131138348951935
1772807714848153000,6.064153076171875,0.0937415290147066,0.0110088852703571,-0.0286806624960154,0.0481819100677967,0.0008249548263847,0.007188593968749
1772807714868202200,6.0842021484375,0.1952507694214582,-0.0072942486613988,-0.0258878899723291,0.0077876597642898,0.0112831853330135,-0.008442098274827
1772807714888251400,6.10425146484375,0.1349339556246996,0.0147393039703369,-0.0173315489532425,-0.0274174641817808,0.0100729819387197,-0.0108494088053703
1772807714908300300,6.12430029296875,0.1083919856578111,0.0662491264551878,-0.0005111643925309,-0.0023835287429392,0.0211496539413929,0.0113398041576147
1772807714928349200,6.14434912109375,0.0750958652555942,0.0691638448581099,6.21054507791e-05,0.0167710352689027,-0.0073147336952388,0.0185189452022314
1772807714948398000,6.164398193359375,0.1328250006467103,0.0405497447922825,-0.0037449221493676,0.0012261203955858,-0.0140953576192259,0.0133974403142929
1772807714968447200,6.184447265625,0.1882347531795501,0.0243020820856094,-0.0101630455633625,-0.0215563774108886,0.0136939398944377,0.0022439137101173
1772807714988496400,6.204496337890625,0.0904547624289989,0.0287540930584073,0.0286363484302535,-0.0138328121975064,0.0164290908724069,0.0093111284077167
1772807715008545300,6.224545166015625,0.0343213717967271,0.0569222029224038,0.0093709818702191,0.0002678264863789,-0.0136638861149549,0.0152312573045492
1772807715028594200,6.24459423828125,0.0385579864531755,0.0276052152842283,-0.0153820953859016,0.0033457304816693,-0.014847700484097,0.0114016681909561
1772807715048643000,6.26464306640625,0.1446679986536502,0.0396530882135033,-0.0584661809613928,-0.0102770933881402,0.0106088733300566,0.0018182622734457
1772807715068692200,6.284692138671875,-0.041369536742568,-0.0103121351778507,0.0488177338566631,0.0040443204343318,-0.0077981604263186,0.008476885035634
1772807715088741400,6.304741455078125,-0.0006038111120462,0.0390776264131069,-0.0062813818244263,0.0369005389511585,-0.0121884662657976,0.0270574633032083
1772807715108790300,6.324790283203125,0.0086702131897211,-0.0664653995543718,0.0282079669503495,0.0190478153526783,-0.0150639889761805,0.015617755241692
1772807715128839200,6.344839111328125,0.0910404533624649,0.0010158990442752,-0.049108496964164,0.0009120006579905,0.0393782816827297,-0.0025501945056021
1772807715148888000,6.36488818359375,0.1212742635846138,-0.0272600551083683,-0.0059935413263738,0.0140223428606987,0.0576907396316528,0.0119849778711795
1772807715168937200,6.384937255859375,0.1652075133353471,0.0215469381585717,0.0552078732851892,0.0273235887289047,0.0160556975752115,0.0259054377675056
1772807715188986400,6.404986328125,0.1970861681550741,-0.0079039049923419,0.0226126676939427,0.0052285846322774,-0.0339630730450153,0.0136634912341833
1772807715209035300,6.42503515625,0.2406915011256933,0.0317471373945474,-0.000878572932817,-0.0274239443242549,-0.0163659192621707,-0.0139148533344268
1772807715229084200,6.445084228515625,0.0844464619249105,0.049640813742578,0.0103880499582737,-0.0440226718783378,-0.0060964571312069,-0.0156528111547231
1772807715249133000,6.465133056640625,0.0478659130245447,0.1077864209800958,0.0242504249636083,-0.0160771049559116,0.007042059674859,0.0102503988891839
1772807715269182200,6.48518212890625,0.0126946464002132,0.0500263059288263,0.0553140005407854,9.99977346509e-05,-0.0039928797632455,0.0317933484911918
1772807715289231400,6.5052314453125,0.0265659353643655,0.0554097525328397,0.0311850830649957,-0.0023530791513621,-0.0116339866071939,0.0283432938158512
1772807715309280300,6.5252802734375,0.0850204624205827,-0.0089469843044877,0.0100459950549528,-0.007565907202661,0.0092724245041608,0.0296198818832635
1772807715329329200,6.5453291015625,0.1203846212685108,0.0055424365580081,0.0051790466057136,-0.0176010970026254,0.0283797793090343,0.0309960320591926
1772807715349378000,6.5653779296875,0.0440413863003253,-0.0319745164096355,0.0191825105821713,-0.0178197417408227,-0.0072752102278172,0.024334056302905
1772807715369427200,6.58542724609375,0.0563666148662567,0.0026700959920883,-0.0153661306317895,0.0193245187401771,-0.0147115932777524,0.0261458419263362
1772807715389476400,6.605476318359375,0.089361706495285,0.0094189857304096,-0.0506729698019102,0.0279311016201972,0.0008044658461585,0.0234230048954486
1772807715409525200,6.625525146484375,0.1683569172769785,-0.023306933568418,-0.0468542882965877,-0.0108769703656435,-0.001230445341207,0.0094811478629708
1772807715429574100,6.64557421875,0.1248316638052463,-0.0166112353220582,-0.0300435118144378,-0.0409622155129909,-0.0048913317732512,0.0003019412979483
1772807715449623000,6.665623046875,0.0260977333307266,0.0419616574168205,-0.0354679480159655,-0.0013191972393542,-0.0061413864605128,0.0064223716035485
1772807715469671200,6.685671142578125,0.0044376901865005,0.0436956416025757,-0.0288541924320161,0.0242432430386543,-0.0104511594399809,0.0104087060317397
1772807715489720000,6.705719970703125,0.1292266838937997,0.0104988899216055,-0.0390781744023785,0.0107563752681016,0.0030038212426006,0.0094205271452665
1772807715509769200,6.725769287109375,0.178477329275012,-0.0051078445330262,-0.0099468820620328,-0.0245994850993156,0.0100846337154507,0.0082948077470064
1772807715529818400,6.745818359375,0.1447176830142736,-0.0006406359910964,-0.0104758743721991,-0.0367279201745986,-0.0191408693790435,0.0145587362349033
1772807715549867300,6.7658671875,0.097774730053544,0.0030728315740823,-0.0288838569179177,-0.0242886506021022,-0.047573834657669,0.0091733951121568
1772807715569916200,6.785916259765625,0.1559901876568794,-0.0087158058971166,-0.0527217920904979,-0.0225009154528379,-0.0271306224167346,-0.0033501763828098
1772807715589965000,6.805965087890625,0.0731406395345926,-0.0065936991766095,-0.0172303536010906,-0.0183095429092645,-0.0420877933502197,-0.0163335353136062
1772807715610014200,6.82601416015625,0.0272965877264738,0.085036829033494,0.0009546338437125,0.0002364453393965,-0.0476892814040184,-0.0215994827449321
1772807715630063400,6.8460634765625,0.0170744689196348,0.087112466263771,-0.0241098474491387,0.0199775677174329,-0.0016784613253548,0.0011471819598227
1772807715650112300,6.8661123046875,0.094527710956335,0.0818581989973783,-0.023873919801414,0.0026028859429061,0.02316390350461,0.0176832303404808
1772807715670161200,6.8861611328125,0.0188262810230255,-0.0207902745723724,0.0841101791752502,-0.0355418808758258,-0.0304948072880506,0.0052816299721598
1772807715690210000,6.9062099609375,0.0151800334751605,0.0124902098692953,0.0425033265454694,-0.0294552259147167,-0.0392441488802433,-0.0090025793761014
1772807715710259200,6.92625927734375,0.0002817395508289,0.0334758608832955,-0.0255284455427899,-0.010992064140737,-0.0040492070838809,-0.0062164585106074
1772807715730308400,6.946308349609375,0.0258352830022573,0.0531843315683305,-0.0183920908568426,-0.0025328425690531,0.0201041791588068,0.0012010771315544
1772807715750357500,6.966357421875,0.0175970314890146,0.0162472243152558,0.027136209532991,0.0187501199543476,0.0184594746679067,0.0253523550927639
1772807715770406100,6.98640625,0.078160513523221,0.002919540708512,-0.0105584380891174,0.0428836420178413,-0.0016485819360241,0.0352085009217262
1772807715790455300,7.006455322265625,0.1412725109964609,-0.060877370288968,-0.0061081076167523,0.0233958680182695,-0.0174375474452972,0.0006758177187293
1772807715810504400,7.02650439453125,0.1229547640174627,-0.0443918071731925,-0.0250849030263721,-0.0251574609428644,-0.0276102907955646,-0.0377600938081741
1772807715830553300,7.04655322265625,0.0021072014123201,0.0081508654907345,-0.0095905429050326,-0.0068157389760017,-0.0090156840160489,-0.0284258686006069
1772807715850602500,7.0666025390625,0.0220960964739322,0.0711363139748573,-0.0394727266779169,0.0352045893669128,0.0338959470391273,0.002622322179377
1772807715870651100,7.086651123046875,0.0470277086347341,0.0096074940398335,0.0081366908349096,0.0353002026677131,0.0249886624515056,-0.0005524633452296
1772807715890700300,7.1067001953125,0.0810042125165462,0.0238099146544933,0.0397579002948477,0.0146084139123559,-0.0028226089198142,-0.0236378144472837
1772807715910749400,7.12674951171875,0.1094651678472757,0.0301028773188591,0.0354650619391351,0.0214589089155197,-0.0076197502203285,-0.0117685794830322
1772807715930798300,7.14679833984375,0.1369686763226985,0.0366910235375165,0.0198982211034744,0.0204595997929573,0.0076369452290236,0.0066145732998847
1772807715950847500,7.166847412109375,0.187449740281701,0.0280903684526681,-0.0332865488562732,-0.0036025459412485,0.0079771671444177,0.004646445158869
1772807715970896100,7.186896240234375,0.2147738005369901,0.0024283961907029,-0.0371276979217305,-0.023892993107438,0.0191223267465829,-0.0234381444752216
1772807715990945300,7.2069453125,0.0644575668632984,0.009763269123435,-0.0188092202903702,-0.0206734966486692,-0.0162474997341632,-0.041613046079874
1772807716010994400,7.226994384765625,0.0143628718733787,0.0379153046354651,0.0222340436398983,0.0104614300653338,-0.0267733354121446,-0.0239677745848894
1772807716031043300,7.247043212890625,0.0166793321222066,0.0568149431556463,-0.0051873395100235,0.0244227852672338,-0.0137918181717395,-0.009571336209774
1772807716051092500,7.267092529296875,0.084188103249669,0.053906069971621,-0.0036581571813672,-0.0046028289943933,0.0115330200642347,-0.0172407440841197
1772807716071141000,7.28714111328125,0.0174976627677679,0.0459396211370825,0.0425716060087084,-0.0199615471065044,0.0070963343605399,-0.0260032340884208
1772807716091190300,7.307190185546875,-0.0012502923220396,0.1067769516766071,0.0420681134659796,0.0257857479155063,0.0051997667178511,0.0060225576162338
1772807716111239400,7.327239501953125,0.0205494515538215,0.0507066894084215,0.040405733211711,0.0389393642544746,-0.0090598044916987,0.0310731288045644
1772807716131288300,7.347288330078125,0.2071007816910743,0.0120864513739943,-0.0056239408290013,0.0056680049747228,0.0032614041119813,0.0105354506522417
1772807716151337500,7.36733740234375,0.2584720724880695,-0.0392149890571832,-0.0255238789655268,-0.0347651690244674,0.0155669301748275,-0.007378411013633
1772807716171386400,7.387386474609375,0.2158803004741668,-0.01366115334481,-0.0071909344173967,-0.0424206927418708,0.0023991360794752,-0.0114563219249248
1772807716191435300,7.407435302734375,0.0818394942969083,0.0243088040873408,-0.026978534753248,-0.0204983949661254,-0.0382306538522243,-0.0163343027234077
1772807716211484400,7.427484375,0.1403343533635139,0.0620978519946336,-0.0862762346353381,0.0113496370613574,-0.02082234993577,-0.0203667469322681
1772807716231533300,7.447533203125,-0.0033516485154628,0.0384130250245332,-0.0304174962259829,0.0110277514904737,-0.0459015183150768,-0.0212730951607227
1772807716251582500,7.46758251953125,0.0090244334548711,0.0212403564274311,0.0267792858541011,-0.0017747294623404,-0.0534310452640056,-0.008419707417488
1772807716271631400,7.48763134765625,0.0072527476072311,0.0174590843230485,-0.0205036396507173,-0.0178182795643806,-0.0175429750233888,-0.0110893230885267
1772807716291680300,7.50768017578125,0.0252402397185564,0.0103314244002103,-0.001769968814589,-0.0329265668988227,0.0156564619392156,-0.0196491722017526
1772807716311728000,7.52772802734375,-0.1234685587584972,0.0408399599105119,0.0584592032313346,0.0156907252967357,0.0093209370970726,-0.0041415323503315
1772807716331778300,7.5477783203125,0.0113590138822793,0.0573839752152562,0.051298810082674,0.0823962092399597,0.0212934333831071,0.0320936478674411
1772807716351826400,7.567826416015625,0.0722217711240053,-0.0177341018721461,0.064616154958494,0.0628339126706123,-0.0178234968334436,0.0337190739810466
1772807716371875300,7.587875244140625,0.1942576667308807,0.0026689269483089,0.0241133545804768,0.0151939112693071,-0.0173711888492107,0.002388413529843
1772807716391924500,7.607924560546875,0.0917138225793838,0.0085430796787142,0.0115041579740121,-0.0007483060471713,-0.0171150285750627,-0.0051125055178999
1772807716411973000,7.62797314453125,0.0242845464289188,0.0632537440314889,0.0105443364985287,0.0240195840597152,-0.0016823637997731,0.0126184653490781
1772807716432022300,7.648022216796875,0.0925882673263549,0.064954410469532,-0.0241094090577214,0.0444471389055252,0.0131591763347387,0.0313948728144168
1772807716452071400,7.668071533203125,0.162494162723422,0.0116416302159428,-0.0420233975414186,0.0157615207135677,0.0002966010360978,0.0129040516912937
1772807716472120300,7.688120361328125,0.1918546972423792,-0.0130208096146583,-0.0510855326581746,-0.0246897712349891,0.0097101489081978,-0.0198855567723512
1772807716492169500,7.70816943359375,0.1619640013694763,-0.0121104167714715,-0.0406430125663056,-0.0213972572237253,0.0214758068323135,-0.0133212599903345
1772807716512218000,7.728218017578125,0.1305704997181892,-0.0242240484133362,-0.0226599409017711,-0.0121403336524963,-0.0150236701592803,0.0070231384597718
1772807716532267300,7.748267333984375,0.1102227082163095,-0.0237932557806372,-0.0203941879268735,0.0062218541279435,-0.0517653189599514,0.0047108153812587
1772807716552316400,7.76831640625,0.0708060591071844,-0.00806610981673,-0.0809780186293646,0.0138842575252056,-0.0333853475749492,-0.0231150463223457
1772807716572365300,7.788365234375,0.0510235002726316,-0.0113739191904664,-0.0708317780703306,0.0005209154915064,0.0063382787629961,-0.0434218980371952
1772807716592414500,7.80841455078125,0.0017646715849637,-0.0155219787806272,-0.0250877160379663,-0.0189685001969337,0.0100939767435193,-0.0258517581969499
1772807716612463400,7.82846337890625,-0.0119189858525991,0.0254126736760139,0.0016960998607799,-0.0201685186475515,-0.0030212271958589,-0.020717104896903
1772807716632512300,7.84851220703125,0.0066588733673095,0.0386713836997747,0.0230060509257018,0.0072528971359133,-0.0059437383897602,-0.0258016474545002
1772807716652561400,7.8685615234375,0.0116746557027101,0.0688943802669644,0.0536721150852739,0.0260540153831243,-0.0133023187518119,-0.0264961998909711
1772807716672610300,7.8886103515625,0.0674988342553377,0.0964049030050635,0.066817939319089,0.0294038727879524,-0.0133161367848515,-0.0048099071718752
1772807716692659500,7.908659423828125,0.0585801992624998,0.084876377774775,0.0289336874090135,0.0175805911421775,-0.0154645498842,0.0151332113891839
1772807716712708400,7.928708251953125,0.1099871458947658,0.0677335197940468,-0.0378160089794546,0.0105226356536149,0.0179065819829702,0.0029325229115784
1772807716732757200,7.94875732421875,0.1339788468569517,0.0258779531002044,-0.0106797263812273,0.0106448736041784,0.0288865286856889,-0.0170406512916088
1772807716752806000,7.968805908203125,0.1502151113867759,0.0024903555110096,-0.0093923899844288,0.0049965777434408,-0.0019442875636741,-0.0204358380287885
1772807716772854800,7.988854736328125,0.1326262632042169,0.0165808401837944,-0.0357202788092195,0.001374143641442,-0.0163075793534517,-0.0113651901483535
1772807716792904000,8.008904052734374,0.2019575735837221,0.0140095283910632,-0.0494153709562495,-4.11497894674e-05,0.0107538411393761,-0.0094667375087738
1772807716812952800,8.028952880859375,0.1418546947985887,0.0120890817224979,-0.0565766408877447,-0.0228922665119171,-0.0104778446257114,-0.0246358513832092
1772807716833001700,8.049001708984376,0.0985457144260406,-0.0064212652191519,-0.0177598208352923,-0.0453429445624351,-0.0428889729082584,-0.0281743053346872
1772807716853051000,8.06905078125,0.0100274730175733,0.0273629309609532,-0.0332770503755658,-0.0142365936189889,-0.0220500454306602,-0.0201413296163082
1772807716873099800,8.089099853515625,-0.0295557648301124,0.0540276505246758,-0.0308475216737017,0.0215925965458154,0.0143504636362195,-0.0174230821430683
1772807716893149000,8.10914892578125,0.0183867205619812,0.0207926126599311,-0.0084549264712259,0.0238286312669515,0.0273339170962572,-0.0091243488714098
1772807716913197800,8.12919775390625,0.1120014083266258,0.0041848844692111,0.0023666925987228,-0.0005430267192423,0.0234500896185636,-0.0072645540349185
1772807716933247000,8.1492470703125,0.1862994012027978,-0.0150096453443169,0.0450319317076355,-0.0162924230098724,0.0110881030559539,-0.0174264870584011
1772807716953296000,8.1692958984375,0.0620861615568399,0.0210354815050959,0.0664621846839785,-0.0212419554591178,-0.0305534303188323,-0.0290835443884134
1772807716973344800,8.1893447265625,0.0541600447326898,0.0530675733208656,0.0525480429587885,0.0070059746503829,-0.0154625475406646,-0.0125254718586802
1772807716993394000,8.209393798828126,-0.0212532159090042,0.0711389443233609,0.0127435270432382,0.0073854788206517,-0.0056081903167068,-0.0070117725990712
1772807717013443000,8.229443115234375,0.0804915868192911,0.0398173388645052,0.0432965592823922,-0.0028543313965201,0.029600940644741,-0.0065533849410712
1772807717033492000,8.249491943359375,0.0382820921212434,0.0333174554511904,0.0447267382159829,-0.011674634180963,0.0130767179653048,0.0001297760754823
1772807717053540000,8.2695400390625,0.0738923346847295,0.0122018944472074,0.0638714375384151,0.0072836130857467,-0.0105086416006088,0.012615630403161
1772807717073588700,8.289588623046875,0.137568395781517,0.0306090732753276,0.0160572181684896,0.0150388237088918,-0.0069324541836977,0.0169540662318468
1772807717093638000,8.309637939453125,0.1376917299002409,0.0089653967440128,0.0132935256088152,-0.0028026259969919,0.003016282338649,0.007753737270832
1772807717113686800,8.329686767578124,0.0933025530755519,0.0097772976487874,-0.0240441252691671,-0.020771412178874,-0.0062917829491198,0.0131621696054935
1772807717133736000,8.34973583984375,0.112799280706048,0.0039382162317633,-0.0365640726896002,-0.0118156904354691,-0.0049978042952716,0.0109783560037612
1772807717153785000,8.36978515625,0.0149935709923505,0.023674305576086,-0.0447789433272555,0.007933241315186,-0.0002567773335613,-0.0011195549741387
1772807717173833700,8.389833740234375,0.1113823996454477,0.0174497319728136,-0.0770452092250809,0.0127633176743984,0.0121472580358386,-0.0012884051539003
1772807717193883000,8.4098828125,0.0915852277636528,-0.0099207977727055,-0.0282051174061372,-0.0195966996252536,-0.0066390545107424,-0.0145187750458717
1772807717213931800,8.429931884765624,0.0896305865645408,0.0457528663933277,-0.021787578514032,-0.0140689071267843,-0.0081708701327443,-0.0148405786603689
1772807717233981000,8.44998095703125,-0.0603536386758089,0.0443494293361902,-0.0184000915002077,0.0099240895360708,-0.0224013924598693,-0.0131639828905463
1772807717254030000,8.470030029296876,0.0847200181692838,0.0768000388249754,-0.0335473552169278,0.0212938357144594,0.0195894446223974,-0.0163455083966255
1772807717274078700,8.49007861328125,0.0482686486065387,0.0149056004479527,0.0305868979761376,-0.0005354748573154,0.0217239912599325,-0.0022490164265036
1772807717294127900,8.5101279296875,0.1447813959002494,0.0450818352639675,0.0213304093310609,-0.0108831925317645,0.0204676408320665,0.0065307351760566
1772807717314176800,8.5301767578125,0.1516150413125753,0.0079167644739151,0.0442624817050993,-0.0159328505396842,-0.0062122480012476,-0.0006063585169613
1772807717334226000,8.550225830078125,0.1176572421312332,0.0552986933737993,0.0273329011488705,0.0076340837404131,-0.0118173817172646,-0.0192411802709102
1772807717354275000,8.570275146484375,0.0815180072575807,0.0638905806303024,0.0165694054743275,0.0224356688559055,-0.007017770782113,-0.0071167950518429
1772807717374324000,8.590323974609374,0.1290185941010713,0.0378720500156283,0.0240014917038381,0.0047824140638113,-0.0046372869983315,0.0095608858391642
1772807717394372900,8.610372802734375,0.0957645592749118,0.0181765849426388,0.0055159138772636,-0.0337152630090713,-0.0093534365296363,-0.0067760460078716
1772807717414421800,8.630421875,0.052620998597145,-0.0168605339080095,0.007022263319604,-0.0409296341240406,-0.0039374795742332,-0.0144070051610469
1772807717434471000,8.650470947265624,-0.0250987854212522,-0.0037748423635959,0.0152131320271641,-0.007972402498126,0.00177170522511,-0.0043344870209693
1772807717454520000,8.67052001953125,0.0310176540762186,0.0072729136124253,-0.0083321038091555,0.0242937039583921,0.0116014443337917,0.0107110990211367
1772807717474569000,8.69056884765625,0.1075724859684705,-0.0295072495132684,-0.0176072606220841,0.0176927968859672,0.013667594641447,0.0102491192519664
1772807717494617900,8.710617919921875,0.0938923356622457,-0.0235258370161056,-0.0258773320456966,0.0027065710164606,0.0018409374170005,0.0005563986487686
1772807717514666800,8.730666748046875,0.1582487802386283,-0.0111795656621456,-0.030457389844954,-0.0053634303621947,0.0059016402810812,-0.0060937078669667
1772807717534716000,8.7507158203125,0.1271054539561271,-0.019310265147686,0.0027453897180035,-0.0239258836954832,-0.0020332371350377,-0.0093983663246035
1772807717554765000,8.77076513671875,0.0828542242974042,0.045381110471487,-0.0214651416266337,-0.0243147630244493,-0.0109561840072274,-0.0135378241539001
1772807717574814000,8.79081396484375,0.0836217015385627,0.0686292995899915,-0.0170498824676498,-0.0003123071510344,0.0033184811472892,-0.0110746240243315
1772807717594862800,8.81086279296875,0.0560568182647228,0.0495741782471537,-0.0356394321253523,0.0077466894872486,0.013913738541305,-0.006911146454513
1772807717614911700,8.830911865234375,0.0185667533040046,0.0210287595033645,0.0475714235899969,0.0033647704403847,-0.0035583868157118,0.0020987293682992
1772807717634961000,8.8509609375,0.0390431396216154,0.0353930926814675,0.0212283371960744,0.014689995907247,-0.0024404237046837,0.0117820771411061
1772807717655008800,8.8710087890625,0.0713876583874225,0.0145393974840641,0.0175078919008374,0.0108103901147842,0.0039857402443885,0.0124721387401223
1772807717675058000,8.891057861328125,0.0913695391863584,-0.0062087915122509,-0.004051430815272,-0.0047200107946991,0.007574638351798,0.0024675561580806
1772807717695107000,8.911107177734374,-0.0124181675463914,0.0106955815374851,0.002556662212871,0.0042004715651273,-0.0124329822137951,0.0001068413257598
1772807717715155700,8.93115576171875,0.0692161595672369,0.0492278490275144,0.0098061949497088,0.0405540764331817,0.0041190744377672,0.0153183313086628
1772807717735204900,8.951204833984375,0.0501630840510129,0.0203951377749443,-0.0117836325025185,0.0273960698395967,-0.0020343242213129,0.0162379052489995
1772807717755254500,8.971254638671875,0.1629056661337614,0.0356821387559175,-0.0561062834296375,-0.0018487216439098,0.0220998805016279,-0.0004342393949627
1772807717775303400,8.991303466796875,0.0850882669597864,0.0124471013799309,-0.0242186415858566,-0.0105513148009777,0.0172690004110336,-0.0032570445910096
1772807717795352600,9.0113525390625,0.154883103197813,0.0447752535328268,-0.0220656648030504,-0.0025375052355229,0.0090670846402645,0.0036005226429551
1772807717815401500,9.0314013671875,0.1836170302510261,0.01241144554466,0.0197665210152044,-0.010188415646553,0.0018950798548758,0.0010979077778756
1772807717835450400,9.051450439453124,0.1056844802647829,0.0345519656822085,0.0062748059531673,-0.0278656743466854,-0.0347516871988773,-0.0009727305732667
1772807717855499500,9.07149951171875,0.1068961941421031,0.0303238265931606,-0.0263801304686814,-0.0114126689732074,-0.015987180173397,-0.0011686300858855
1772807717875548400,9.09154833984375,0.0198421800673007,0.0195379364237189,0.0225356569349765,-0.001575747737661,-0.0039466340094804,0.0015005471650511
1772807717895597600,9.11159765625,0.090801383909583,0.012239888370037,0.0322052564255893,-0.0038307381328195,0.0147877549752593,0.0099715236574411
1772807717915646500,9.131646484375,0.0881850639313459,0.0077171502485871,0.0601812777835875,-0.0121147204190492,0.0221115238964557,0.015641264617443
1772807717935695400,9.1516953125,0.0512432805031538,0.0267258021011948,0.0168817593591287,-0.022764166817069,-0.0068843159824609,0.0080756461247801
1772807717955744500,9.17174462890625,0.1094265894025564,0.0366182505622506,0.0503314263552427,-0.0021181898191571,0.0017769797705113,0.000705039827153
1772807717975793400,9.19179345703125,0.075443071258068,0.054924307103455,0.0360837052941322,0.0107976468279957,-0.0028858734294772,0.0170731823891401
1772807717995842600,9.211842529296876,0.0612152239412069,0.0371849445343017,0.05207443409767,-0.0055276132188737,-0.0190092697739601,0.0236177556216716
1772807718015891500,9.231891357421874,0.0894873787015676,0.0089189272537827,0.0319075521206483,-0.030133718624711,0.0045339833013713,0.0277757439762353
1772807718035940400,9.2519404296875,0.01076104798913,-0.0002288403198122,-0.024020196404308,-0.0333349183201789,0.0107630901038646,0.022391827777028
1772807718055989500,9.271989501953126,0.0047919104516506,0.0429039067029953,-0.0006120309511199,0.012923426926136,0.0195398200303316,0.0215601343661546
1772807718076038400,9.292038330078125,0.0784165341109037,0.0268099732533097,-0.0154151939379051,0.0529010742902755,0.0232590064406394,0.0477004237473011
1772807718096087600,9.312087646484375,0.1589794326007366,-0.0140478145748376,-0.0108040103480219,0.0257505476474761,-0.0006907485076226,0.0510484091937541
1772807718116136400,9.332136474609374,0.2781061627626419,-0.0470066658467054,-0.0306176584405824,-0.0409756675362587,-0.0063442192040383,0.0142128532752394
1772807718136185300,9.352185302734377,0.0808615891754627,-0.012484218519926,-0.0527488262278959,-0.0638998448848724,-0.0232775826007127,-0.0200877264142036
1772807718156234500,9.372234375,0.0093611180633306,0.0832894008442759,-0.0448345459720119,-0.0092794317752122,0.0007638480747118,-0.0090584531426429
1772807718176282400,9.392282470703124,-0.0082762454360723,0.0727007868126034,-0.0292549917852506,0.0339764729142189,0.0223101638257503,0.0365825928747653
1772807718196331500,9.41233154296875,0.113711134853959,0.0198980019077658,-0.0203308403670787,0.004106905311346,0.01945536211133,0.041003480553627
1772807718216380400,9.43238037109375,0.144366385358572,-0.0287225288763642,-0.028476408628188,-0.046246413141489,-0.0027961796149611,0.0105772260576486
1772807718236429600,9.4524296875,0.1667576653867959,-0.0122924953401088,-0.0233749573033303,-0.0349065028131008,0.0023743903730064,0.0038212351500988
1772807718256478500,9.472478515625,0.0855260738551616,0.0017076807007193,-0.0351322132555767,-0.0011530602350831,-0.0264461357146501,0.0119007024914026
1772807718276527400,9.49252734375,0.0342307709038257,0.0064835168004035,-0.0422056587731465,0.0062400894239544,-0.0397605560719966,-0.0025075585581362
1772807718296576500,9.512576416015625,0.0933335327357053,-0.004300619803369,-0.0735063310418278,-0.0081537552177906,0.0093465354293584,0.0003260930534452
1772807718316625400,9.53262548828125,0.0368435837507247,0.0088093293994665,-0.0630381650520488,-0.0266644172370433,-0.0006330820033326,0.0025649284943938
1772807718336674600,9.552674560546874,-0.0113332949191331,0.0182224699109792,-0.0091946754552423,-0.0075580962002277,-0.0022241857368499,-0.0093738650903105
1772807718356723500,9.572723388671877,0.06684183165133,0.0542325254470109,-0.0443475296400487,0.0121803181245923,0.0222754646092653,-0.0049277027137577
1772807718376772400,9.5927724609375,0.1320113461762666,0.030688568252325,-0.0250919538216665,-0.0119364727288484,0.0082796839997172,0.0049509480595588
1772807718396821500,9.612821533203125,0.0683405457764863,0.0527164217956364,0.0169341106008738,-0.0300711300224065,-0.0434595718979835,-0.0067741661332547
1772807718416870400,9.632870361328123,0.0790776283681392,0.0673670245692133,-0.0463647146813571,0.0039883898571133,-0.0128700174391269,-0.0080705564469099
1772807718436919600,9.65291943359375,0.0185153153777122,0.0498912813723087,-0.0328094693964347,0.023383131250739,0.0067520830780267,0.0038968594744801
1772807718456968400,9.672968505859377,0.1471399417251348,0.0021001871496438,-0.0252244210949167,-0.0026261513121426,0.0131599018350243,0.007701345719397
1772807718477017300,9.693017333984375,0.1483826352626085,-0.0315025149837136,-0.0368532283619046,-0.0394580215215683,-0.0008167827036231,-0.0079449489712715
1772807718497066500,9.71306640625,0.0872702871739864,-0.0176193894512951,0.0309968670165166,-0.0192321948707103,-0.015911940485239,-0.0208760723471641
1772807718517115400,9.733115478515623,0.0482335772931575,0.0278442847371101,-0.0485271534122526,-0.000170711427927,-0.0134489322081208,-0.0205218791961669
1772807718537164500,9.75316455078125,0.0803285052120685,0.0163014387205243,-0.0598706774644553,-0.0234728418290615,0.0173997245728969,-0.028391595929861
1772807718557213400,9.77321337890625,0.0844955617636442,0.0353537835843861,-0.0392714319521561,-0.0494340434670448,0.0644665956497192,-0.0411437638103961
1772807718577262300,9.793262451171875,-0.0159726451575756,0.0585914513088762,0.0717699722358957,-0.0088968696072697,0.0606093034148216,-0.0211805365979671
1772807718597311500,9.8133115234375,-0.0799111565828323,0.0115957452476024,0.0745862352330237,0.0065488396212458,2.20320944208e-05,-0.0034893504343926
1772807718617360400,9.8333603515625,0.0128594815731048,-0.0245934662476181,0.1009509124042466,0.0169395692646503,-0.0099486103281378,-0.0146321412175893
1772807718637408500,9.853408447265624,0.0500415034979581,0.0147866502434015,-0.0125976522991433,0.0281143188476562,0.0360809676349163,-0.0113134514540433
1772807718657457400,9.87345751953125,0.1801028846502304,0.0267936066403985,-0.0013202522857114,0.0452362261712551,0.0693004131317138,0.0118945501744747
1772807718677506600,9.893506591796877,0.267417595487833,0.0607742021754384,0.0098327176304534,0.0716557502746582,0.0491527058184146,-0.0076809423044323
1772807718697555500,9.913555419921876,0.3979477631956338,0.0177764797091484,-0.0280666587835177,0.0355568341910839,-0.0328969545662403,-0.0364610143005847
1772807718717604400,9.933604248046874,0.101687519583106,-0.0371431512191891,0.0488479097992181,-0.048119556158781,-0.1310382783412933,-0.052788570523262
1772807718737653500,9.953653564453123,0.192298933878541,0.1535191213682293,-0.105709139782004,-0.09331876039505,0.0086696865037083,-0.0195580795407295
1772807718757702400,9.973702392578126,-0.1418278067916631,0.0466666202373802,-0.0359567179135978,-0.0980450734496116,0.0590171441435813,0.0256620179861783
1772807718777751600,9.99375146484375,-0.2241466090381145,0.0446004814878106,0.0225315287491306,-0.03574113920331,0.0017966784071177,0.0202928073704242
1772807718797800200,10.01380029296875,-0.2479004095911979,-0.0357410293363034,0.0597289309062063,0.0680437237024307,-0.0522685088217258,0.0226460415869951
1772807718817849300,10.033849365234374,-0.0454267031788825,-0.0154794548131525,0.0107223599465563,0.1012876108288765,-0.024465000256896,0.014509592205286
1772807718837898200,10.053898193359377,0.1029085858106613,-0.0449051635228097,-0.0073254475172609,0.0563725009560585,0.0192911829799413,0.0050735534168779
1772807718857947400,10.073947509765626,0.1556441506981849,-0.0299330737099051,-0.0203613085705786,0.0204418413341045,0.0298390723764896,0.0009598413016647
1772807718877996500,10.09399658203125,0.1744575722396373,0.020543021813035,-0.0193022645043209,0.032312661409378,-0.002494353801012,0.0054531842470169
