time,seconds_elapsed,accel_z,accel_y,accel_x,gyro_x,gyro_y,gyro_z
1772807733653346800,0.097346923828125,0.2102110226660966,0.0284960266441106,0.0156063691284507,-0.016165267676115,0.0082973921671509,0.0016583823598921
1772807733673396000,0.11739599609375,0.1211135200649499,0.0126233347296714,0.008147559288796,-0.0472822859883308,-0.0309289246797561,-0.0039962059818208
1772807733693444900,0.13744482421875,0.140875036111474,0.011818448087573,-0.0359823455451987,-0.0606791526079177,-0.0243992377072572,-0.0292165353894233
1772807733713493800,0.15749365234375,-0.0811544346421957,0.0094477734334766,0.01701979785664,-0.0238852407783269,-0.0236173961311578,-0.0228397697210311
1772807733733543000,0.17754296875,-0.0841606307208538,0.0930550080552697,-0.026626049787458,0.0483192540705204,0.0190863627940416,0.0119528975337743
1772807733753591800,0.197591796875,0.0207195474237203,-0.0059726446688175,0.0080796086191199,0.0536916851997375,0.033841535449028,0.0304107125848531
1772807733773641500,0.217641357421875,0.1761865879893303,-0.0478527612820267,0.0218373359398916,0.0032280627638101,0.013346055522561,0.0116578331217169
1772807733793690000,0.237690185546875,0.205133865532279,-0.0336328050106763,-0.016072945460584,-0.0349447019398212,-0.007822735235095,-0.0148568209260702
1772807733813739300,0.2577392578125,0.0854746359288692,-0.0016425065100193,-0.0181639811893925,-0.0325731039047241,-0.0163897611200809,-0.031515821814537
1772807733833788200,0.2777880859375,0.0212058696359396,0.065775809855014,-0.0335358291759155,-0.001194590004161,-0.0002779582864604,-0.0186718925833702
1772807733853837300,0.29783740234375,0.1010650037705898,0.0467389548212289,-0.0418950036550872,0.0157639104872941,0.0101454090327024,0.0036649240646511
1772807733873885200,0.31788525390625,0.144992992824316,0.0257861831635236,-0.0154559095407836,0.001465932233259,0.0120431771501898,0.0012600894551724
1772807733893934300,0.337934326171875,0.1183972468435764,-0.0217599963873624,0.0122168362880125,-0.0134348748251795,-0.0149274328723549,-0.0036690686829388
1772807733913983200,0.357983154296875,0.129947983905673,-0.0196809981562197,0.0306704298074357,-0.0091721350327134,-0.0257353950291872,-0.0024881875142455
1772807733934032100,0.3780322265625,0.0435275915592908,-0.0132948042504489,0.0060009209152311,-0.0116326883435249,-0.0267116297036409,-0.0070005967281758
1772807733954081300,0.398081298828125,0.0656195963799953,0.0052810091428458,-0.0382628394315019,-0.0120709855109453,0.0019947693217545,-0.0058821197599172
1772807733974130200,0.418130126953125,0.0014174655824899,-0.0024031156189739,-0.029241967906896,-0.0137794883921742,-0.0023048487491905,-0.006216914858669
1772807733994179300,0.438179443359375,-0.0083715225040912,0.0296900587342679,-0.0363971003585495,0.0010184906423091,-0.0063207549974322,-0.0134939886629581
1772807734014228200,0.458228271484375,0.0431593427687883,0.0312169760406017,-0.0528783343590796,0.0146517381072044,0.0172457378357648,-0.01135980989784
1772807734034277000,0.478277099609375,0.0836848299026489,0.0283557413905858,-0.0479510888236574,0.0042380476370453,0.0206975378096103,-0.0079985270276665
1772807734054326300,0.498326171875,0.1467278537929058,0.0209701611839234,-0.0006712685913778,-0.0181418247520923,-0.0031603896059095,-0.0127858258783817
1772807734074375200,0.518375244140625,0.0490507388949394,0.0440980849236249,0.0031609665152616,-0.0013997284695506,-0.0307126156985759,-0.0152362948283553
1772807734094424300,0.53842431640625,0.0899164177685976,0.0669623892910778,-0.0459021021382883,0.0233770124614238,-0.008941319771111,-0.0128580834716558
1772807734114472200,0.55847216796875,0.0864145471274852,0.0225476396337151,-0.0195554720804095,0.0017297361046075,-0.0018678933847695,-0.0192136950790882
1772807734134521300,0.578521240234375,0.0644178193747997,0.0116956984907388,-0.0141563164506107,-0.0200554598122835,0.0037041534669697,-0.0211605448275804
1772807734154570200,0.5985703125,0.0441927774697542,0.0275397488325834,-0.0334081294093281,-0.0089985877275466,0.0170842111110687,-0.0144687984138727
1772807734174619100,0.618619140625,0.032594694134593,0.0236455178730189,-0.0267124859618954,0.0123830894008278,-0.0014966768212616,-0.0215187761932611
1772807734194668300,0.638668212890625,0.0827004950404167,0.0170110482946038,0.0229627597732469,0.0198535155504941,-0.0071368054486811,-0.0332234464585781
1772807734214717200,0.65871728515625,0.1148170502692461,0.0214369019128382,-0.0162696188101544,0.0122519824653863,0.016995120793581,-0.0273526534438133
1772807734234766300,0.678766357421875,0.0925274770498275,0.0414018315769732,0.047012766793929,-2.02157534658e-05,0.0157586671411991,-0.019640177488327
1772807734254815200,0.698815185546875,0.1140408051997423,0.0370171867519617,0.0271788065657019,0.0091943107545375,0.0054680500179529,-0.0162946060299873
1772807734274864000,0.718864013671875,0.1294523093432188,0.026923078238964,0.0207987684060819,0.0016413645353168,0.00501399487257,-0.0315209031105041
1772807734294913300,0.738913330078125,0.1170867487668991,0.0377954776480793,0.0255872265253216,-0.0219933334738016,-0.0063074599020183,-0.0407914221286773
1772807734314962200,0.758962158203125,0.1085714338779449,0.0625087708830833,0.0187658560726791,-0.0070571042597293,0.0062485374510288,-0.0209440309554338
1772807734335011300,0.77901123046875,0.0688023180693388,0.0710363607317209,0.0378685246179811,0.01566818729043,0.0097251133993268,-0.0128649855032563
1772807734355059200,0.79905908203125,0.1185948152422904,0.0271796833485364,0.036029929280281,-0.0039767320267856,-0.0051784962415695,-0.0154004013165831
1772807734375108400,0.8191083984375,0.075392802375555,-0.0081679627560079,0.0512868273839354,-0.0290947835892438,-0.009861409664154,-0.023385090753436
1772807734395157200,0.8391572265625,-0.0027460838377475,0.0195049109369516,0.0165635237228125,-0.0244395900517702,0.0062811826355755,-0.0198235381394624
1772807734415206100,0.8592060546875,-0.0231663560539484,0.0222724759541451,0.0156420980289578,0.00892267934978,0.0169568229466676,-0.0053917313925921
1772807734435255300,0.87925537109375,0.0410819519728422,0.0193370070241391,0.0078406487640924,0.0335073731839656,0.0142444977536797,0.0013056939933449
1772807734455304200,0.89930419921875,0.1322995154678821,0.0197958567075431,-0.0377113247622735,0.0193351283669471,0.0295599121600389,-0.000474730040878
1772807734475353300,0.919353271484375,0.0923684870958328,0.0008143851228058,-0.0071666402263566,0.0141770904883742,0.0249419659376144,-0.0010857456363737
1772807734495402200,0.93940234375,0.1404027424246072,0.0253664964467287,0.0263305009069852,-0.0038959707599133,-6.94746850058e-05,-0.0178787093609571
1772807734515451100,0.959451171875,0.1343260528594255,-0.0088056761376559,-0.0007069061603397,-0.020012317225337,-0.0275794677436351,-0.0203605312854051
1772807734535500300,0.979500244140625,0.0677566084086895,0.0420246396504342,-0.0010277356125414,-0.0022418699227273,-0.0181569680571556,-0.0257058478891849
1772807734555549200,0.999549072265625,0.0354904155761003,0.0665973553709685,-0.0034821430273354,0.0155468396842479,0.0114447446539998,-0.0129721956327557
1772807734575598300,1.019598388671875,0.0907797565996646,0.0318698869913816,0.0176003559572622,0.0137942135334014,0.0191255677491426,0.007239332422614
1772807734595647200,1.039647216796875,0.0929091698437929,0.0234507259532809,0.0217610193006694,-0.0049260039813816,-0.002312000375241,0.0046366751194
1772807734615695400,1.0596953125,0.1100958669662475,0.0209352360010147,-0.0005511493430472,-0.001499080331996,-0.003564060665667,-0.0112053044140338
1772807734635744300,1.079744140625,0.1206505787283182,0.0351341494843363,0.0047190644111484,0.0067973220720887,0.0154028432443737,-0.0135155813768506
1772807734655793200,1.099793212890625,0.1175175413995981,0.0120218617051839,0.0241353289502672,-0.0149961616843938,-0.0006128020468167,-0.0058965226635336
1772807734675842300,1.11984228515625,0.0659714785575866,-0.0015241408273577,0.0271872090678662,-0.0258984975516796,-0.0261186510324478,-0.0036531402729451
1772807734695891200,1.13989111328125,0.0629664515227079,0.0550987868875265,0.0050096631218679,0.0050592813640832,-0.0126079022884368,-0.0046680141240358
1772807734715940400,1.1599404296875,0.0713297907203435,0.0485011421881616,0.0005611775467172,0.0134126599878072,0.0045305034145712,-0.0064863772131502
1772807734735989200,1.1799892578125,0.0929208602815866,0.0344844534039497,0.0131768221602775,-0.0065778791904449,0.009423691779375,-0.0032529029995203
1772807734756038100,1.2000380859375,0.0888654474109411,0.0154601655907928,0.0327471082173287,-0.0192331038415431,-0.0001193782954942,0.0026786541566252
1772807734776087000,1.220087158203125,0.0970394015163183,0.0264089912369847,0.015246723769512,-0.0132721960544586,0.0027709372807294,-0.0004554116167128
1772807734796136200,1.24013623046875,0.0628425328820943,0.0102833474747836,0.03018500264436,-0.0111195230856537,-0.0139186279848217,-0.0066683213226497
1772807734816185300,1.260185302734375,0.0926040494173765,0.0205362998113036,0.0004331672528758,-0.0050928290002048,-0.0062353410758078,0.0002583158202469
1772807734836234000,1.28023388671875,0.1157920327812433,0.0150431092225015,-0.020610260096658,-0.0125473793596029,-0.00138636585325,-0.0040814988315105
1772807734856282000,1.3002822265625,0.0309171163111925,0.0095293142370879,0.0329980873037129,-0.012409558519721,0.0010259666014462,-0.0046333991922438
1772807734876331000,1.3203310546875,0.0956143371492624,0.0443615581654012,-0.0200163858567364,-0.0031519625335931,0.0088258869946002,0.0042801643721759
1772807734896380200,1.340380126953125,0.0905874488979577,0.0052466684818267,0.0169215799128636,-0.0053567541763186,0.0053354799747467,0.0018542692996561
1772807734916429000,1.360428955078125,0.0995692122548818,0.0152475457534193,-0.0112438082710839,-0.0151399727910757,-0.0033396126236766,-0.0060813454911112
1772807734936478200,1.380478271484375,0.0827951875865459,0.0133927116669714,-0.0031112090894021,-0.0055869934149086,0.006197951734066,-0.0018600272014737
1772807734956527400,1.40052734375,0.1067956563770771,0.002272474976629,-0.0336345037774182,-0.0159398503601551,0.0094971330836415,-0.0077144899405539
1772807734976576000,1.420575927734375,0.0180786775261163,0.001087210714817,0.0162938764685764,-0.0235051214694976,-0.0166175961494445,-0.0168074071407318
1772807734996625200,1.440625244140625,0.023478490743041,0.0419083197943866,0.0294851472793146,0.0236478485167026,0.0053328699432313,0.001106921583414
1772807735016674000,1.460674072265625,0.0037134675651788,0.0294042275302112,0.0263758013534359,0.0358165204524993,-0.0081344414502382,0.0207361616194248
1772807735036723200,1.48072314453125,0.0852963567525148,0.0103314244002103,0.0092734032472595,-0.0049058808945119,-0.0201637540012598,0.0030678720213472
1772807735056772400,1.5007724609375,0.068790627631545,-0.0164262341439723,-0.0174948862887918,-0.0362824648618698,0.0035186798777431,-0.019824631512165
1772807735076821000,1.520821044921875,-0.00652735594213,0.0588014407977461,-0.0265371476612985,0.0075364988297224,0.035047598183155,-0.0079894578084349
1772807735096870100,1.5408701171875,0.0366571212679147,0.0806691353432834,-0.0275447720675729,0.0619199648499488,0.034826960414648,0.0213535316288471
1772807735116918000,1.56091796875,0.1747726295381784,0.026011224091053,-0.0161632175599224,0.0447623841464519,0.0057496153749525,0.0223867651075124
1772807735136967200,1.58096728515625,0.236419230633974,0.008334697625041,-0.0248657438503578,-0.0106061045080423,-0.0198283810168504,-0.0100451884791255
1772807735157016000,1.60101611328125,0.164109196704626,0.0760237937554717,-0.0605303652158938,-0.00997881218791,-0.0126966433599591,-0.017537523061037
1772807735177065200,1.621065185546875,0.1974503252923488,0.1295956633366644,-0.0900667312257923,0.0218437146395444,0.0301098823547363,-0.0005715251900255
1772807735197114000,1.641114013671875,0.2604524326503277,0.1393818749442696,-0.0730209769439883,0.004880079999566,0.0412899926304817,-0.0017299279570579
1772807735217163000,1.6611630859375,0.4472194513648748,0.0885642725072801,-0.0576118474206887,-0.057049386203289,0.0276063047349452,-0.0184981264173984
1772807735237212200,1.681212158203125,0.3949871598243713,-0.0323170462369918,0.0291076192038133,-0.1324701309204101,-0.0153464432805776,-0.0279116109013557
1772807735257261000,1.701260986328125,0.2941477815032005,-0.0806758573450148,0.0399745387202128,-0.1659683883190155,-0.0360709615051746,-0.0240769460797309
1772807735277310200,1.721310302734375,0.0202484227806329,-0.1257441024750471,0.0824541190639138,-0.1429492682218551,-0.0690577253699302,-0.0078156478703022
1772807735297359000,1.741359130859375,-0.1741279018938541,-0.1412273566804826,0.067911378845293,-0.0712219774723053,-0.0893576145172119,0.0172211993485689
1772807735317408000,1.761407958984375,-0.3529050908982754,-0.1858234542541205,0.0642718898317776,-0.0133605394512414,-0.0848744511604309,0.0211320500820875
1772807735337457200,1.78145703125,-0.4977952078700065,-0.1775605066910386,0.0154641476461663,0.0196853168308734,-0.0646458193659782,0.011732205748558
1772807735357506000,1.801506103515625,-0.5990963584840298,-0.1091680845968425,-0.0040203050246462,0.0700911357998848,-0.041046667844057,0.0095540005713701
1772807735377554200,1.82155419921875,-0.5915875902891159,-0.0004470131151378,-0.1070638423265889,0.1263317316770553,0.0060642673633992,-0.002861822489649
1772807735397603000,1.84160302734375,-0.37945407512784,0.1228866672173142,-0.1742746534207835,0.1755580902099609,0.0881475880742073,-0.022206362336874
1772807735417652200,1.86165234375,0.0521931285738945,0.2142749111041426,-0.1967033976488746,0.1971953809261322,0.1727505922317505,-0.0223502870649099
1772807735437701000,1.881701171875,0.3998205713301896,0.1734068941429257,-0.1107978229568339,0.1568724066019058,0.1472278386354446,-0.0124727599322795
1772807735457750000,1.90175,0.7559744348913431,0.107528646826744,-0.0473636991234496,0.0639412850141525,0.0742555558681488,-0.0404856875538826
1772807735477799200,1.921799072265625,0.8262550088196993,-0.0072232292518019,0.0354049292497336,-0.0394345670938491,0.0099306805059313,-0.0743028968572616
1772807735497848000,1.94184814453125,0.5188040936291217,-0.0342968218773603,0.1694265192698687,-0.076764702796936,-0.0509194023907184,-0.0541855245828628
1772807735517897200,1.961897216796875,0.2404951017707586,-0.0020671616628766,0.1778415338558144,-0.0384894870221614,-0.0801507905125618,0.0137551799416542
1772807735537946000,1.981946044921875,0.1069277583241462,0.0104603114768862,0.122805510006193,0.0016364348120987,-0.0505869910120964,0.0434660799801349
1772807735557995000,2.0019951171875,-0.0642336949795484,0.0111187753856182,0.0804424687142483,-0.0013824340421706,-0.0530104413628578,0.0311213806271553
1772807735578044200,2.022044189453125,-0.1133399634540081,0.0409314375862479,0.0262318993707187,0.0036210736725479,-0.0373440608382225,0.0316638872027397
1772807735598093000,2.042093017578125,-0.1088040735900402,0.0800669316664338,-0.0213481824497692,0.000776493223384,-0.0047921584919095,0.0200874432921409
1772807735618142200,2.06214208984375,-0.0333417131096124,0.1082195517003536,-0.0968978376211598,-0.0030658573377877,0.0403696447610855,-0.0111315120011568
1772807735638190000,2.082190185546875,-0.007797522008419,0.1318728144884109,-0.0817457333325408,-0.0037559480406343,0.0501554235816001,-0.0351162366569042
1772807735658239200,2.1022392578125,0.0087041154593229,0.14434212770015,-0.0351585715395398,0.0155564416199922,0.0272377952933311,-0.0208405368030071
1772807735678288100,2.1222880859375,0.0852279676914215,0.1410682205960154,-0.0350552207629196,0.050810556858778,0.0166360437870025,0.0131496861577034
1772807735698337000,2.1423369140625,0.2533604285627603,0.0455737104341387,-0.0501124863749369,0.0358072966337204,0.0216004662215709,0.0207215193659067
1772807735718386200,2.16238623046875,0.2772065835744142,-0.0616369564846158,-0.0222790883580222,-0.0206625405699014,-0.0068085407838225,-0.0007335529662668
1772807735738435000,2.18243505859375,0.1962923874288797,-0.1046051605954766,0.029636392318271,-0.0426307655870914,-0.0322495736181736,-0.0054755341261625
1772807735758484200,2.202484130859375,0.0676554861217737,-0.0796551359951496,0.0088252941535785,-0.0181978940963745,-0.0553619265556335,0.0090001784265041
1772807735778534000,2.222533935546875,-0.0118494277477264,-0.0366188350841403,-0.0368593110428191,0.015591274946928,-0.0314549840986728,-0.0022375052794814
1772807735798582800,2.242582763671875,0.0068833297729492,0.0029430677145719,-0.0781767157393507,0.0195624828338623,0.0193969011306762,-0.0071107507683336
1772807735818632000,2.2626318359375,0.0630886165976524,0.0054547582745552,-0.0457584010849706,0.0019180215895175,0.0287075936794281,-0.0055969534441828
1772807735838681000,2.28268115234375,0.1052040032714605,0.0576850039884448,-0.0162176511608995,-0.0159180406481027,0.0042123184539377,-0.016095545142889
1772807735858729700,2.302729736328125,0.2142266880482435,0.0869642899647355,-0.0284617407820187,-0.0217846054583787,0.0091114500537514,-0.0258311405777931
1772807735878779000,2.32277880859375,0.2209510278671979,0.0968617068618536,0.0024877616951242,-0.045908086001873,3.3263349905e-06,-0.0308175422251224
1772807735898826800,2.34282666015625,0.220699098932743,0.0938075799882411,0.0428152785714715,-0.0577323026955127,-0.0161778703331947,-0.0235507097095251
1772807735918876000,2.3628759765625,0.1736959402173757,0.0559000202678144,0.0687074793927371,-0.0493186078965663,-0.0319507457315921,-0.0018585524521768
1772807735938924800,2.3829248046875,0.0618815788954496,0.0227260649405419,0.0782415063375607,-0.0443703718483448,-0.0466221533715724,-0.0067201168276369
1772807735958974000,2.402973876953125,-0.0104559275627136,0.0040768940500915,0.0573076403097249,-0.0204882454127073,-0.0268499813973903,-0.0006004171445965
1772807735979023000,2.423023193359375,-0.1061082586348056,0.0220429049819707,0.029317170301266,-0.0027549252845346,-0.0060001309029757,0.0170260742306709
1772807735999071700,2.44307177734375,-0.0778524704873561,0.0115422614946961,0.0182950967557728,-0.0038458972703665,0.0062247235327959,0.0147283133119344
1772807736019121000,2.463120849609375,-0.0033043022423982,0.0111177524723112,0.0208110250994563,-0.0103024644777178,0.0233235489577054,0.0082166194915771
1772807736039169800,2.483169677734375,-0.0443956065654754,0.0304762406758964,-0.01281136811506,-0.000473094638437,0.0103142457082867,0.0086141135543584
1772807736059219000,2.503218994140625,0.0952659621030092,0.0604448240906,-0.0215766939760185,0.0216545835137367,0.0342191271483898,0.0146049726754426
1772807736079268000,2.52326806640625,0.1361579444617033,0.0452339570857584,-0.063938621023111,0.0048286467790603,0.0091737490147352,0.0147570027038455
1772807736099316700,2.543316650390625,0.2628746913611888,0.0169243929244577,-0.04606558560431,-0.0226210877299308,0.003216790035367,-0.005380755290389
1772807736119366000,2.563365966796875,0.1863204439908266,0.0213521462388336,-0.0474735344397835,-0.0364949665963649,-0.0194676034152507,-0.0063317553140223
1772807736139414800,2.583414794921875,0.1235638358265161,0.024000761051476,-0.043947680134885,-0.0309724602848291,-0.0367893651127815,-0.0051182676106691
1772807736159463000,2.603462890625,0.0188379714608192,0.0112453243747353,-0.0057279857253655,-0.0132388267666101,-0.0253929253667593,-0.015404044650495
1772807736179511800,2.62351171875,-0.0401443788617849,0.0192296011269092,-0.0320196524593047,0.0102027589455246,-0.008716506883502,-0.0022558663040399
1772807736199561000,2.64356103515625,-0.0134732295572757,0.000803717598319,0.0077570256012491,0.0148709993809461,0.0072433771565556,0.007195534184575
1772807736219609900,2.66360986328125,0.0222130008518695,0.0017690554991364,0.0064335036462172,-0.004132732283324,0.0024649701081216,-0.0042700362391769
1772807736239658800,2.68365869140625,0.0486748913198709,0.0258913971036672,0.025499000252597,-0.0072198109701275,0.0024342597462236,-0.0144473575055599
1772807736259708000,2.7037080078125,0.0514618916898965,0.0713851741693913,0.0381610595574602,0.004114992916584,-0.0007046669488772,0.0030797196086496
1772807736279756800,2.7237568359375,0.0653337651759386,0.0700596246540546,0.0184173531622625,0.0051861735992133,-0.0017625619657337,0.015586937777698
1772807736299806000,2.743805908203125,0.1291127021253109,0.054415188537538,0.0296628967327065,-0.006596241146326,0.0190064534544944,0.0062342341989278
1772807736319854800,2.763854736328125,0.13881225836277,0.0228732183262705,0.0535172898497432,-0.0076175006106495,0.0145435193553566,0.013106282800436
1772807736339903700,2.78390380859375,0.0847042360782623,0.047819589664787,0.0428468244872055,-0.0058775381185114,-0.0341808125376701,0.0120204482227563
1772807736359953000,2.803952880859375,0.086506317064166,0.0591091915726661,0.0662757770000957,0.0035871157888323,-0.0257415063679218,0.0101128835231065
1772807736380001800,2.824001708984375,0.147449153804779,0.0789370508536696,0.0089011906676925,0.0075097018852829,0.0154127832502126,0.0307241603732109
1772807736400050000,2.8440498046875,0.021052140378952,0.0094604867845773,0.0419562140567228,-0.0278792101889848,-0.0241355244070291,0.0296054668724536
1772807736420098800,2.864098876953125,-0.0484708931803703,0.0056488195419311,0.024488069644384,-0.0146401664242148,-0.0174357425421476,0.0212644971907138
1772807736440148000,2.88414794921875,-0.0550520251363515,0.0347398894697427,-0.0224140215829946,0.0222387444227933,0.02149024233222,0.0240049604326486
1772807736460196900,2.90419677734375,0.0114314945966005,0.0120477267988026,-0.0062814183570444,0.027952903881669,0.0296846497803926,0.0315770804882049
1772807736480245800,2.924245849609375,0.0614946254044771,-0.0007294833183288,-0.0328360468761064,0.0196818616241216,0.0102678835391998,0.0417541377246379
1772807736500295000,2.944294921875,0.0965086556404829,0.0015888766266405,-0.0196840851624496,0.0403288379311561,0.0120958732441067,0.0367284566164016
1772807736520343800,2.96434375,0.1655097111523151,0.0027804244987666,-0.0451503156566061,0.0401301607489585,0.002953688846901,0.0308973863720893
1772807736540393000,2.98439306640625,0.2225894427239894,-0.0328416546329855,-0.0323188546015881,-0.0143885891884565,-0.0162362866103649,0.0093778939917683
1772807736560441900,3.00444189453125,0.143653853175044,0.0120706692829728,-0.0547602391155436,-0.0458135940134525,-0.012039584107697,-0.0125838126987218
1772807736580490800,3.02449072265625,0.0178220724165439,0.0757560827299952,-0.0269260556473396,-0.0047321720048785,0.015844352543354,-0.0021845363080501
1772807736600540000,3.044539794921875,0.0230149648845195,0.0814895118154585,0.0112701117561198,0.0448185317218303,0.0288756936788558,0.0285015925765037
1772807736620588800,3.0645888671875,0.1807511194258928,0.0233178933538496,0.0276440311909653,0.0201115421950817,0.0147707797586917,0.039803460240364
1772807736640637000,3.084636962890625,0.2447983519226312,0.0021919570863246,0.0048540524350479,-0.0297285486012697,-0.0079980278387665,0.0212500859051942
1772807736660685800,3.104685791015625,0.1484451791048049,0.0148280051670968,0.0010163009030744,-0.0406405813992023,-0.0235702451318502,-0.0037957997992634
1772807736680735000,3.12473486328125,0.0649257688969373,0.0501841268390417,0.0257098299916833,-0.0138290124014019,-0.0081998640671372,-0.0040422868914902
1772807736700783900,3.144783935546875,-0.0140238491773605,0.0532490673676133,0.045963367338851,0.0084869293496012,-0.0192652735859155,0.0226775053888559
1772807736720832800,3.164832763671875,0.0101204119980335,0.0458585187248885,0.025314273069147,0.0057173492386937,0.0048269690014421,0.0328634195029735
1772807736740882000,3.1848818359375,0.0013327099084854,0.0481510135762393,0.0268971766127273,0.0018749695736914,0.0220385324209928,0.0232891403138637
1772807736760930800,3.204930908203125,-0.0321107100099325,0.0326613296300172,0.0568026316633447,0.0137753747403621,0.0051330882124602,0.0365227982401847
1772807736780979200,3.224979248046875,-0.0108627547979354,0.0420227399542927,-0.0010044095358811,0.0369170159101486,-0.0148366885259747,0.0554629378020763
1772807736801028000,3.245028076171875,0.1081353805482387,0.0064484454870223,-0.0354287302504293,0.0238446202129125,0.008566552773118,0.0463279522955417
1772807736821077000,3.265076904296875,0.1548398485779762,-0.0396884517878294,-0.0939076245629228,-0.0017870472511276,0.0345941148698329,0.0270830057561397
1772807736841126100,3.285126220703125,0.1464993057340383,-0.0411868736520409,-0.0961964661524631,-0.0100852474570274,0.0348099172115325,0.0150210671126842
1772807736861175000,3.305175048828125,0.0992903953135013,-0.0551177838489413,-0.0514806877219118,0.0197190549224615,0.0001001707278192,0.0190622918307781
1772807736881223200,3.32522314453125,0.152535078766942,0.0068912208184599,-0.0685822821104899,0.04141616076231,-0.0166524313390254,0.0239327102899551
1772807736901272000,3.34527197265625,0.2133393838196992,-0.0149748662918806,-0.0719237928244285,0.0155114522203803,-0.0057051042094826,0.0012473855167627
1772807736921321200,3.3653212890625,0.2324906590133905,0.0012029460489749,-0.0698056498929858,-0.0321894772350788,0.0088393874466419,-0.025767296552658
1772807736941370000,3.3853701171875,0.12447042927742,0.0312915025815367,-0.0022510851287283,-0.0474974326789379,-0.0018768399022519,-0.0136371375992894
1772807736961419000,3.4054189453125,0.0662158087074756,0.0619559593059122,0.0387513901334255,-0.0011997353285551,-0.0071744252927601,0.0136636393144726
1772807736981468200,3.42546826171875,0.0703249975919723,0.0692094375655055,0.004866911916621,0.0075286328792572,-0.0151738878339529,0.0128122419118881
1772807737001517000,3.44551708984375,0.1201525660783052,0.0603795037694275,-0.00983432506565,-0.0282258968800306,-0.0262853112071752,-0.0101036485284566
1772807737021566200,3.465566162109375,0.0429652815014123,0.0692111911311745,-0.0347504108637571,-0.0143779059872031,0.0002216087887063,-0.0065512214787304
1772807737041615000,3.485614990234375,0.0626625001400709,0.0907404475025832,-0.0188557445795275,0.016052521765232,0.026006544008851,0.0180324539542198
1772807737061664000,3.5056640625,0.0800076026946306,-0.0184013336092233,0.021192864023894,-0.0114042004570364,-0.0194878615438938,0.0223617032170295
1772807737081713200,3.525713134765625,0.1091179618448019,-0.0532198412731289,-0.0135770917905494,-0.0467221848666667,-0.0302259232848882,-0.0061288867145776
1772807737101762000,3.545761962890625,0.0595873304784297,-0.0262049930974841,-0.1085644926805049,-0.0345688834786415,-0.0121887074783444,-0.0172506794333457
1772807737121811200,3.565811279296875,0.0257166250586509,-0.0050143210306763,-0.1015794560987502,0.0042606154456734,0.0127255534753203,-0.0139705063775181
1772807737141859000,3.585859130859375,0.0238385562270879,-0.0140996908925473,-0.0786423970223404,0.0235363617539405,0.0032096472568809,0.0054251654073596
1772807737161908200,3.605908203125,0.100201080417633,-0.0418131888568401,-0.0831962609344162,0.0182155016809701,-0.0084554878994822,0.0046626087278127
1772807737181957000,3.62595703125,0.1389022747337818,-0.0363635451488196,-0.0918084785928949,-0.0132028739899396,-0.0113061359152197,-0.0409147292375564
1772807737202006000,3.646006103515625,0.1415723707258701,-0.0214103061668574,-0.0768442798255011,-0.0347194708883762,-0.0008604836766608,-0.0642074644565582
1772807737222055200,3.66605517578125,0.1099070663958787,0.0077110127687454,-0.061668593731895,-0.0511698797345161,-0.0014389145653694,-0.0558699443936347
1772807737242104000,3.68610400390625,-0.0205202254593372,-0.0007740531124174,0.0627584165289066,-0.0277239494025707,-0.0084942476823925,-0.0282373279333114
1772807737262153200,3.7061533203125,0.0349140769928693,0.0653266047827899,0.0022414770501665,0.0095666144043207,0.0148311061784625,-0.0168294459581375
1772807737282202000,3.7262021484375,0.0471066190898418,-0.001909633013606,0.045518363517709,0.0041382014751434,-0.0096337851136922,-0.0281426701694726
1772807737302251000,3.7462509765625,0.0534235471516847,0.0174742818921804,0.0750265811453573,0.0046022990718483,-0.0278679449111223,-0.02592384070158
1772807737322300200,3.766300048828125,0.0250374106228351,0.0409286611072719,0.0326555392100475,0.0127445254474878,-0.0176213048398494,-0.0211085919290781
1772807737342349000,3.78634912109375,0.0619587357848882,0.0370456821940839,0.0600732508318498,0.0127721689641475,0.0212953686714172,-0.0233761444687843
1772807737362398200,3.806398193359375,0.0623901129394769,0.0182053726457059,0.0254583029160276,0.0033275200985372,0.0290591027587652,-0.0109550524502992
1772807737382446000,3.826446044921875,0.104279874163866,0.0284574481993913,0.0375456858717836,-0.0014385811518877,0.0191327426582574,-0.0073777511715888
1772807737402495200,3.8464951171875,0.1061369002074003,0.0187320268683135,0.0234050419143401,-0.0048257196322083,-0.0109273791313171,-0.0113616678863763
1772807737422544100,3.866544189453125,0.0593435848504304,0.0508938825435936,0.0228681402923539,0.015853414312005,-0.0276062376797199,-0.0057131606154143
1772807737442593000,3.886593017578125,0.1216477730721235,0.0633186259612441,-0.0215390105804428,0.0264043044298887,-0.0025775772519409,-0.0015506106428802
1772807737462642200,3.90664208984375,0.1242827977508306,0.0044235155306756,-0.0501613122190348,-0.0033066016621887,0.0156465340405702,-0.007006729952991
1772807737482691000,3.926691162109375,0.1008621746748685,-0.0087185823760926,-0.0198737807819619,-0.029645724222064,0.0076019703410565,-0.0221993867307901
1772807737502740200,3.946740234375,-0.0001876315265893,-0.0027744331493973,0.0171758834674954,-0.0005092353094369,-0.008127486333251,-0.0093098022043704
1772807737522789000,3.9667890625,-0.0014922843843698,0.0216755329743027,0.0065291643067263,0.0325991548597812,-0.0103941336274147,0.0022130759898573
1772807737542838000,3.986838134765625,0.1122831478774547,-5.8598319441e-05,-0.0303476823927834,0.0240984112024307,0.0169751290231943,-0.0071843550540506
1772807737562887200,4.00688720703125,0.0799982503443956,-0.0129785779081285,0.0188418439183384,-0.020756360143423,0.0171414129436016,-0.0204353090375661
1772807737582936000,4.02693603515625,0.0427063383042812,0.0359438584320247,0.0345238903651945,0.0032094961497932,0.0068251546472311,-0.00140394968912
1772807737602984200,4.046984130859375,0.0203980603843927,0.0468337934978306,0.0195675826433114,0.0458197444677352,0.0083189783617854,0.0126992873847484
1772807737623033000,4.067033203125,0.1600982074975967,0.0436791288591921,0.0083089603955857,0.0361980944871902,0.0199265759438276,-0.0002337852492928
1772807737643082200,4.087082275390625,0.1702455075025558,0.0038138591997325,0.014667974033486,-0.0140426084399223,-0.0103499917313456,-0.0118268635123968
1772807737663131100,4.107131103515625,0.1993465143024921,0.0715913642659783,0.0171271124223247,-0.0145235881209373,0.0073281684890389,0.0006581430789083
1772807737683180000,4.127179931640625,0.0941951180011033,0.0606049830883741,-0.0087330858254805,-0.0045210993848741,-0.0057581970468163,0.0129444133490324
1772807737703229200,4.147229248046875,0.1101747774213552,0.0329309403516352,0.009089187520463,-0.0062683597207069,-0.0302265919744968,0.0041868528351187
1772807737723278000,4.167278076171875,-0.0154933372080326,-0.0245415899299085,0.0065046143873594,-0.0222564339637756,-0.0513570122420787,0.0012684245593845
1772807737743327200,4.1873271484375,-0.0330488676428794,0.0392231723636388,-0.0571804337334819,0.0062150708399713,-0.0139424698427319,0.0096333771944046
1772807737763376000,4.207376220703125,-0.0653717590987682,0.0235780055947601,-0.070841641877219,0.0254090577363967,0.019458994269371,0.0082539971917867
1772807737783428400,4.227428466796875,0.0232201320677995,0.021908172686398,-0.05299633471556,0.0372748039662838,0.0363808311522007,-0.0005148281343281
1772807737803477200,4.247477294921875,0.0762415281593799,0.0084840429678559,-0.0481361995995976,0.0264683719724416,0.0187433753162622,-0.0024645430967211
1772807737823526400,4.2675263671875,0.162992175373435,-0.0022730594985187,-0.0397054211889393,0.0025346588809043,0.0184392910450696,-0.0138703938573598
1772807737843574300,4.28757421875,0.2572124278157949,0.0154069740988314,-0.0283078653945587,-0.0252468325197696,0.0317972637712955,-0.0285791903734207
1772807737863623400,4.30762353515625,0.1600970384538173,0.0185283209897577,0.033945652085822,-0.04310829564929,-0.0155337117612361,-0.0294804386794567
1772807737883672600,4.327672607421875,0.1123117894500494,0.0782955380797386,0.0334864736088551,-0.0068045067600905,-0.0275635309517383,-0.0134857548400759
1772807737903721200,4.34772119140625,0.087407065296173,0.081590195710957,0.0389279157441109,0.0271015670150518,-0.0059690978378057,-0.001765470020473
1772807737923770400,4.367770263671875,0.0175935243576765,0.03342544587031,0.049259577606339,0.0112778823822736,-0.0269667990505695,0.0057904212735593
1772807737943819300,4.3878193359375,0.0495253706693649,0.0255342542290687,0.0263022246605716,-0.0033195279538631,-0.0222716685384511,0.0077816667035222
1772807737963868400,4.407868408203125,0.0355675724655389,0.0242139654107391,0.001611216322612,-0.0056473109871149,0.0062243598513305,-0.0018617184832692
1772807737983917600,4.42791748046875,-0.0745551825076341,0.0179034670896828,-0.0019631898317486,0.0136521169915795,-0.0025570408906787,-0.0062248758040368
1772807738003966200,4.44796630859375,-0.0507949522137641,0.0430427306517958,-0.0172859927784651,0.046149231493473,-0.0071456362493336,0.0023138946853578
1772807738024015400,4.468015380859375,-0.008873626807332,0.0311952026002109,-0.0363152490276843,0.0551593527197837,0.0091670816764235,0.0095104910433292
1772807738044064300,4.488064208984375,0.1330757605373859,0.0177476920060813,-0.0476846929724328,0.0247888062149286,0.0398835763335228,0.005635576788336
1772807738064112400,4.5081123046875,0.2035807908713817,-0.0019682313330471,-0.0409410821974277,0.0004557576030492,0.0378460884094238,-0.0030147950164973
1772807738084161300,4.528161376953125,0.2105342632710933,0.0336079628303647,0.0805144562382251,0.0017853507306426,-0.0009358009556308,-0.0049839508719742
1772807738104210400,4.54821044921875,0.1115355443805456,-0.0157777071073651,-0.0547362371854484,-0.0043564988300204,-0.0472407266497612,0.0047892890870571
1772807738124259600,4.568259521484375,0.1768956130415201,0.0724310299605131,0.0007031250343658,0.0170914959162473,-0.0208441987633705,-0.016832360997796
1772807738144308200,4.58830810546875,0.0612047025471925,0.0075068684987723,-0.0922296814133413,0.0044637764804065,0.0083359377458691,-0.0141593031585216
1772807738164357400,4.608357421875,0.0470604418605566,0.0215887314736843,0.0209901810586452,-0.0067899050191044,0.0092682382091879,-0.0107315704226493
1772807738184406300,4.62840625,-0.0558557427346706,0.0179759478040039,0.0903107143158093,0.00624969182536,-0.0196821149438619,-0.0003100670874118
1772807738204455400,4.648455322265625,0.0404874932110309,0.0475162228040397,0.0323908969244919,0.030591744929552,-0.0022436655126512,0.0135093629360198
1772807738224504600,4.668504638671875,0.0835585731744766,0.0383081033453345,0.0190317404672503,0.016562296077609,0.0108281383290886,0.0040240189991891
1772807738244553200,4.68855322265625,0.0939297450631856,0.0249596692115068,0.0405854188938625,0.0007492511067539,0.0078715812414884,-0.0060812663286924
1772807738264602400,4.708602294921875,0.1323363403469324,0.0574658082798123,0.0010299823685549,0.0158199816942214,0.020403504371643,0.0093195997178554
1772807738284650200,4.728650146484375,0.1625292340368032,0.0153252871647477,0.016122173163481,0.0108874049037694,0.0072178845293819,0.0220549292862415
1772807738304699400,4.748699462890625,0.290103474548459,0.0278726340487599,-0.0222899020129814,-0.0177475586533546,-0.0053795375861227,0.0109631149098277
1772807738324748300,4.768748291015625,0.2529652917653322,-0.0172311207860708,-0.0086918770322576,-0.0525903180241584,-0.0378517545759677,-0.0114938393235206
1772807738344797400,4.78879736328125,0.1788461625874042,0.0310747910909354,-0.0519681059126742,-0.0605946294963359,-0.0503689348697662,-0.0171205308288335
1772807738364846600,4.8088466796875,0.0635205782741308,-0.0106603640936315,-0.0261722050727345,-0.0525992885231971,-0.042591705918312,-0.0079536624252796
1772807738384895200,4.828895263671875,-0.0967085621267557,0.0293726633481681,-0.0117644711443223,-0.0151381688192486,-0.0408962331712245,-0.0019597872160375
1772807738404944400,4.8489443359375,-0.162042911824584,0.053579614496231,-0.0375767751297913,0.0331512615084648,-0.004619485232979,0.0119644068181514
1772807738424993300,4.8689931640625,-0.0813596018254756,-0.0235302209302783,-0.016020265425276,0.0298996586352586,0.0323857180774211,0.0197783224284648
1772807738445042400,4.88904248046875,0.0009925181686878,-0.0328375629797577,0.0214849423056468,-0.0054849558509886,0.0386607460677623,0.0057770982384681
1772807738465091600,4.909091552734375,0.0467068061172962,-0.0086275430917739,0.0418898160233162,-0.0060097812674939,0.0302885081619024,0.003393871942535
1772807738485140200,4.92914013671875,0.008521160107851,0.0508886218465864,0.0434148336335085,0.0286024939268827,0.0094057573005557,0.0066166641190648
1772807738505188400,4.949188232421875,0.1267810443073511,0.0944293651483953,0.0162670797931961,0.0486016608774662,0.0080699771642684,0.0129528492689132
1772807738525237200,4.9692373046875,0.2143424233824014,0.0349694604419171,0.0164945136072114,0.0079437214881181,0.00718829408288,0.0166640430688858
1772807738545286400,4.989286376953125,0.2870043394893408,0.0468362777158617,-3.37561391294e-05,-0.0405515432357788,0.0093583529815077,0.0203782822936773
1772807738565335300,5.009335205078125,0.1903115594536066,0.0324101313479244,0.0094473167757503,-0.0368225984275341,-0.0084708863869309,0.0206162109971046
1772807738585384400,5.029384521484375,0.0811994428277015,0.0472264460772275,-0.0075086768633686,-0.002882044063881,-0.0297600515186786,0.0251822732388973
1772807738605433300,5.049433349609375,0.0739969641029834,0.0120103173978626,-0.0490171106199733,0.0115970149636268,-0.0184575226157903,0.0378977917134761
1772807738625482200,5.069482177734375,0.0160118081241846,-0.014394874446839,-0.050056025213655,-0.0189935825765132,-0.0140574136748909,0.0237730648368597
1772807738645531400,5.089531494140625,0.0131254390329122,-0.030158991420269,-0.0666964318312704,-0.0268774665892124,0.0027796674985438,0.0169755183160305
1772807738665580300,5.109580322265625,-0.0755880326867103,-0.0130725398018956,-0.0526115366490557,-0.0024177175946533,0.0042509585618972,0.0125699806958436
1772807738685629400,5.12962939453125,-0.0450783281326293,-0.0111754740089178,-0.0356835269954055,0.0284759793430566,0.0262024048715829,0.0158305093646049
1772807738705677300,5.14967724609375,0.0275917712807655,-0.0203038062296807,-0.050994858700037,0.0359925292432308,0.0261401031166315,0.0194202437996864
1772807738725726500,5.1697265625,0.1327425830602645,-0.0323567937254905,-0.0415260790111497,0.0039144502952694,0.0136829735711216,0.0040897773578763
1772807738745775400,5.189775390625,0.2093073518246412,-0.0273198224715888,-0.0403070586102083,-0.0131222940981388,0.0116359032690525,-0.0097209438681602
1772807738765824800,5.20982470703125,0.1217991642415523,0.0106096568197011,-0.0592663914283737,-0.0067306533455848,-0.0128022218123078,-0.0076920115388929
1772807738785874000,5.2298740234375,0.0520049125254154,0.0203692726813256,-0.0679035243324004,0.0246188454329967,-0.0261623840779066,0.0020755922887474
1772807738805922800,5.2499228515625,0.0410503877907991,0.0316511296741664,-0.1126910162922926,0.0335312373936176,-0.021008500829339,-0.0028754756785929
1772807738825972000,5.269971923828125,0.0886252089142799,-0.0049503158837556,-0.077905442783609,0.0125538492575287,0.0077738976106047,-0.0186923779547214
1772807738846020600,5.2900205078125,0.1209025076627731,-0.0023322423398494,-0.0734438785311765,-0.0092036267742514,0.023705381900072,-0.0242475736886262
1772807738866069800,5.31006982421875,0.0548152937710285,-0.0016135726764798,0.0332807036373764,0.0094675291329622,-0.0087502971291542,-0.0111040752381086
1772807738886119000,5.330118896484375,0.1056821421772241,0.0589195142194628,0.0171147095984779,0.0609345473349094,0.0030913020018488,0.0022566658444702
1772807738906167800,5.350167724609375,0.1135930614322423,0.0116252636030316,0.0185007388630881,0.0288303606212139,0.000584986177273,-0.0239531584084033
1772807738926216000,5.3702158203125,0.1597919180274009,0.0145110481724143,0.0611197459437884,-0.0318095870316028,0.006907669827342,-0.0500467866659164
1772807738946264800,5.390264892578125,0.0896446150898933,0.0864566327035427,0.1090784700846299,-0.024408008903265,0.0191269200295209,-0.0191732794046401
1772807738966313700,5.410313720703125,0.094106270673871,0.1514399770066142,0.0987778426814824,0.0128797460347414,0.0113171227276325,0.0132504180073738
1772807738986362600,5.430362548828125,0.0847194336473941,0.0885924756884574,0.0789162820602767,-0.0067154811695218,-0.0352405086159706,0.0070921815931797
1772807739006411800,5.450411865234375,0.1278752692848443,0.0495443676307797,0.0241795882171019,-0.0411318615078926,-0.0189035534858703,-0.0071981102228164
1772807739026461000,5.4704609375,0.1270095923662185,0.0888271612271666,-0.036745932062529,-0.0285612847656011,0.0290558636188507,0.0037669660523533
1772807739046509800,5.490509765625,0.1291150402128696,0.0472882592670619,-0.0588707797069102,-0.0025328418705612,0.021247137337923,0.034497957676649
1772807739066558700,5.510558837890625,0.1146826102346181,-0.0352374637283384,-0.0297776639524847,-0.0034395644906908,-0.03627560287714,0.0253146179020404
1772807739086607600,5.530607666015625,0.0741939479798078,-0.0680533993981778,-0.0826906129672192,-0.0103209149092435,-0.0547582991421222,-0.0066678961738944
1772807739106656800,5.55065673828125,0.0348579628914594,-0.0631982144519686,-0.1041773636374622,-0.012912024743855,-0.0207213666290044,-0.0291268825531005
1772807739126704600,5.57070458984375,-0.0134814128637313,-0.0336285672269761,-0.0812424782518297,-0.0261107888072729,0.0131465401500463,-0.0412311218678951
1772807739146753800,5.59075390625,-0.012072130587697,-0.0038775720857083,-0.0433049983171746,-0.0137683227658271,0.0328933596611022,-0.029916888102889
1772807739166803000,5.610802978515625,-0.0703045393258333,0.0317315014339983,0.0471064181604422,0.0289643015712499,0.0039659533649683,-0.0083234906196594
1772807739186851800,5.630851806640625,0.0156990889132022,0.0409017731003463,0.0517242689531296,0.0633969455957412,-0.0045730834826827,0.0018622302450239
1772807739206900700,5.650900634765625,0.1341366677671671,0.0276788650423288,0.0603994871115311,0.0311575140804052,0.0148418927565217,-0.0067869182676076
1772807739226949600,5.67094970703125,0.2431283728837966,0.0363026087418198,0.0879843354611657,-0.0135880522429943,0.0291095282882452,-0.0025190585292875
1772807739246998800,5.690998779296875,0.181451961171627,0.0443260484606027,0.0880820602145977,-0.0311073064804077,-0.0073116607964038,0.0080312406644225
1772807739267048000,5.7110478515625,0.1230056174218654,0.0627788199961185,0.0457000036949291,-0.0116519257426261,-0.0322895534336566,0.0109283868223428
1772807739287096800,5.731096923828125,0.0206254393994808,0.0601363426633179,0.0317816241860389,0.0100631779059767,-0.0217035040259361,0.007783668115735
1772807739307145700,5.751145751953125,0.0472065723329782,0.0440409479089081,0.0340623190017417,0.0200348980724811,0.0005877024959772,0.0164163634181022
1772807739327194600,5.771194580078125,0.0658095659941434,0.047036330332607,0.026394213792961,0.0091484375298023,0.013355522416532,0.0250205807387828
1772807739347242800,5.79124267578125,0.1066208843320608,0.0273629309609532,-0.0086628336008638,-0.0151282548904418,0.0167954824864864,0.0235708225518465
1772807739367291600,5.811291748046875,0.0491243886530399,-0.0202079446397721,0.0241634407998993,-0.0174726955592632,-0.0007605324499309,0.0197108872234821
1772807739387340800,5.8313408203125,0.0011287117689847,0.0194737851463258,-0.0128158616270869,0.0211208071559667,-0.000143821016536,0.0240084081888198
1772807739407390000,5.851389892578125,0.0930564693599939,-0.0024386253237724,-0.0417994708587415,0.0324206724762916,0.0032126605510711,0.0308416541665792
1772807739427438800,5.87143896484375,0.1321072077661752,-0.0352288420304656,-0.0497469409981742,-0.008188271895051,0.0078122061677277,0.0093648582696914
1772807739447487700,5.89148779296875,0.1698527087926864,-0.01850070233047,-0.0709014092404395,-0.0326038040220737,0.0251698363572359,-0.0044078803621232
1772807739467536600,5.91153662109375,0.0931014775454998,-0.0118387602232396,-0.0248792791853658,-0.0237256679683923,0.0157659333199262,0.0043192412704229
1772807739487585800,5.931585693359375,0.0487257447242736,0.0069660396203398,-0.0015490743392147,0.0035783255007117,-0.0161165706813335,0.0056292996741831
1772807739507635000,5.951635009765625,0.1029676225215196,0.036700522018224,-0.0090718345268629,0.0203184112906456,-0.0113257206976413,-0.0022123847156763
1772807739527683800,5.971683837890625,0.134420160883665,0.0524229918070137,-0.0526045771853066,-0.0100700296461582,-0.0058270627632737,-0.0129357539117336
1772807739547732000,5.99173193359375,0.156048639845848,0.0705890553556382,-0.0339604843287728,-0.0306271761655807,0.0180313289165496,-0.0079124355688691
1772807739567780600,6.011780517578125,0.1319768593847751,0.1036975442312657,-0.0437264568659476,-0.0175606813281774,0.0177565682679414,-0.005657248198986
1772807739587829800,6.031829833984375,-0.0080640639901161,0.0781947080537676,0.0247934457991272,0.0134742930531501,-0.0386132001876831,-0.0017971475608646
1772807739607878700,6.051878662109375,0.0524918192595243,0.0590859568275511,0.0151025295258499,0.0172569621354341,-0.0412627160549163,-0.0009910445660352
1772807739627927800,6.071927734375,0.061112348088622,-0.0317719795748591,0.004182107990235,-0.0277180224657058,-0.0150663740932941,-0.0033214474096894
1772807739647977000,6.09197705078125,0.095613168105483,-0.0043885903477668,-0.0232581259906291,-0.0442922785878181,0.0414425954222679,-0.0082679595798254
1772807739668025900,6.11202587890625,-0.0132931968152523,-0.009630874915421,0.021771266700048,-0.0026962929405272,0.0299809947609901,0.0046240934170782
1772807739688074800,6.13207470703125,0.0711725543320179,-0.0009323124140501,0.0098241507315076,0.0454119928181171,-0.0060341241769492,0.0226528812199831
1772807739708123600,6.15212353515625,0.1748714137375354,-0.0183348442442715,-0.0240404354747384,0.0262024216353893,-0.0409688279032707,0.0039617079310119
1772807739728171800,6.172171875,0.260737094810605,-0.0159216456227004,-0.0833490220770239,-0.0507417656481266,-0.0254402495920658,-0.0362764298915863
1772807739748220700,6.192220703125,0.1674076537281274,0.0235043558366596,-0.0720037444591522,-0.0919680595397949,0.0179193802177906,-0.0535935349762439
1772807739768266200,6.212266357421875,-0.0258013807326555,0.0684824384652078,0.0077646243858151,-0.0432675033807754,-0.0002679243334569,-0.0260869823396205
1772807739788315100,6.232315185546875,-0.0272509950190782,0.1014959425337612,0.0560251444848254,0.0376517102122306,-0.0235812831670045,0.0131611805409193
1772807739808364000,6.252364013671875,0.0424281058847904,0.0346485579244792,0.0282293750645592,0.0381166785955429,-0.0401764325797557,0.0052554276771843
1772807739828413000,6.272412841796875,0.1695470038443803,-0.0277576293669641,-0.001460135680437,-0.0152705190703272,-0.0002192122628912,-0.0121058914810419
1772807739848462000,6.292462158203125,0.0390267730087041,-0.0121209381654858,0.0117516664616763,-0.0416934452950954,0.0141019131988286,-0.0135005228221416
1772807739868511200,6.31251123046875,0.0343909299015998,-0.0164826405063271,-0.010465791369602,-0.0084379306063056,0.0007874708389863,0.0031472770497202
1772807739888560000,6.33256005859375,-0.0410024569958448,-0.0492673042550683,-0.0218955324005335,0.0123775275424122,-0.037111822515726,-0.0187792833894491
1772807739908609000,6.352609130859375,0.0675409198313951,-0.0334931042790412,-0.0677029419926926,0.0153327453881502,-0.0007748152129352,-0.0396788939833641
1772807739928657200,6.3726572265625,0.0109790746539831,-0.0251405787363648,-0.0171856376765295,0.0141791850328445,0.0124928476288914,-0.0289894100278615
1772807739948706000,6.3927060546875,0.105014618179202,0.0159070325754582,-0.0210516289222985,0.0076411161571741,0.0213770568370819,-0.0116571057587862
1772807739968755000,6.4127548828125,0.1183510696142911,-0.0139769412957131,0.0020949629852548,-0.0121609298512339,-0.0053224973380565,-0.0197613053023815
1772807739988804000,6.43280419921875,0.0670265405684709,0.0369688175655901,0.0172657171754166,0.0016582584939897,-0.0118512213230133,-0.034146312624216
1772807740008853200,6.452853271484375,0.0189537067949771,0.060511021194607,0.0362681584829464,0.0477135702967643,-0.0048457104712724,-0.0176162887364625
1772807740028902100,6.472902099609375,0.0869026229053735,0.0614860037066042,0.0414712800839915,0.0367957688868045,-0.0002511932398192,-0.0006624893285334
1772807740048951000,6.492950927734375,0.1315776309341192,0.0168700323887169,0.0410263127954676,-0.0213943216949701,0.0057840533554553,-0.0019030766561627
1772807740069000000,6.513,0.0773141258269548,0.0221748607985675,0.0694100016389042,-0.0255463980138301,0.0103939147666096,-0.0078818090260028
1772807740089049000,6.533049072265625,0.0290799640119075,0.0226800338417291,0.0852649752335622,0.0145278386771678,-0.002188878133893,0.009452311322093
1772807740109097200,6.55309716796875,0.0803413646936416,-0.0115425537556409,0.0713594552062451,0.0346375443041324,-0.0193415321409702,0.0128631731495261
1772807740129146000,6.57314599609375,0.1223240648984909,-0.0124884563036262,0.0575894711920991,0.0113541958853602,-0.0080195870250463,0.0032629161141812
1772807740149195300,6.5931953125,0.0003594809621572,0.0258593945302069,0.029319252660498,0.0109421499073505,-0.0042132413946092,0.0190300252288579
1772807740169244200,6.613244140625,0.0349596697002649,0.0614038783811032,0.0099122126074507,0.042877584695816,0.0263471119105815,0.0388230755925178
1772807740189293000,6.63329296875,0.1172463232427835,-0.0090307170651853,0.0269628439937718,0.0352465696632862,0.0240598153322935,0.030507169663906
1772807740209342200,6.65334228515625,0.1625754112660885,-0.0208696234188973,0.0072384816198609,-0.0143464654684066,-0.0073719373904168,0.013036336749792
1772807740229391000,6.67339111328125,0.141304075178504,-0.0513777205377817,-0.0254819395199418,-0.0368575602769851,-0.0120725771412253,0.0145580228418111
1772807740249440300,6.693440185546875,0.0004342997640371,0.0149944477751851,-0.0571656197568401,0.0089530982077121,-0.0063382415100932,0.0171676259487867
1772807740269489200,6.7134892578125,0.0222761292159557,0.0416191275894641,-0.0457949519693851,0.0687591284513473,0.0181993097066879,0.0338501408696174
1772807740289538000,6.7335380859375,0.1596013638913631,-0.0350280587613582,-0.0300721533870324,0.0570150017738342,0.0092212110757827,0.0435626022517681
1772807740309586200,6.753586181640625,0.2564461196184158,-0.0610910130396485,-0.0646773836264386,-0.0129522094503045,-0.0058198166079819,0.0156508758664131
1772807740329635000,6.773635009765625,0.2219885542213916,-0.0930386414423584,-0.0482972536465153,-0.0573435574769973,-0.0157785024493932,-0.0195587407797575
1772807740349684200,6.793684326171875,0.1051204166412353,-0.0372835826031863,-0.005862279629521,-0.0430298745632171,-0.0304763186722993,-0.0239450465887784
1772807740369733000,6.813733154296875,-0.0365618441998958,0.02776522815153,0.0061875295285135,0.002671216847375,-0.0520558468997478,0.008287688717246
1772807740389782300,6.8337822265625,0.013989362385869,0.0811436209872365,-0.0034143384881317,0.0339245572686195,-0.0292126480489969,0.0232853163033723
1772807740409831200,6.8538310546875,-0.018616437664628,0.0719043757379055,-0.0240510664666071,0.0098747089505195,-0.0265806149691343,0.0171340629458427
1772807740429880000,6.873880126953125,-0.0022445640563964,0.0621681407518684,-0.013814699938707,-0.0043704016134142,-0.0116865718737244,0.0126007366925477
1772807740449929200,6.89392919921875,-0.0819394475400447,0.0519528900772333,-0.0005057210324332,0.0156034613028168,-0.002854426857084,0.023811038583517
1772807740469978000,6.91397802734375,-0.0298918649166822,0.0517290181934833,-0.0164008439743891,0.0575374588370323,0.0212670359760522,0.0410370603203773
1772807740490026200,6.934026123046875,0.1293938571542501,-0.0072664838716387,-0.0309383052296936,0.0536037571728229,0.037235002964735,0.0355041436851024
1772807740510075100,6.9540751953125,0.2055231571108102,-0.0569917610272765,-0.0297210383944213,-0.0014485558494925,-0.0081120459362864,-0.0085289347916841
1772807740530124300,6.974124267578125,0.1652238799482583,-0.0843225432842969,0.0330986616013571,-0.0023932345211505,-0.0487008616328239,-0.0374664478003978
1772807740550173000,6.9941728515625,0.1790425619423389,0.052432782548666,-0.028990714825876,0.0196591336280107,0.0082465140148997,-0.0333156920969486
1772807740570222000,7.01422216796875,0.1224210955321788,0.043639235240221,-0.0097582276221364,0.0126881441101431,0.0253948047757148,0.0104513484984636
1772807740590271200,7.034271240234375,0.115100543385744,0.0877776521742343,0.0476617687545716,0.0068986173719167,0.013648466207087,0.0107021825388073
1772807740610320100,7.054320068359375,0.1756336302816867,0.0596197714433074,0.0320680033793672,0.0047461120411753,0.0382736027240753,0.0039503634907305
1772807740630369300,7.074369384765625,0.1468850901812315,0.0353068757027387,0.1081020993331447,-0.0091237695887684,0.0055158715695142,0.0057257208973169
1772807740650418000,7.09441796875,0.1277408292502165,0.0250648831516504,0.1027530299227684,-0.02293087169528,-0.0334862694144248,0.0183614902198314
1772807740670466300,7.11446630859375,0.0829822345912456,0.0403878322288394,0.0155660005854442,-0.021921606734395,-0.025377320125699,0.026625856757164
1772807740690515000,7.134514892578125,0.0338619375914335,0.0542962383329868,-0.0580156607149168,0.004746223334223,0.0136315990239381,0.0334896221756935
1772807740710564000,7.154564208984375,0.0541010080218315,0.0026265491113066,-0.0647272506501525,0.0037160567007958,0.0254516620188951,0.0300492122769355
1772807740730613200,7.17461328125,0.1085819552719593,-0.0762508805096149,-0.0565996564371511,-0.0282610971480608,0.0029165090527385,0.0103524159640073
1772807740750662100,7.194662109375,0.0371621481806039,-0.0585842909157276,-0.0483195750761777,-0.0273963864892721,-0.0183871816843748,-0.0005282806232571
1772807740770715000,7.21471484375,0.0941653073847293,0.023922435118258,-0.1067896650277078,0.0145295653492212,0.0105511052533984,0.0055705811828374
1772807740790763800,7.234763671875,0.14222528167665,0.0449631773203611,-0.0742416595790535,0.0247039161622524,0.0170498434454202,0.0060534914955496
1772807740810813000,7.25481298828125,0.1609925259888172,-0.0038406010761857,-0.085061452018097,-0.0248235240578651,-0.0198614280670881,-0.0008091363124549
1772807740830861800,7.27486181640625,0.1623047776311635,0.0001031681135296,-0.0744363419009372,-0.0639470741152763,-0.0296463761478662,-0.0197207834571599
1772807740850910000,7.294909912109375,0.0634966128766536,0.0388175141721963,-0.0965393795723095,-0.0514487437903881,-0.0149092795327305,-0.0236872881650924
1772807740870958800,7.314958740234375,-0.0073842650324106,0.0848373609386384,-0.0838245671669021,-0.012280854396522,0.0024202466011047,-0.0154404360800981
1772807740891008000,7.335008056640625,0.0428776032179594,0.0434995345085859,-0.0555547504941001,0.0016718325205147,0.0239964332431554,0.0015700601506978
1772807740911056600,7.355056640625,0.1088075807213783,0.0199184601739048,-0.0253757391991093,-0.0219434909522533,0.0267154276371002,0.0006426677573472
1772807740931105800,7.375105712890625,0.1580254928767681,0.0228124280497431,-0.0025386881647631,-0.0447689071297645,0.0256676264107227,-0.0139621011912822
1772807740951155000,7.395155029296875,0.1747159309148788,0.0543792404413223,-0.00720591279082,-0.044987104833126,0.0124270981177687,-0.024513054639101
1772807740971203800,7.415203857421875,0.0521311692535877,0.0682002605229616,0.0489440271174535,-0.0289870090782642,-0.0343994982540607,-0.0283369719982147
1772807740991253000,7.4352529296875,0.0054816462814807,0.0764740217410027,0.0247344456208869,-0.0155264753848314,-0.0425044372677803,-0.0218665432184934
1772807741011301600,7.455301513671875,0.0705336719065904,0.0762296915911138,0.0323748408388346,-0.0126136476173996,0.0140658486634492,-0.0007137595675885
1772807741031350000,7.47535009765625,0.0716062695741653,0.0400970325887203,0.0260000451099127,-0.0269129872322082,0.0279932897537946,0.0142330667003989
1772807741051399000,7.49539892578125,-0.0041577042013406,0.0028187106825411,0.0644049598932266,-0.0228625573217868,-0.0219067987054586,0.0158580262213945
1772807741071447800,7.51544775390625,0.0536117632001638,-0.0212079154625535,0.0025990035172551,0.0180625617504119,-0.0218808557838201,0.01335159689188
1772807741091497000,7.5354970703125,0.0777554398536682,-0.067155135384202,-0.0381987246867269,0.0112743284553289,-0.0080575784668326,0.0063195908442139
1772807741111545900,7.5555458984375,0.1420376501500606,-0.0996289796181023,-0.0458314845874905,-0.0313522182404994,0.000431343447417,-0.0117464140057563
1772807741131595000,7.575594970703125,0.0632902766495943,-0.0798909905776381,-0.0414789154011756,-0.0474085211753845,0.0004826134245377,-0.0300401300191879
1772807741151644000,7.595643798828125,0.0346089565664529,-0.0083661156766116,-0.0499625565102323,-0.0194763112813234,0.0060150315985083,-0.02571527287364
1772807741171692800,7.61569287109375,-0.0410030415177345,0.0285555017463862,0.0111492801217362,0.0300397686660289,-0.0136956609785556,-0.01139647513628
1772807741191742000,7.635741943359375,0.0475093546718358,0.0656292409911751,-0.0064875353883951,0.0422561876475811,-0.0040139267221093,-0.0061284555122256
1772807741211789800,7.655789794921875,0.1182645603746175,0.0394243940241634,0.0207155288357287,0.0050660031847655,0.0150825455784797,-0.0103448946028947
1772807741231839000,7.6758388671875,0.0748468589305877,0.0526104772031307,0.0592330736806616,-0.0230678487569093,0.017859973013401,-0.0152077684178948
1772807741251887900,7.695887939453125,0.1234329029232263,0.0670488985307514,0.0761904190266504,-0.0205514561384916,0.0186409894376993,-0.0054660909809172
1772807741271936800,7.715936767578125,0.0973182184576988,0.0881789264515042,0.0864912290928885,-0.0119813587516546,-0.0091070029884576,0.0010147695429623
1772807741291986000,7.73598583984375,0.0421194783270359,0.0987410908676683,0.0781239443724974,-0.0077484203502535,-0.0323166958987712,0.0021028714254498
1772807741312034800,7.756034912109375,0.0375730670690536,0.1218365736424922,0.0456797646244987,0.023567222058773,0.0075576957315206,0.0199521258473396
1772807741332084000,7.776083984375,0.0041688101172447,0.0679071227952837,0.0040288901899009,0.0107376370579004,0.0202789735049009,0.0365082435309886
1772807741352132900,7.7961328125,0.0766378340005874,0.0020155776061117,0.0098901469061151,-0.0070786988362669,0.0232765190303325,0.0297362208366394
1772807741372181000,7.816180908203125,0.0221346749186515,0.0030813071414828,-0.0190239590195938,0.0037699353415519,0.0153225297108292,0.0154620502144098
1772807741392230000,7.83622998046875,0.0783551593124866,0.0288337341658771,-0.0537500026270747,0.0276561006903648,0.008834633976221,0.0167859867215156
1772807741412278800,7.85627880859375,0.0616933628469705,-0.0118283849596977,-0.0483164698036387,0.0224262233823537,-0.0097772143781185,0.0172464251518249
1772807741432328000,7.876327880859375,0.1620616165250539,0.0226139828681945,-0.1014998880565166,0.0063433479517698,0.005515971686691,0.0027028457261621
1772807741452376800,7.896376953125,0.0665261898308992,0.0087036770679056,-0.0738900331297889,-0.0052196010947227,-0.0055845351889729,-0.0074067576788365
1772807741472426000,7.916426025390625,0.1209942775994539,0.0121599550016224,-0.0943708764268085,-0.0121408877894282,0.0058296509087085,-0.0080903861671686
1772807741492475000,7.936474853515625,0.0984872622370719,-0.0048899639986455,-0.0518333918834105,-0.018219182267785,0.0014491565525531,-0.0159326680004596
1772807741512523800,7.956523681640625,0.0757353322029113,0.0425349272601306,-0.0453685432508587,-0.0019467966631054,-0.0071392720565199,-0.0168753042817115
1772807741532573000,7.976572998046875,0.0734562813550233,0.0492354478120803,-0.0335659137869253,0.0223976988345384,0.0031558044720441,-0.0023396909236907
1772807741552620800,7.996620849609375,0.1101923130780458,0.0372689695559442,0.004250716247037,0.0103153046220541,-0.0036420575343072,-0.0029493607580661
1772807741572670000,8.016669921875,0.1310965694189071,0.0188195590212941,0.0130195675056427,-0.021907290443778,-0.0064118271693587,-0.0147348493337631
1772807741592718800,8.03671875,0.0877379046857357,0.0327417013898491,0.0467492204869166,-0.0330871231853961,-0.0131998443976044,-0.0268950946629047
1772807741612768000,8.05676806640625,-0.0010077157378196,0.0717465548276901,0.0625788404446095,-0.0149970585480332,-0.0052390214987099,-0.0197329763323068
1772807741632817000,8.07681689453125,0.0075374097675085,0.0876442350529134,0.0506589047439396,0.0006991962436586,0.0114793507382273,-0.0053268591873347
1772807741652865800,8.09686572265625,0.0443272175043821,0.0795924460224807,0.0763810462279245,0.0076629538089036,0.0098359826952219,0.0064856791868805
1772807741672915000,8.1169150390625,0.0665367112249136,0.0540956011943519,0.0551095274772495,0.0092102140188217,0.009362019598484,0.0116122867912054
1772807741692963800,8.1369638671875,0.1700076070934534,0.0448534333355724,0.0280636631088331,0.0039914771914482,0.0245870947837829,0.0119032962247729
1772807741713012000,8.157011962890625,0.1182826805531978,-0.0252453542850911,0.0275879718884825,-0.0141292382031679,-1.11064582597e-05,0.0147797986865043
1772807741733060900,8.177060791015625,0.1393628779828548,-0.010031856931746,-0.0044382747083902,-0.0163879357278347,-0.0159488897770643,0.0082881208509206
1772807741753110000,8.197110107421874,0.0386333897769451,-0.0328586057677865,-0.0550259408470243,0.0003699592780321,-0.0209516547620296,-0.0005259350873529
1772807741773154800,8.21715478515625,0.0366115285605192,-0.0125305418796837,-0.0647425212845206,0.0090223858132958,0.0114703308790922,-0.0126160457730293
1772807741793203700,8.23720361328125,0.0498585481464862,-0.0351014162585139,-0.0658161783980205,-0.0113197918981313,0.0237193070352077,-0.0153586342930793
1772807741813252600,8.257252685546876,0.0906575915247202,-0.0038290567688643,-0.0198168994955718,-0.0149254547432065,0.0162716805934906,-0.022799052298069
1772807741833301800,8.2773017578125,0.13683540533185,0.0320095877230167,-0.0352380482502281,-0.0060075847432017,0.0020214691758155,-0.0237782169133424
1772807741853351000,8.297350830078125,0.2134866833359003,0.0463243826709687,-0.0007171352934092,-0.0176418088376522,-0.0113100474700331,-0.0261903647333383
1772807741873398800,8.317398681640626,0.3370511036843061,0.040135757163912,-0.0187300906395539,-0.0589658953249454,-0.0073509248904883,-0.0164818465709686
1772807741893448000,8.337447998046875,0.4027385046035051,0.0353309872306883,-0.0408336763001978,-0.1172703802585601,-0.0298437103629112,-0.022764042019844
1772807741913496800,8.357496826171875,0.3023135523021221,0.0713189770653843,-0.0534213186619803,-0.1477316170930862,-0.0733183547854423,-0.049684077501297
1772807741933545700,8.377545654296876,-0.1458738673120737,0.0864984260186552,0.0132172820348292,-0.0816998183727264,-0.1070110574364662,-0.0464003458619117
1772807741953594600,8.3975947265625,-0.2425263153374195,0.212906106968969,-0.0707949166586622,0.0199903473258018,-0.018411599099636,-0.0319895483553409
1772807741973643800,8.417643798828125,-0.294779065144062,0.0964526876695454,0.0520916774934157,0.036006886512041,-0.0108452169224619,-0.0086584948003292
1772807741993693000,8.43769287109375,-0.1891015991419553,0.0621580577492713,0.1229376302195712,0.0068700751289725,0.0093607604503631,0.006759581156075
1772807742013741800,8.457741943359375,-0.0884399154752492,0.0343470907598733,0.0624893355302512,-0.0032514291815459,0.0610250309109687,0.0216391310095787
1772807742033790000,8.4777900390625,0.0303612359941005,0.0009513093754649,0.0904472367096692,0.0132439816370606,0.0525275394320488,0.0191574655473232
1772807742053838800,8.4978388671875,0.0660147331774234,0.0019452888488769,0.0842097305595874,0.0468393638730049,-0.018875753507018,0.0131817730143666
1772807742073887700,8.5178876953125,0.2197135950267315,0.0212301272943615,-0.0322203078642487,0.0720553696155548,-0.0327641889452934,0.0141477938741445
1772807742093936600,8.5379365234375,0.3235936562180519,0.0049932782426476,-0.0799083801038563,0.0284913759678602,0.0043581444770097,-0.0125669073313474
1772807742113985800,8.55798583984375,0.2422223639547824,-0.0613984715536236,-0.0650124242670834,-0.0595353879034519,0.0100892968475818,-0.0261368062347173
1772807742134035000,8.578034912109375,0.1093780740857124,-0.0276265503332018,-0.0574855358935892,-0.0628118738532066,-0.0047607556916773,-0.0257133636623621
1772807742154083800,8.598083740234374,-0.0290355403482913,0.0324459333136677,-0.0166859079934656,-0.0050041056238114,-0.0313836261630058,-0.0260741282254457
1772807742174132700,8.6181328125,-0.016093056666851,0.0657362084969878,-0.0132312740275636,0.0419335775077343,-0.0147602949291467,-0.0170033946633338
1772807742194180600,8.6381806640625,0.0584592032313346,0.0467823555715382,0.0017218553565442,0.022883616387844,0.026094451546669,-0.0010464675724506
1772807742214229800,8.658229736328124,0.0885159033209085,0.0441490844585001,0.0523464194394648,-0.0265802796930074,0.0332687310874462,-0.0087641654536128
1772807742234278700,8.678278564453125,0.1113116724967956,0.0573005347155034,0.1082451610656455,-0.0356231592595577,0.0153346294537186,-0.0179976243525743
1772807742254327800,8.698327880859376,0.0347907428741455,0.1034730878256261,0.14161807303112,-0.0014461884275078,-0.0071541341021656,-0.0155876148492097
1772807742274377000,8.718376953125,0.0423421811670064,0.1251068274848163,0.1439731847899034,0.0171252693980932,0.0129299163818359,-0.0004077069461345
1772807742294425600,8.738425537109375,0.0411088399797677,0.100698070154339,0.159045081715472,0.0065958155319094,0.0203601662069559,0.0227505899965763
1772807742314474800,8.758474853515626,0.0274836347311735,0.0698087186329066,0.1393295967677608,-0.0063682426698505,0.0104224625974893,0.0450778603553772
1772807742334523600,8.778523681640625,0.0533422986090183,0.0483766390256583,0.0772854111891239,-0.0059981453232467,0.0131015349179506,0.0527631789445877
1772807742354572800,8.79857275390625,0.0607008446782827,0.0166914609514176,0.0388116324206814,0.0094744721427559,0.0156455859541893,0.0544747523963451
1772807742374620700,8.81862060546875,0.0840104085952043,-0.0324206527419388,-0.0243222480908036,0.0112114110961556,0.0171077437698841,0.0454422757029533
1772807742394669800,8.838669921875,0.0959165349662303,-0.0567658433169126,-0.0456799838202074,0.001718295738101,0.0192520171403884,0.0361805222928524
1772807742414719000,8.858718994140625,0.1567266852378845,-0.0702251904793083,-0.0787964002739638,-0.0045488635078072,0.0189770348370075,0.0384038686752319
1772807742434767600,8.878767578125,0.2036480108886957,-0.076556585457921,-0.0814146199483424,-0.0264105424284935,0.0052680256776511,0.0273484140634536
1772807742454816800,8.898816650390625,0.1533060631394386,-0.0547735004559159,-0.0599861205376684,-0.0453289933502674,-0.0338772758841514,0.0119292521849274
1772807742474865700,8.91886572265625,0.0886222863048315,-0.0078844696395099,-0.0646007747262716,-0.0311770737171173,-0.0390322059392929,0.0104692932218313
1772807742494914800,8.938914794921875,-0.0514864416092634,0.0155544197455048,-0.0633179318415001,-0.0027937130071222,-0.0240221489220857,0.0131023302674293
1772807742514962700,8.958962646484375,-0.1413666190207004,0.0261311972089111,-0.0187285562695935,0.0366726107895374,-0.0065504293888807,-0.000301718711853
1772807742535011800,8.97901171875,-0.1243693069905042,0.0212632989116013,0.0264390210490673,0.0498723238706588,0.0239223316311836,0.0017682546749711
1772807742555060700,8.999060791015625,-0.0524631776869297,0.0180748781338334,0.0831113773962482,0.0470113009214401,0.0516241081058979,0.0284199174493551
1772807742575109600,9.019109619140623,0.0254465759456157,0.0443815780401229,0.1424568984754383,0.0519375912845134,0.0316583104431629,0.0508542209863662
1772807742595158800,9.03915869140625,0.082975804850459,0.1029891037009656,0.0991828798184171,0.0617399848997592,-0.0040627685375511,0.0586350336670875
1772807742615207700,9.059207763671877,0.1373924546927213,0.1249164194792509,0.0359631111217662,0.0617768131196498,-0.0130042657256126,0.0479195713996887
1772807742635256800,9.0792568359375,0.1802805793046951,0.1139820607498288,0.0163008176660165,0.0429820790886879,-0.0055768121965229,0.0506425760686397
1772807742655306000,9.099305908203124,0.1660690986007452,0.1047365318901836,-0.0114919195469468,0.0311068054288625,0.0044705281034111,0.0648553073406219
1772807742675353900,9.119353759765623,0.1819476357340812,0.077068480502814,-0.0681275240803137,0.0231313090771436,0.0068493108265101,0.0719741061329841
1772807742695402800,9.13940283203125,0.1709784979522228,-0.0050778877861797,-0.0851048162357881,0.0160388257354497,-0.0042728325352072,0.0398529805243015
1772807742715451600,9.15945166015625,0.1815922464251518,-0.0462201916441321,-0.1368955014886334,-0.0059168832376599,-0.0053772903047502,0.0121270455420017
1772807742735500800,9.179500732421875,0.143868372708559,-0.0500794974207878,-0.1461575796242803,-0.0168727114796638,-0.0185924060642719,0.0094279237091541
1772807742755550000,9.199550048828126,0.1189420212447643,-0.017070377266407,-0.1650821699226275,0.0032567572779953,-0.0250411611050367,0.0105099882930517
1772807742775598800,9.219598876953125,0.0929459947228431,-0.0464675905339419,-0.1391683783240616,-0.006029499694705,-0.0353235565125942,-0.0160063449293375
1772807742795647700,9.239647705078124,0.0684025050967931,-0.0629398557767272,-0.1230667730245739,-0.0263400394469499,-0.0180919859558343,-0.0439265221357345
1772807742815696600,9.259696533203124,0.0338058234900236,-0.0316563903711736,-0.0641866044348105,-0.0309266876429319,0.0041231499053537,-0.0476461425423622
1772807742835744500,9.27974462890625,-0.0848030202776193,0.0153422382995486,0.0167510456515476,0.0017570601776242,-0.0089239459484815,-0.0429366752505302
1772807742855793700,9.299793701171875,-0.0253945534974336,0.1224304478824138,0.0270944892831146,0.0601348616182804,0.0518509224057197,-0.0277981013059616
1772807742875842600,9.319842529296874,0.001204699614644,0.0133195003002882,-0.0711815413560718,0.0352639816701412,0.0943193882703781,-0.0232326313853263
1772807742895891700,9.3398916015625,0.2193067677915096,0.0675629855327308,0.1206664338845759,-0.046621274203062,0.1296277940273285,-0.0672180354595184
1772807742915940900,9.35994091796875,0.2887871312528848,0.0791689599134028,0.138861102473177,-0.0100895930081605,0.1565077900886535,-0.0862194448709487
1772807742935989500,9.379989501953125,-0.0928372736513614,0.0405948991082608,0.21168511380665,0.0901448652148246,-0.0034166313707828,-0.128916323184967
1772807742956038700,9.40003857421875,-0.0712403588712215,0.0545239096090197,0.15858484379258,0.1504784971475601,-0.0587805286049842,-0.0859478935599327
1772807742976087600,9.420087646484374,0.126007137325406,0.1476889539100229,0.101926296775043,0.067616693675518,0.066380575299263,0.0221912376582622
1772807742996135700,9.4401357421875,0.2303781969040632,0.0242228793695569,0.1198569075999781,-0.0706220045685768,0.0910784155130386,0.0921208783984184
1772807743016184600,9.4601845703125,0.1267804597854614,0.0335879429556429,0.0380648874402977,-0.0870975330471992,-0.0066255307756364,0.0926857441663742
1772807743036233700,9.480233642578124,-0.0033884733945131,-0.0050265959903597,0.0270829267094843,-0.0046275085769593,-0.1098008528351783,0.0549247488379478
1772807743056283000,9.500282958984377,0.1321013625472784,0.0276578222543001,-0.0371839216209948,0.0454202741384506,-0.0810943767428398,0.039821308106184
1772807743076331500,9.52033154296875,0.2393319032102823,0.0334713308386504,-0.1198508797179907,0.0166013929992914,0.0027523429598659,0.0329033955931663
1772807743096380700,9.540380615234374,0.112457919922471,-0.0307559344001114,-0.1302753892291337,-0.0230185110121965,0.0521480031311512,-0.0057069850154221
1772807743116429600,9.5604296875,-0.1048053593426942,-0.0064447922252118,-0.0959300703012384,0.0355694591999053,0.0611136071383953,-0.0489935763180255
1772807743136477700,9.580477783203126,-0.2047691238731145,-0.050779316253215,-0.0263635263937525,0.1044989451766014,0.0029235200490802,-0.0420784689486026
1772807743156526600,9.600526611328124,0.0773421828776597,-0.0034597850650548,-0.0181758725565858,0.0697447806596756,0.0090264566242694,-0.0080950865522027
1772807743176575700,9.62057568359375,0.1833656858384609,-0.0201852944165468,-0.0401083211677148,-0.0287745408713817,0.0288847051560878,0.0219186097383499
1772807743196624600,9.640624755859376,0.1779378155708313,0.0037273499600589,-0.0581965519734658,-0.0740881711244583,0.0306351818144321,0.009018400683999
1772807743216673500,9.660673583984376,0.1140951657354831,0.0601104775696992,-0.0152475640197284,0.0146173750981688,0.004920604173094,-0.0268244054168462
1772807743236722700,9.68072265625,-0.0250146142691373,0.0485382593281567,0.0407404998577199,0.0768593847751617,-0.1132991015911102,-0.0041067134588956
1772807743256771600,9.700771484375,0.1642617569178342,0.0985655881702899,0.0004361994601786,0.024227088317275,-0.080231487751007,0.0206171683967113
1772807743276820700,9.72082080078125,0.0156476509869098,0.0348895270735025,-0.0151939524026587,-0.0791637897491455,-0.0144318593665957,0.0210240464657545
1772807743296868600,9.74086865234375,-0.0075619596868753,0.1139883443601429,0.0015344064930453,-0.1072177141904831,0.0467585995793342,0.0106654446572065
1772807743316917800,9.760917724609374,-0.1365671097844839,0.0856985078126192,0.1310539541198871,-0.0137797622010111,0.040539339184761,0.056400965899229
1772807743336966700,9.780966552734377,-0.088725746679306,-0.0011519465140998,0.0748168839174322,0.1016625165939331,-0.0137205617502331,0.0543654412031173
