time,seconds_elapsed,accel_z,accel_y,accel_x,gyro_x,gyro_y,gyro_z
1772808552893199400,0.085199462890625,0.0829056622236967,0.0009391348804812,-0.007365099107637,-0.0030330023728311,0.0005471039330586,-0.000506819691509
1772808552913248300,0.105248291015625,0.0893389101415872,0.0012405107135418,-0.0015761221763445,0.0003679054789245,0.0015148795209825,-0.0012770476751029
1772808552933297400,0.12529736328125,0.0811117645442485,0.001141607783176,-0.0076090319653041,0.0007858846802264,-0.0005930019542574,0.0024439478293061
1772808552953346600,0.1453466796875,0.0764765059590339,-0.0013005886040162,-0.0037232263407902,0.0010837274603545,-0.0005051550688222,-0.0014769397675991
1772808552973395500,0.1653955078125,0.0781266112536192,-0.0010075787405017,0.005991358502442,0.0010156803764402,-0.0003373640065547,0.0010260317940264
1772808552993444400,0.1854443359375,0.0761789843171834,-0.0013073197389021,-0.0113381491907639,-0.0004423144273459,-0.0021030320785939,0.0001468369737267
1772808553013493200,0.2054931640625,0.0818693049132823,0.000137426576158,-3.69025108637e-05,0.0015069227665662,-0.0018252189038321,-0.0011261850595474
1772808553033543400,0.22554345703125,0.0838105021089315,-0.0046778373516164,0.0042841481591807,-0.004302127752453,-0.000223624985665,-0.0006080013699829
1772808553053592300,0.24559228515625,0.080519643869996,-0.0012176504277624,0.0017373908523935,0.0015109688974916,0.0001849204418249,0.0009896752890199
1772808553073641200,0.26564111328125,0.0857563754796981,0.0028059699319768,-0.0005964954552706,-0.0009568450041115,0.001194515149109,-0.0013509732671082
1772808553093690400,0.2856904296875,0.0859083511710167,-0.0020513430392369,-0.013543230620143,0.0016683535650372,0.0004965277621522,-0.0025044768117368
1772808553113739500,0.305739501953125,0.0806704505175352,0.0057471014177892,-0.0017099183235783,-0.0006354369688779,-0.0007227195310406,-0.0004000626504421
1772808553133788400,0.325788330078125,0.0832113671720027,-0.0076299377560149,-0.007796412330144,0.0020609172061085,-0.0011165098985657,7.1949325501e-06
1772808553153837600,0.345837646484375,0.0983241806298494,-0.0002953570842277,0.0001666937698377,0.0022825810592621,-0.0017584011657163,-0.0003075031563639
1772808553173886200,0.36588623046875,0.0809679721593856,-0.0011123177566099,-0.0090102359661599,0.0017540124244987,0.0019562165252864,-0.0002894746139645
1772808553193935400,0.385935302734375,0.0794739342093467,0.0020649057737085,0.0039229729968588,-0.0011334726586937,0.0012113254051655,0.0001519205980002
1772808553213984500,0.405984619140625,0.094136081290245,0.0065912240917328,-0.0051417239697417,0.0009028681088238,0.0010611673351377,0.0002864003181457
1772808553234033400,0.426033447265625,0.0803694217443466,0.0024343875400722,0.0022103101603453,0.0023208186030387,-0.0019378527067601,-0.0011551626957952
1772808553254082600,0.44608251953125,0.0884486833035945,-0.0107972700799815,-0.0013922854754608,-0.0018445196328684,0.0008898461237549,0.0010251584462821
1772808553274132500,0.466132568359375,0.0808165809899568,-0.0004911719172727,-0.0039980931928381,-0.0002081792335957,0.0011553490767255,-0.0002699200995266
1772808553294181400,0.486181396484375,0.0845581056058406,0.0071331032829359,-0.006477260589553,-0.0009064171463251,0.0003670571022666,0.0002931645140051
1772808553314230500,0.50623046875,0.0887438668578863,0.0030854170610196,-0.014369488843833,0.0032396612223237,0.0006890769000165,0.00012675113976
1772808553334279400,0.526279541015625,0.0797691177636384,-0.0009860792947467,0.0028339128182502,-0.0013603218831121,-0.000251296267379,0.0003755204379558
1772808553354328300,0.546328369140625,0.0845557675182819,0.0071448028538841,0.0001353533500805,-0.0005644923076033,0.000736387737561,0.0002278331667184
1772808553374377500,0.56637744140625,0.0848550427258014,-0.0008328706275671,-0.0013703476382885,-0.0013482954818755,-0.0010872904676944,0.0006413927767425
1772808553394426400,0.58642626953125,0.0736310534000396,-0.0026935590660665,-0.0075684076939709,0.0020338878966867,-0.0023771270643919,0.0006196810863912
1772808553414475500,0.6064755859375,0.080068392971158,-0.0092164123630151,0.0041462009932147,-0.0016233830247074,0.0019600614905357,0.0004783810582011
1772808553434524400,0.6265244140625,0.0763262838333845,-0.0041285877047106,-0.0057572072532726,0.0003189204726368,0.0014334928710013,0.0024535569828003
1772808553454573300,0.6465732421875,0.0803694217443466,-0.0033899712318554,-0.0062655495010549,0.0011040912941098,0.0020589341875165,-0.0018699103966355
1772808553474623500,0.66662353515625,0.085605568832159,0.0059440122293774,0.0007645500651327,0.0013323142193257,-9.60435427259e-05,0.0019957001786679
1772808553494672400,0.68667236328125,0.0743839175939559,-0.0030076573833823,-0.0088888335096184,-0.0008168050553649,0.002084830077365,-0.001129453536123
1772808553514721300,0.70672119140625,0.0875502731591463,0.0109078908476047,-0.0063301391698652,-0.001343602547422,-0.0005443759728223,0.0017100442200899
1772808553534770400,0.7267705078125,0.0824590874999761,-0.0019343473297543,-0.0108647549587767,-0.0010228930041193,0.000657140626572,0.0008626517374068
1772808553554819300,0.7468193359375,0.0754267046451568,-0.0061396900651045,-0.0077922978440299,0.001225197687745,0.0010087033733725,0.0015714911278337
1772808553574868500,0.766868408203125,0.0773737470597028,-0.0097500351825263,-0.0030763706714613,0.0020806966349482,-0.0005458721425384,0.0003324523568153
1772808553594917400,0.78691748046875,0.0875508576810359,-0.0009130140585359,0.004481634359504,0.0002870128955692,-0.0020672036334872,-0.000576124060899
1772808553614966300,0.80696630859375,0.0927864202469587,-0.004285559231555,0.0027463669655378,0.0010097275953739,0.0008078198879957,0.0018070833757519
1772808553635015400,0.827015380859375,0.083063483133912,-0.0037800939274486,-0.0001212700258009,0.0012183242943137,0.0033556609414517,0.0003635301254689
1772808553655064300,0.847064208984375,0.0842611684858798,0.0018176347480621,-0.0056366130809066,0.0004876805469393,0.0031689859461039,0.0010906599927693
1772808553675114500,0.867114501953125,0.0893494315356016,0.0017026574657298,-0.0107173093121033,0.0010027214884757,-0.0008073063800111,0.0006159783806651
1772808553695163400,0.887163330078125,0.0823152951151132,0.0119696383276022,0.0007951872319914,-0.0005574584938585,-0.0001187553280033,0.0022760403808206
1772808553715212300,0.90721240234375,0.082015435385704,-0.0018480116200167,-0.00031122137364,-2.5031622499e-06,0.0015765189891681,0.0026510264724493
1772808553735261400,0.927261474609375,0.0751350282222032,-0.0069047652866225,-0.0034002688635839,-0.0008158013224601,0.000582265201956,0.000330651178956
1772808553755310300,0.947310302734375,0.0905482859313488,0.0017927560351323,0.0051761787951923,0.000189070822671,0.0015656386967748,0.0001423605717718
1772808553775359500,0.967359375,0.082914430052042,-0.0052687707157805,0.0022044147090986,-0.0009915325790643,-0.0011384231038391,0.0006465539336204
1772808553795408100,0.987408203125,0.0811193633288145,-0.0054156866394914,-0.0076201470143627,0.0030119537841528,0.0010054138256236,-0.0002520023845136
1772808553815457300,1.007457275390625,0.0757312405496835,-0.0029075762760825,0.0016327934001805,-0.0009251476731151,-0.0007715444080531,0.0006307335570454
1772808553835506200,1.027506103515625,0.0799199244111776,-0.0037815552321728,0.0019318220125278,0.0024151434190571,-5.67579991184e-05,0.0004803834017366
1772808553855556400,1.047556396484375,0.0806692814737558,-0.0016175547318533,-0.0094529793315567,0.0018346491269767,0.000789716548752,0.0032224468886852
1772808553875605200,1.067605224609375,0.0841132844477891,0.0043703331718686,-0.0006714192884275,0.000384374288842,0.0004857262829318,-0.0015453943051397
1772808553895654100,1.087654052734375,0.0827653769701719,0.0010129947011359,-0.0036742360999109,0.0001141196116805,0.0015569468960165,-5.85583038628e-05
1772808553915703300,1.107703369140625,0.0809703102469444,0.0036961237047333,-0.0034855588271282,0.0004642819985747,0.0016751951770856,-7.4999872595e-05
1772808553935752400,1.12775244140625,0.0785749395430088,-0.0032879447626415,0.0006609207272995,0.0018965781200677,-0.0016551137669011,0.0002690409310162
1772808553955801300,1.14780126953125,0.0899450593411922,-0.0015993340885732,-0.0018327957845758,-0.0021540354937314,-0.0002895036013796,4.27067279815e-05
1772808553975850200,1.167850341796875,0.0763292064428329,0.000911141761858,0.0025293449476826,0.0004718711134046,-0.0023446651175618,-0.0009542535990476
1772808553995899100,1.187899169921875,0.0878495483666658,0.0015316208809148,-0.0035460203100927,-0.0007324425969272,0.0011534140212461,-0.0012458474375307
1772808554015948300,1.2079482421875,0.0802168615311384,-0.0037688601473812,0.0047983538921689,0.0007617082446813,-0.0015498949214816,0.001562182791531
1772808554035998500,1.22799853515625,0.0800695620149374,-0.0043362573723308,0.0051415824058465,-0.000870298827067,-0.0014417613856494,0.0011611776426434
1772808554056047000,1.248047119140625,0.0749812989652156,0.0054995563975069,-0.0067526206319453,0.0012448546476662,-0.0017783704679459,0.0011342910584062
1772808554076096300,1.26809619140625,0.0797708713293075,0.0039000944447703,0.0028611707179341,0.0005864789709448,-0.0011210530065,-0.0021243556402623
1772808554096145400,1.2881455078125,0.0689975483804941,-0.0032696967198979,-0.0089068121243035,0.0026669017970561,-0.0008620061562396,0.0008659923914819
1772808554116194300,1.3081943359375,0.0844125596553087,0.0026274532936047,0.0023451018214225,0.0011710051912814,-0.0011070708278566,0.0014959720429033
1772808554136243500,1.328243408203125,0.0746849463671445,-0.0044788807134144,-0.0034716855654027,-0.0028506559319794,-0.0002206775534432,-0.0015048161149024
1772808554156292000,1.3482919921875,0.0839613087564706,0.0011647511967457,-0.0068602091922657,0.0016979824285954,-0.0005329686100594,-5.89033588767e-05
1772808554176341200,1.36834130859375,0.0802215377062559,-0.0057380778611171,0.0074642577663296,0.0002049393951892,0.000787689757999,-0.0006581181660294
1772808554196391400,1.388391357421875,0.0788759683161973,-0.0063294039509259,-0.0015143135530874,-0.0001446856185793,0.0001064451935235,0.000548580661416
1772808554216440300,1.4084404296875,0.0865104087173938,-0.0019257804308086,-0.0037771302188048,-0.0003943745978176,0.0019645642023533,-0.001681184861809
1772808554236489200,1.4284892578125,0.0815711987495422,0.0030929062477312,-0.0016129379222402,-0.0015449484344571,-0.0008751231362111,0.0005007579457014
1772808554256538400,1.448538330078125,0.0808212571650743,0.0006197484666947,-0.0079521874137455,-0.001018003327772,0.000720968877431,0.0031738486140966
1772808554276587300,1.468587158203125,0.080070146536827,-0.0058837790752761,-0.0004725539817707,0.0012216633185744,-0.0025695268996059,0.0015367835294455
1772808554296636400,1.488636474609375,0.0914437734663486,0.0026320655366405,-0.0049599650615127,9.63252969086e-05,0.001626725308597,0.0008245392236858
1772808554316685300,1.508685302734375,0.0839601397126913,-0.0028545126482844,0.0029409625224536,-0.0003946658689528,2.75865895673e-05,-0.0007358873263001
1772808554336734200,1.528734130859375,0.0785749395430088,0.0050707821919582,-0.0043723881316371,0.0009251430165022,0.0007427952368743,-0.0007692147046327
1772808554356784400,1.548784423828125,0.0806716195613145,-0.0049931777779478,0.007468029759149,-0.0001442886423319,0.0011147180339321,-0.0007457258179783
1772808554376833300,1.568833251953125,0.0841103618383407,0.0054421910539269,0.0007997629424091,-0.0027708895504474,0.0023652790114283,0.0017078639939427
1772808554396882200,1.588882080078125,0.0848562117695808,0.0034580132330767,0.0005162424264475,-0.0012089915107935,0.0011407755082473,-0.0008241352625191
1772808554416931300,1.608931396484375,0.0824655172407627,0.0085125932089053,-0.0015662446697242,0.0013572685420513,0.0020381971262395,-0.0002437657676637
1772808554436980200,1.628980224609375,0.0767787037760019,-0.0010494999197777,-0.003441742518288,0.003043957054615,0.0002037544909399,0.0008612377569079
1772808554457029400,1.649029296875,0.0936859994351863,-0.001473305689264,0.0007651300204452,0.0004282831214368,0.0008450226159766,-0.0017196726985275
1772808554477078300,1.669078369140625,0.0806657743424177,0.0029529589209239,0.0006074780735885,-0.0013572028838098,-0.0017679799348115,0.0012646776158362
1772808554497127200,1.689127197265625,0.0824608410656452,0.000948934755288,0.0056659122406272,0.0014265114441514,-0.0013304242165759,-0.0008372631855309
1772808554517177300,1.70917724609375,0.0727373194307088,0.0001160549945663,-0.004683225912787,0.0003005154430866,0.0015118696028366,0.0018573910929262
1772808554537226200,1.729226318359375,0.0841126999258995,0.001913605935825,-0.00311351521092,0.0006798864342272,-0.0019727416802197,-0.0028808768838644
1772808554557275400,1.749275390625,0.0760299312353134,0.0071589318439364,-0.0035829639201518,0.0008730799891054,-0.0019347672350704,9.42158512771e-05
1772808554577324300,1.76932421875,0.0811170252412557,0.0006842742034234,0.0007101758296601,-0.001789057161659,-0.0018468184862285,0.0013635233044624
1772808554597373200,1.789373291015625,0.0803676681786775,-0.005005900262203,-0.0017955188143765,-0.0019903942011296,0.001628729281947,-0.0018543270416557
1772808554617422300,1.80942236328125,0.0868020851403474,-0.0009921802419703,-0.0061555726208258,-0.0018235859461128,-0.0003673718310892,-9.20840539038e-05
1772808554637471200,1.82947119140625,0.0808159964680671,-0.000309175547026,-0.0060842655168613,-0.0016292524524033,-0.0006070859963074,0.0005400851368904
1772808554657520400,1.849520263671875,0.0809650495499372,-0.0024276564051862,0.0017213941322406,-0.003615936031565,0.0011252416297793,-0.0015329746529459
1772808554677570300,1.8695703125,0.0739303286075592,0.0033483331803698,-0.0066610790241276,-0.0002099545672535,-0.0007803235785104,0.0013435764703899
1772808554697619200,1.889619140625,0.068994041249156,0.0017812847930472,0.0073408186163287,-0.0004852362908422,-0.0020050324965268,0.0002527609467506
1772808554717668400,1.90966845703125,0.0885948137760162,-0.0096997936994768,-0.0059064475648105,-0.0005854796618223,0.001217589364387,-0.0009953598491847
1772808554737717500,1.929717529296875,0.0779658677339553,0.0043259551740251,0.0015508461711928,-0.0019095609895884,-0.0026090934406965,0.0020513094495981
1772808554757766100,1.94976611328125,0.0739227298229932,6.21511165518e-05,-0.0008954875349998,-0.0005965456366539,-0.0004605990543495,-0.0001141484826803
1772808554777815300,1.969815185546875,0.0846925456404685,0.0017183025594335,0.0041698375971289,-0.0004644377622753,-0.0017811425495892,-5.8254227042e-06
1772808554797864400,1.989864501953125,0.0822995130240917,-0.0062990544784348,-0.0044014087301446,0.0008619567379355,0.0020584459416568,-0.0002437043003737
1772808554817913600,2.00991357421875,0.0843961930423975,0.0021966971935238,-0.0149216976328054,0.0018946672789752,-0.0011036791838705,0.0005508246831595
1772808554837963300,2.02996337890625,0.0867921482682228,-0.0009543781153857,0.0011526543335756,0.0038056052289903,0.0003518273879308,-0.0005330885760486
1772808554858012400,2.050012451171875,0.0722790542691945,-0.0021808420372661,0.0031680584097513,0.0016550607979297,-0.0037131395656615,0.0005356441251933
1772808554878061600,2.0700615234375,0.08036299200356,-0.0022528660938609,-0.0083351223167264,-0.0021868627518415,-0.0010579921072348,0.0009573639836162
1772808554898110500,2.0901103515625,0.0779658677339553,-0.0065922561381943,-0.00417931324495,-0.0011451703030616,-0.0006862846203148,0.0003241626545786
1772808554918159400,2.110159423828125,0.0734732324898242,-0.0039562724782619,-0.0026536380476318,-0.0009275546763092,-0.0008615358965471,-0.0009047975763678
1772808554938208300,2.130208251953125,0.0820019913822412,-0.004054052030621,0.0037615855898009,0.0011441684328019,-0.0029579049441963,0.000320759601891
1772808554958257400,2.15025732421875,0.0706324561059475,0.0003194320795591,0.0034395870938198,0.00165540818125,-7.96660315245e-05,-0.0005857022479176
1772808554978307600,2.1703076171875,0.0730237351566553,-0.0052510432628449,-0.0089369926334358,0.0002199374139308,0.0004702858277596,0.0003519002348184
1772808554998356200,2.190356201171875,0.0817027161747217,-0.0028277342392131,0.0022369424389442,0.0004186029545962,-0.0001341331808362,-0.000333426054567
1772808555018405400,2.2104052734375,0.0825987882316112,-0.0005270469482522,-0.0042682975695002,-0.0025193011388182,-0.0023695982526987,3.473367542e-06
1772808555038454500,2.23045458984375,0.0802051710933446,0.0017963910306338,-0.0060856857223901,0.000624212436378,0.0009021204896271,3.60556878149e-05
1772808555058503400,2.25050341796875,0.0763151779174804,-0.0020366660599131,0.0006280870367772,-0.0030326501000672,0.0010636219521984,-0.0014151711948215
1772808555078552600,2.270552490234375,0.0866390035331249,-0.0081410108170006,0.0040933154619298,-0.0004329674411565,0.0001251468784175,-0.0009940955787897
1772808555098601200,2.290601318359375,0.0821481218546628,0.0033793950389139,0.0033084578277077,-0.0032588965259492,-4.3408363126e-06,7.24764540791e-05
1772808555118651400,2.3106513671875,0.0745142659753561,-0.0042411264347843,-0.0025096721328329,-0.0005004843696951,0.0003620185307227,-0.0011618235148489
1772808555138700500,2.330700439453125,0.0722708709627389,-0.0031418234233744,-0.0063720877486048,0.0029095453210175,-3.63063300028e-05,-0.0019723591394722
1772808555158749400,2.35074951171875,0.0776578246980905,-0.0072632142023183,-0.0057752817660802,-0.0002254161518067,-0.0001079201465472,0.0015699700452387
1772808555178798300,2.37079833984375,0.0766109459936618,-0.0024371274864301,0.009036352221528,-0.0009922089520841,-0.001623522141017,-0.0005031689070165
1772808555198847500,2.390847412109375,0.083942019534111,-0.0052198535401374,-0.0036668747773626,-0.0015445512253791,0.0006828805198892,-6.1803497374e-05
1772808555218896400,2.410896484375,0.0881347950488328,-0.0044549153159372,-0.0022190094900317,0.0013208142481744,0.0010760070290416,0.000662358244881
1772808555238945500,2.430945556640625,0.0707739104032516,-0.0048877263757865,0.0014458651264896,-0.0030442990828305,-0.0019067442044615,-0.0005679503083229
1772808555258994400,2.450994384765625,0.0761596950948238,-0.0003294694163836,-0.0095519187945406,-0.0022317972034215,-0.0004588299489114,-0.0005735899321734
1772808555279044400,2.47104443359375,0.0758598353654146,-0.0039519250967074,0.0046963182898005,-0.0007822869811207,0.0005315282032825,-0.0002024178393185
1772808555299093500,2.491093505859375,0.0782563751131296,-0.0030240513957571,0.0039661956506548,0.0024534151889383,0.0001320138690061,0.0014547656755894
1772808555319142400,2.511142333984375,0.0849918208479881,-0.0001321476128417,0.0011553120815427,-0.0006188713014125,0.0006887885392643,5.72013668715e-05
1772808555339191600,2.531191650390625,0.0737649089127779,0.0021309293477796,-0.0048050850270548,-0.0063264267519116,0.0030486742034554,-0.0013051037676632
1772808555359240400,2.551240478515625,0.0816945328682661,-0.0019444759981241,-0.000554980701371,-0.0018165223300457,0.0008509173057973,-0.0016701384447515
1772808555379289300,2.571289306640625,0.0795966838061809,-0.0011510697312653,-0.0052207074900856,-0.0008445377461612,9.08215297386e-05,-0.0014712284319102
1772808555399338500,2.59133837890625,0.089324297094345,0.0071603931486606,-0.0008299434515414,-0.0008609604556113,0.0011991942301392,-0.0038703265599906
1772808555419388400,2.611388427734375,0.0745049136251211,0.0038664296371862,-0.0023087336000986,-0.0012727279681712,-0.0008164918981492,0.0008740832563489
1772808555439437300,2.631437255859375,0.0725578712105751,0.0022204981942195,0.0014844938035588,-0.0013986078556627,-6.02889049332e-05,-0.001357614994049
1772808555459486500,2.651486572265625,0.0825818370968103,-0.0087051475057844,-0.0006223057499621,-0.0007839661557227,-0.0009800876723602,0.0026890982408076
1772808555479535400,2.671535400390625,0.0737502958655357,0.0020975020022131,0.0030920751306694,-0.0007671313360333,0.0022522073704749,-0.0014259531162679
1772808555499584500,2.69158447265625,0.0948497825175523,-0.0065837075055576,-7.3567559709e-06,-0.0013359244912862,-0.0006255027838051,-0.0010626893490552
1772808555519633400,2.71163330078125,0.0773415983557701,-0.0004858655544929,-0.0051642782948445,0.0001362836919724,0.0012605632655322,-0.0012133349664509
1772808555539682300,2.731682373046875,0.0791372496008872,-0.0028822957043536,0.0050619504315312,0.0018004211597144,7.4218260124e-06,0.0024689524434506
1772808555559732500,2.751732421875,0.0801812056958675,8.37875596247e-05,-0.0006381015407154,0.0010250005871057,-0.0004313068347983,0.000191553030163
1772808555579781600,2.77178173828125,0.0819803640723228,0.0002510156190022,-0.0031646882757311,-0.0015882046427577,-0.0005350004648789,-4.47975471615e-05
1772808555599830300,2.791830322265625,0.0777887576013803,-0.0035510161456186,-0.0016631657055579,-0.0007985427509993,-0.0015949715161696,3.073364496231079e-08
1772808555619879400,2.81187939453125,0.0752431647717952,0.0005875997627619,0.0001784846723312,-5.5837444961e-05,-7.97209795564e-05,-0.0013613542541861
1772808555639928300,2.83192822265625,0.0869154823869466,-0.001026027712645,-0.0045035584969446,0.000911084935069,-0.0012462203158065,0.0002233134582638
1772808555659977500,2.8519775390625,0.0911059198141098,-0.0015299312473274,-0.0015005498892161,-0.0008050170727074,-0.0020117342937737,-0.0003311024047434
1772808555680026600,2.872026611328125,0.0709007516533136,0.0004709054473787,0.0009261018689721,-0.001796341035515,-0.0017091569025069,-0.0006714551709592
1772808555700076300,2.892076171875,0.0800274764388799,-0.00193510538158,0.0009680687140207,0.0011276728473603,0.0005350125720724,-0.0010579568333923
1772808555720125400,2.91212548828125,0.0795785636276006,0.0029831257303245,-0.0013698727142531,-0.0016864391509443,0.0010431236587464,-0.0006518536247313
1772808555740174600,2.932174560546875,0.0773351686149835,-0.0008135357394348,-0.0063769785528536,0.0027324594557285,-0.0038619805127382,0.0006636301986873
1772808555760223500,2.952223388671875,0.0737450351685285,-0.0001145388909149,-0.0049728336762404,0.0013871118426322,0.0003035955596715,-0.0022364263422787
1772808555780272400,2.9722724609375,0.0755436090230941,-0.0060706799495033,-0.0059160419436404,0.0031311670318245,0.0006317980005405,-0.0009388281032443
1772808555800321300,2.9923212890625,0.083473817500472,-0.0023459694711025,-0.0112997077433625,-0.0013980965595692,-5.23573544342e-05,0.0010482596699148
1772808555820370400,3.012370361328125,0.074346508193016,0.0029002423529978,0.0057835929366992,-0.000264833215624,-0.0013353950344026,0.0014069091994315
1772808555840420600,3.032420654296875,0.0884130274683237,0.0015973887266591,0.0019069661324843,-0.0006016273982822,0.0007506164256483,-0.0023508248850703
1772808555860469200,3.05246923828125,0.0797299547970294,0.0014756894425954,-0.0004166910421103,0.0001586661674082,-0.0019727740436792,0.0004703903105109
1772808555880518400,3.072518310546875,0.0824216780990362,-0.0074972238875925,-0.0018861242738552,-0.001085493247956,0.0005522796418517,-0.0006568804383277
1772808555900567300,3.0925673828125,0.083472063934803,-0.0015627466715406,-0.0046679507118416,0.0019772984087467,-0.0036430275067687,-0.0020022019743919
1772808555920616400,3.112616455078125,0.089458737128973,-0.0046385373876895,0.0072158450963674,-0.0004940680228173,0.0015412593493238,0.0008872097823768
1772808555940665600,3.13266552734375,0.0827262140035629,-0.0073084598498418,0.007262931074528,-0.0002529986668378,0.0019196902867406,0.0011451281607151
1772808555960715300,3.15271533203125,0.0756944156706333,-0.0005943308976478,-0.0099509189163334,0.0019565438851714,0.0007849857211112,-0.0011637201532721
1772808555980764400,3.172764404296875,0.072701663595438,-0.0019603768201544,-0.0042095074538141,4.5960769057e-06,0.0027629241812974,0.0012819319963455
1772808556000813600,3.1928134765625,0.0725508569478988,-0.0020169475792907,-0.000817476695613,0.00184470647946,-0.0010563628748059,0.0008366252295672
1772808556020862500,3.212862548828125,0.0789887810409069,-0.0024363055025227,0.0003883554301923,0.0018950593657791,0.0030446574091911,0.0004702224396169
1772808556040911400,3.232911376953125,0.0791378341227769,-0.0010348686062265,-0.008786971437186,-0.0003117069136351,-0.0027020350098609,0.00062434701249
1772808556060960300,3.252960205078125,0.0861713860213756,-0.0063393590893596,-0.00719284781327,-0.0007280120626091,0.000183115073014,0.0001788679510354
1772808556081009400,3.273009521484375,0.0839256529211998,-0.000769915793417,-0.0030064335406757,0.0006384248845279,-0.0015752800973132,0.0008252172265201
1772808556101059300,3.293059326171875,0.0791360805571079,-0.0039847405209206,-0.0091099974130513,0.0025934455916285,0.0002547961194068,-0.0019569089636206
1772808556121108200,3.313108154296875,0.0791401722103357,0.0024770850374829,0.000355174679798,0.0028302981518208,0.000246183713898,0.0009734418708831
1772808556141157400,3.333157470703125,0.0837754307955503,-0.0052226665517315,0.0022917459326796,-0.0011328540276736,0.0006391081842593,0.0014015175402164
1772808556161206500,3.35320654296875,0.0885644186377525,-0.0062593891883268,0.0024018598102265,0.0016582468524575,-0.0019421211909502,-0.0009247888810932
1772808556181255400,3.37325537109375,0.0803366885185241,0.0036198344649747,0.0006800638191867,-4.95729036629e-05,0.0009860731661319,-0.0027398820966482
1772808556201304300,3.39330419921875,0.0894610752165317,-0.0020733630747999,0.0006583314779913,-0.0030176010914146,-0.0005555747193284,0.0005151850637048
1772808556221353200,3.413353271484375,0.0710550654321909,-0.0048452298077754,0.0089699587546987,0.000159072689712,0.001375000574626,-0.0007071229629218
1772808556241403400,3.4334033203125,0.0825789144873619,-0.000361663786089,0.0003984521325211,0.0002347659319639,-0.0009291571914218,0.0002549751661717
1772808556261452500,3.45345263671875,0.0836246241480112,-0.0059542504956014,-0.0058428214438026,-0.0004208155442029,0.0002256575389765,0.0017933920025825
1772808556281501200,3.473501220703125,0.0718032534509897,-0.0014284893000032,-0.0077667935100151,0.0001829364337027,-0.0032277274876832,0.0007078235503286
1772808556301550300,3.49355029296875,0.0804798963814973,-0.0058546991112641,-0.0040674001359613,-0.0026782494969666,0.0007553901523351,0.0004032254219055
1772808556321599500,3.513599609375,0.0815273596078157,-0.006871493204683,-0.0002590573615627,0.0010508834384381,0.0009898652788251,0.0011010197922587
1772808556341648400,3.5336484375,0.0722486591309309,-0.0010517923415638,-0.0025192208458902,-0.0028224161360412,-0.0006950201350264,0.0015562726184725
1772808556361697500,3.553697509765625,0.0884060132056474,-0.0017265589311253,0.0027627335784491,-0.0012822919525206,-0.0004050954594276,-0.0004775431007146
1772808556381747500,3.57374755859375,0.0773310769617557,-0.004617549398588,-0.0023908452258678,-0.0013369310181587,-0.0003250116424169,-0.0002954746596515
1772808556401796400,3.59379638671875,0.0809217949301004,-0.0052623135755304,0.0019635323250433,0.0020876554772257,-0.0012391933705657,-0.0001342669129371
1772808556421845500,3.613845458984375,0.081075524187088,-0.0071379712542984,-0.0042465332622639,-0.0004000258632004,-0.0002568670024629,-0.0009692814201116
1772808556441894400,3.633894287109375,0.0720978524833917,-0.0064939103302545,-0.0020056863997597,0.0032587731257081,-0.0020352019928395,0.0005630902014672
1772808556461943300,3.653943359375,0.0849678554505109,-0.0064013366759754,-0.000364942588564,-0.0030773330945521,0.0020655924454331,-0.0006734984926879
1772808556481992400,3.673992431640625,0.0765887341618537,-0.0113343360987491,0.0019244469902478,-0.0007523375097662,0.0020633335225284,-0.0023990580812096
1772808556502042400,3.69404248046875,0.075687401407957,-0.0013129731615539,-0.005463014646247,0.0006899256259202,2.7398928068e-06,0.0009050955995917
1772808556522091300,3.71409130859375,0.0827197842627763,-0.0011760215094313,-0.0016040559294633,-0.000703320140019,-0.0012106276117265,-0.0010043890215456
1772808556542140400,3.734140380859375,0.0786801534831523,-0.0031302882492076,0.0026299329450586,-0.0007077297195792,-0.0009231708827428,0.0001382031477987
1772808556562189300,3.754189208984375,0.0692523999243974,-0.0031557788834907,-0.0014882201306056,-0.0005183315370231,-0.0005358090857043,0.0013731247745454
1772808556582238500,3.774238525390625,0.0861614491492509,-0.0022759729748126,-8.96784442942e-05,0.001783191692084,0.0008746180683374,-6.77923671901e-05
1772808556602287400,3.794287353515625,0.0710498047351837,-0.0064718080963008,-0.0027478511031484,0.0014583291485905,-0.0010308178607374,-0.0003733225166797
1772808556622336500,3.81433642578125,0.0864607243567705,-0.0050379850340541,0.0020752308049006,-0.0009207767434418,-0.0025024861097335,0.0013725121971219
1772808556642386400,3.834386474609375,0.0854126766085624,0.000788830556441,-0.002271452063322,0.000895872246474,-0.0001859792973846,-0.0006327284500002
1772808556662435300,3.854435302734375,0.0734445909172296,0.0050846645868383,-0.0055854354495182,-0.0016033160500228,-0.0003369837068021,0.0004142730031162
1772808556682484500,3.874484375,0.0762882899105548,0.0024551472003106,-0.0008708965164376,-0.0004814499989151,0.0017769285477697,-0.0001391018740832
1772808556702533400,3.894533447265625,0.0842190829098224,-0.0018042455435264,-0.0008067680719308,-0.0010507341939955,-0.0004847495292779,-0.000332951080054
1772808556722582300,3.914582275390625,0.0750859283834695,0.0004810797815211,-0.0017201200571842,-0.0015271760057657,-0.0001840461336541,-0.0018200515769422
1772808556742631400,3.93463134765625,0.0818143598556518,-0.0008368892155587,0.0026452857778174,0.0017777164466679,-0.0006309100426733,0.0026237317360937
1772808556762681600,3.954681640625,0.0821136350631713,-0.0012137140381615,-0.0045021930903429,0.0013736814726144,0.000646716915071,-0.0002405475825071
1772808556782730200,3.974730224609375,0.0807680656731128,-0.0053959864251781,0.0044373613929376,0.0015444660093635,-0.0021899335552006,-0.000488999299705
1772808556802779400,3.994779296875,0.0786760618299245,-0.0060700223623774,0.0057804145989241,-0.0016011099796742,0.0020687221549451,0.0001572794280946
1772808556822828300,4.014828369140625,0.0875081875830888,-0.0003683309888932,-0.0008196914855856,-0.0002768207341432,0.0012239342322573,0.0036357659846544
1772808556842877400,4.03487744140625,0.0830155523389577,0.0001644972461741,-0.0019117062396835,-0.0005102853756397,0.0007598959491588,0.0009930478408932
1772808556862926600,4.054926513671875,0.0870569366842508,0.006905797333084,-0.0118957785069476,-0.0004616109654307,-0.0037795035168528,0.0014994966331869
1772808556882975200,4.074975341796875,0.0707476069182157,-0.0023666286666411,0.0068450344560202,0.002596145728603,0.002037544036284,-0.0013568261638283
1772808556903025400,4.095025390625,0.0903548091858625,-0.0049744548111688,0.0016470000220462,-0.0013011337723582,0.0024668534751981,-0.0011742264032363
1772808556923074600,4.115074462890625,0.0789858584314584,-0.0069437729896046,-0.0035066746803931,-0.0003888686187565,-0.0009611469577066,-0.0002725566737353
1772808556943123500,4.13512353515625,0.0861655408024787,-0.0042400669888593,0.0001197402224177,0.0018743376713246,0.000879448489286,-0.0017930301837623
1772808556963172400,4.15517236328125,0.0912532193303108,-0.0017818967144005,-0.0030374406002927,0.0001788786612451,0.0020962005946785,-0.0008062273263931
1772808556983221200,4.17522119140625,0.0801835437834262,0.0060498015582561,0.0087080153163056,-0.001628162804991,-0.0005337673355825,-0.0007383120246231
1772808557003270400,4.1952705078125,0.0740431413322687,-0.0085380838431883,-0.0038285407456336,-0.0052258670330047,0.0002775839529931,0.0016013355925679
1772808557023320300,4.2153203125,0.0737415280371904,0.0029177688765339,-0.0011563212951179,-0.0021171804983168,-0.0031349314376711,0.0006024306640028
1772808557043369200,4.235369140625,0.0810737706214189,-0.0068824438569601,-0.0054158556028502,-0.0006120847538113,-0.0001177488302346,0.0022593480534851
1772808557063418400,4.25541845703125,0.0834697258472442,-0.0075220752010587,0.0028670935686444,0.0020489783491939,0.0020372406579554,0.0018978125881403
1772808557083467500,4.275467529296875,0.0891542012244463,0.005323871037038,0.0101231610775459,-0.0010351014789193,-0.0017734057037159,3.77795659005e-05
1772808557103516400,4.295516357421875,0.0907984613001346,0.0034226770582143,-0.0005016293792054,-0.0016171026509255,-0.0001930900325533,-0.0011763735674321
1772808557123565300,4.3155654296875,0.0816734900802373,-0.0056986956987995,1.26311527099e-05,-0.0004187060985714,0.0015851267380639,0.00336170848459
1772808557143615500,4.335615478515625,0.0836176098853349,-0.0110035423749592,0.0040680257570464,0.0015148704405874,-0.0015887483023107,-0.0001357910223305
1772808557163664400,4.355664306640625,0.0825689776152372,-0.0045347664859611,0.0004426520338514,-0.0026921578682959,2.75534112006e-05,-0.0032345480285584
1772808557183713500,4.375713623046875,0.0693985303968191,0.0050215270895976,0.0009750510106561,-0.0001531320158392,0.0009969947859644,-0.0003646612167358
1772808557203762200,4.39576220703125,0.0816717365145683,0.0019413707255851,0.0026755667516496,-0.0003382279537618,-0.0014659466687589,-0.0007360922172665
1772808557223811300,4.415811279296875,0.0776315212130546,-0.0028260811382438,0.0054663208481855,-0.0006317081861197,-0.0001467060938011,0.0008810788858681
1772808557243860500,4.435860595703125,0.080626026853919,-0.0045501010524109,-0.0026932713716989,-0.000724681885913,4.76979766972e-05,0.0012734921183437
1772808557263909400,4.455909423828125,0.0858633429855108,-0.0087849712763447,0.0013476654490223,0.0012698899954557,0.0010704633314162,0.002217311412096
1772808557283959300,4.475959228515625,0.089156539312005,0.003597092910204,-0.0007794873393606,0.0029183567967265,-0.0006357075762934,0.0001792376860976
1772808557304008400,4.496008544921875,0.0861655408024787,-0.0070982511652633,-0.0047169866184936,0.0003528690431267,-0.0006911347154527,2.74730846285e-05
1772808557324057300,4.516057373046875,0.0737473732560873,-0.0021651330114807,0.0021840934402775,0.0008578614797443,-0.0010386371286585,0.0007136487402021
1772808557344106500,4.5361064453125,0.0878092163562774,-0.002122956103878,0.006164911271329,-0.0024856666568666,0.0016176749486476,-0.0001018848270177
1772808557364155400,4.5561552734375,0.0704518388420343,-0.0095280629949178,0.0048026190753327,0.0012107158545404,-0.0014086253941059,5.20483590662e-05
1772808557384204300,4.576204345703125,0.0894546454757451,0.003725998253189,0.0064347548883873,0.0006118407472968,-0.0012478601420298,-0.0004097623750567
1772808557404254500,4.59625439453125,0.0800257228732109,-0.0048485908086411,-0.000720551093202,0.0006200615316629,-0.0006712555768899,-0.0012169368565082
1772808557424303400,4.616303466796875,0.0773334150493145,0.0054811530911363,0.0009628171501681,-0.0004485147073864,0.0017257292056456,0.0043125343509018
1772808557444352500,4.6363525390625,0.0800303990483284,-0.0073538333615288,0.0050002651058603,0.0020681878086179,-0.0014835067559033,0.0012998667079955
1772808557464401400,4.6564013671875,0.0830231511235237,-0.0009805080704856,0.000734830780304,0.0024518575519323,-0.0018914453685283,-0.0009675971232354
1772808557484450300,4.6764501953125,0.0885562353312969,-0.0012266191855072,0.0006365032386733,-0.0012993484269827,-0.0030633783899247,-0.0009388336911797
1772808557504499500,4.69649951171875,0.0783820473194122,0.0013208094081375,-0.0052448738169623,0.0007555955089628,0.0001009853440336,-0.0008670911192893
1772808557524549400,4.71654931640625,0.072546765294671,7.63805713038e-05,0.0004468715512426,-0.002149339299649,-0.0014571158681064,0.0006114456336945
1772808557544598300,4.736598388671875,0.077632690256834,-0.0053280448886565,0.0039427828090265,0.0003381895367056,-0.0010190514149144,-0.0015415363013744
1772808557564647400,4.7566474609375,0.0803273361682891,-0.0123235297991894,-0.0003637187458574,-0.0018992951372638,0.0007979344809427,0.0012193692382425
1772808557584696300,4.7766962890625,0.0867611686080694,-0.0084929660598281,0.0001792609904659,0.001298795454204,-0.0001842165656853,0.0010992786847054
1772808557604745500,4.796745361328125,0.0800298145264387,-0.0041456575705204,0.006222883969685,-0.0008490686304867,0.0002460193645674,0.0010505609679967
1772808557624794400,4.81679443359375,0.0836199479728937,-0.0070793546685483,0.0017934136222582,-0.0019379069563001,-0.0002577725972514,0.0012766544241458
1772808557644844300,4.83684423828125,0.0837719236642122,-0.0065957267369143,0.0066774776030797,0.0024799869861453,-0.0005500680417753,-0.0016674501821398
1772808557664893400,4.8568935546875,0.0833230108529329,0.0040446448814589,-0.0013579082818236,0.0002929745241999,0.000805304502137,-0.0007318574935197
1772808557684942600,4.876942626953125,0.0740431413322687,0.0016368074215948,-0.0037065492006251,-0.0008652817923575,0.0002611129893921,-0.0016266037710011
1772808557704991200,4.8969912109375,0.0753863726347684,-0.0081510116212069,0.0168019081891048,-0.0023232325911521,-0.0006533913547173,0.0025619827210903
1772808557725040400,4.917040283203125,0.078678984439373,-0.0067172890236601,-0.0047882937224581,0.0004026109818369,0.0006354537326842,0.0014191837981343
1772808557745089300,4.93708935546875,0.0783802937537431,0.0011017598299775,-0.0080148636866826,-0.0004118457436561,-0.0005705479998141,0.0015146259684115
1772808557765139500,4.957139404296875,0.0777805742949247,-0.0006443257855251,0.0036711993260309,-0.0006183844525367,0.0004743302706629,-0.0005593500100076
1772808557785188400,4.977188232421875,0.0717974082320928,-0.0072363718611653,0.0065237392129376,0.0002878962550312,-0.0018629010301083,0.0004807969089597
1772808557805237000,4.997237060546875,0.088854341495037,-4.88349772524e-05,-0.0003768750549526,-0.0013604366686195,0.0038577341474592,-0.0018152119591832
1772808557825286100,5.0172861328125,0.0791308198601007,-0.0043016883824486,0.0101890248214127,0.0004364680498838,0.0006326726870611,0.0014605468604713
1772808557845335300,5.037335205078125,0.0834697258472442,-0.0046508123473729,0.0096901764877606,0.0018711276352405,0.0008178271818906,-0.0001855958253145
1772808557865384200,5.05738427734375,0.0840700298279523,0.004112422021199,-0.0073855436740443,-0.0028130882419645,-0.00061488407664,-0.0030835974030196
1772808557885434000,5.07743408203125,0.0804781428158283,-0.0038466746239457,0.0025336649297736,-0.0004734967369586,-0.0006774712819606,0.0013347922358661
1772808557905483300,5.097483154296875,0.0776350283443927,-0.0049841450881212,-0.0026410342943854,0.0016383812762796,0.0019188582664355,-0.0004361970350146
1772808557925532200,5.1175322265625,0.087962945613265,-0.000338447307283,0.0097065933330217,-0.0011466206051409,0.001605539349839,-0.0007912823930382
1772808557945581300,5.137581298828125,0.0762929660856723,-0.0075472187754698,0.0045981642781058,-0.0006918550934642,0.0013790294760838,-0.0002141217701137
1772808557965630000,5.1576298828125,0.0821294171541929,0.0050924734339583,-0.0001673787564272,0.0006042968016117,0.0017893654294312,0.0005019907839596
1772808557985679000,5.17767919921875,0.0676134005457162,-0.0063942858806811,0.003372490374092,-0.0012698473874479,0.0024310143198817,-0.0011691194958984
1772808558005729300,5.197729248046875,0.0849725316256284,-0.0021413594102486,-0.0018075563120422,-0.0005760714411735,0.0012407546164467,-5.98696060478e-05
1772808558025778200,5.217778076171875,0.0885632495939731,-0.0065318859867751,0.000834309099405,-0.0003680211957544,0.0004307625058572,-0.0014372989535331
1772808558045827000,5.2378271484375,0.0785357765763998,-0.0025106311140581,-0.0006981520317262,0.0007700379937887,0.0016993189929053,0.000233884435147
1772808558065876200,5.257876220703125,0.0718020844072103,0.0018054511199239,0.0025413961450802,0.0003117464948445,0.0015842418652027,-0.0008617704734206
1772808558085925000,5.277925048828125,0.0773404293119907,-0.0028984979204833,0.0079792854832252,0.0018241489306092,0.0001467394758947,-0.0012459689751267
1772808558105974300,5.297974365234375,0.0791413412541151,-0.0022292751557193,0.0026616341244196,0.0020052369218319,-0.0012166204396635,0.0019544227980077
1772808558126024200,5.318024169921875,0.0869254192590713,-0.0024648922761902,0.0063547210552729,0.0022165752016007,-0.0001125650014728,0.0015746953431516
1772808558146073000,5.338072998046875,0.0721142190963029,-0.0054584206695202,0.0004007445543073,-0.0030117812566459,0.001459316117689,0.0001983805559575
1772808558166122200,5.358122314453125,0.0722626876562833,-0.0016858433282468,0.003520155216474,0.0015241501387208,-0.0022580362856388,-0.0038936384953558
1772808558186171100,5.378171142578125,0.0718143593668937,-0.0019289222359657,0.003794885071204,-0.0006441266741603,-0.0010887631215155,0.000581674510613
1772808558206220000,5.398219970703125,0.083785367667675,0.0015847119081765,0.0041105268916348,0.001424990594387,-0.0005755697493441,0.0014784585218876
1772808558226269200,5.418269287109375,0.0721130500525236,-0.0017002189134713,0.0018842474106,0.0019248065073043,-0.0009441435104236,-0.0024404367431998
1772808558246319000,5.438319091796875,0.0870727187752723,-0.0020294782673008,0.0035013865839224,-0.0009293374605476,0.0021284231916069,-0.0008824761025607
1772808558266368300,5.4583681640625,0.0899170022904872,0.0029325737200211,0.0037974971533985,0.0007422354537993,0.0006150874542072,0.0021768002770841
1772808558286417200,5.478417236328125,0.0798901137948036,-0.0003097052699886,0.0028339858834864,-0.0022079381160438,-0.0004803544434253,-0.0021623698994517
1772808558306466000,5.498466064453125,0.0760012896627187,-0.0050747459810227,0.0002502530005993,0.0041527170687913,0.001954841427505,-0.0021058926358819
1772808558326515200,5.51851513671875,0.084833415415883,-0.0032918080870062,0.0023309728313703,-0.0011883927509188,-0.0005114292143844,0.0004623483400791
1772808558346564000,5.538564208984375,0.0775000037878751,0.0030626115741673,-0.0020922184723196,0.0008339202031493,-4.67167119495e-05,0.0025068095419555
1772808558366614000,5.558614013671875,0.0716623836755752,-0.0080328925337176,0.0036952012561261,-0.0006836950778961,-0.0016522540245205,0.0002564117312431
1772808558386663200,5.5786630859375,0.0876730227559804,-0.0020977759968489,-0.0013423590862425,0.0020593449007719,-0.0005663888296112,-0.000863847322762
1772808558406712000,5.598712158203125,0.0851338596671819,0.0032588282660115,-0.0005196810591267,-0.001855035778135,0.0017692898400127,-0.0005363752134144
1772808558426761200,5.61876123046875,0.0957575450122356,-0.0009236815830226,-0.0009325681423768,-3.01206018775e-05,-0.0005518957041203,-0.0004403977654874
1772808558446810400,5.638810302734375,0.0882780029118061,-0.0032017643165308,-0.0049683355976361,-0.001151128206402,0.0018703474197536,0.0014530229382216
1772808558466859000,5.65885888671875,0.0781020613342523,0.0022725115092471,-0.0002847078260499,-0.0006086656358093,0.0010764636099338,8.7252818048e-05
1772808558486909200,5.6789091796875,0.0728670832902193,-0.0027075784582644,0.0003360315879108,-0.0001204160507768,0.0018852438079193,-0.0006982116028666
1772808558506958300,5.698958251953125,0.0758580817997455,0.0011929817773867,0.0086010249776067,-0.0019231083570048,0.0011979056289419,-0.0003693113103508
1772808558527007000,5.719007080078125,0.0818470930814743,-0.0075935604015365,0.0075322952009737,0.0020682294853031,-0.0009567223605699,-0.0005299416370689
1772808558547056000,5.73905615234375,0.0716752431571483,-0.0086290865948889,-0.0029108185459394,0.0002505558077245,-0.0007291018264368,0.0012778253294527
1772808558567105000,5.75910498046875,0.0796066206783056,0.0065406720814295,0.0035363711323356,0.0027111144736409,-0.0004986618878319,-0.0008073998615145
1772808558587155200,5.7791552734375,0.0802057556152343,0.0051257729153614,-0.0077068754497449,0.0001949644647538,0.0007389318197965,-0.0024063242599368
1772808558607204000,5.7992041015625,0.080206340137124,0.0012442005079705,-0.0113422865097643,0.0002860771492123,-0.0009575914009474,0.0004400010220706
1772808558627253000,5.8192529296875,0.0794581521183252,0.0045864327411167,0.0103905250431504,-0.0010418065357953,-0.0008332930738106,-0.0014784391969442
1772808558647302100,5.83930224609375,0.0799058958858251,0.0049715413348749,-0.002725616438454,0.000533518847078,-0.0002205971395596,0.0001265238970518
1772808558667351300,5.859351318359375,0.085890815514326,-0.0036647056531626,0.0025986473242286,-0.0012009234633296,-0.0020296042785048,-0.0012842677533626
1772808558687400200,5.879400146484375,0.0791553697794675,-0.0047373033207375,0.0030129546130076,7.76776578277e-05,-0.0001705148897599,0.0008355581667274
1772808558707450000,5.8994501953125,0.0846907920747995,-0.0003786149208899,0.0007465166515205,-0.0012835767120122,0.0006214976310729,0.0008536991663277
1772808558727499300,5.919499267578125,0.0825941120564937,-0.0069936308801639,-0.0056120129291899,-0.0008931995835155,0.0009807854657992,-0.0013837395235896
1772808558747548200,5.939548095703125,0.0703279202014207,-0.0025137455197516,-0.001030037167482,0.0012320135720074,0.0010441520716995,-0.0013439101167023
1772808558767597300,5.959597412109375,0.0742173288553953,0.002282347916672,0.0047222199160372,0.0003416009712964,0.0011523398570716,0.0005980506539344
1772808558787646000,5.97964599609375,0.07840484367311,0.0014555873694829,-0.0106214248893084,-0.0028009084053337,0.0005608997307717,0.0001379144378006
1772808558807696400,5.9996962890625,0.0739145465165376,-0.0003650430532637,0.0018758266421267,0.0008525666780769,-0.0010075292084366,-0.0007498241029679
1772808558827746300,6.019746337890625,0.0846902075529098,0.0013520082639995,0.0060091407543048,-1.61011703312e-05,-5.11287944391e-05,-0.0005726832896471
1772808558847795500,6.03979541015625,0.0754155987292528,0.0056956726246513,-0.0043004188739694,0.0008091193158179,-0.0021845325827598,0.0004209110047668
1772808558867844400,6.05984423828125,0.077809800389409,0.0032299948971718,0.0063213393754791,-0.0001377323642373,-0.0005670681712217,0.0034819501452147
1772808558887893500,6.0798935546875,0.0864922885388135,0.0075077361484523,-0.0060203060357132,0.0021065911278128,-0.0013473508879542,-0.0025445469655096
1772808558907942400,6.0999423828125,0.0903846198022365,-0.0039128625947982,-0.002186897318717,0.0011215549893677,0.0008458229713141,0.0014973725192248
1772808558927992300,6.119992431640625,0.0811094264566898,0.0039331290646921,0.0026942075200378,-0.0005949090700596,-0.0011000495869666,0.0005630948580801
1772808558948041500,6.14004150390625,0.0864998873233795,-0.0069813559204805,-0.0051551040411228,-5.7462602853e-06,0.0003627003752626,0.0019720708951354
1772808558968090400,6.16009033203125,0.0760258395820856,0.0005452675915323,0.0035062454221304,0.0015447088517248,-0.0007161985849961,0.0016460488550364
1772808558988139300,6.18013916015625,0.0856026462227106,-0.0048296486461535,0.0057346118289744,-0.00095452577807,0.0008642551256343,0.0014791274443268
1772808559008188400,6.2001884765625,0.0872480753421783,0.0080181424891576,0.0061583856324199,-0.0005906929727643,0.0020357114262878,-0.0002316879108548
1772808559028237300,6.2202373046875,0.0851502262800932,0.0008827285181265,-0.0036823737405939,-0.0006398169789463,-0.0002100969431921,0.0008680517785251
1772808559048287500,6.24028759765625,0.0818593680411577,-0.0014031356630381,-0.0035956498717889,-0.0005163697060197,-0.0012535138521343,0.0012461489532142
1772808559068336400,6.26033642578125,0.0721335083186626,0.0010210501434281,0.0050491731483489,0.0020545809529721,0.0016270679188892,-0.0010202098637819
1772808559088385300,6.28038525390625,0.0737806910037994,-0.0045360816602129,0.0016496714697452,-0.0007479956839233,-0.0028117336332798,-0.0012906189076602
1772808559108434400,6.300434326171875,0.0820119282543659,0.0010288589905481,0.0032688153704861,0.0003871847875416,-0.0003592958673834,-0.0003710626624524
1772808559128483300,6.3204833984375,0.0805161367386579,-0.000351425519865,0.0044130261027021,0.0010565808042883,-0.0030825501307845,0.0002898136153817
1772808559148533200,6.340533203125,0.0785690943241119,-0.010392132478347,-0.0016161756255198,0.0001310131046921,-0.0001779921585693,-0.0007736543193459
1772808559168582400,6.36058251953125,0.0929319661974906,0.0011792820455972,-0.0080003556707175,-0.000650723464787,0.0003222859813831,0.0026712105609476
1772808559188631300,6.38063134765625,0.071685180029273,-0.0050383686265442,0.0054023522338829,0.0004991015885025,-0.0006595962913706,-0.0008000950329005
1772808559208680400,6.400680419921875,0.0809609578967094,0.0018048117991071,0.0040075414411956,-0.00292036565952,-0.0025275205262005,0.001477078301832
1772808559228729600,6.4207294921875,0.0794610747277736,0.0050055988681036,0.0026270605679601,0.0013400902971625,0.0011746952077373,-0.000560812652111
1772808559248778200,6.4407783203125,0.0857452695637941,0.0062346931384876,0.0020832360148429,-0.0020107626914978,0.0013241494307294,-0.0005561700090765
1772808559268828400,6.460828369140625,0.0842471399605274,-0.0004768237315118,0.011231524178246,0.0019989567808806,0.0017066838918253,9.436160326e-05
1772808559288877600,6.480877685546875,0.0876917274564504,0.0042528990709688,-0.00475176567093,0.0008608726784586,-0.0020309675019234,-0.0004079854115843
1772808559308926500,6.500926513671875,0.086642510664463,-0.0016911862236447,0.0054763947176281,0.0020835241302847,0.000577466096729,-0.000625173561275
1772808559328975400,6.520975341796875,0.0852986948400735,0.003426385118952,0.0076755487297195,-0.0016475766897201,-0.0002711976121645,-0.0003820220008492
1772808559349024300,6.541024169921875,0.0878407805383205,-0.0010248952014837,-0.0029331628084881,-0.0004186935257166,-0.0002808071731124,-0.000106013379991
1772808559369074400,6.561074462890625,0.0805073689103126,0.0061371693144552,0.0103169803163269,0.0034698634408414,0.0015899506397545,-0.0015135877765715
1772808559389123300,6.581123291015625,0.0858949071675539,0.0008836144341155,-0.0061051804407266,0.0006398137193173,0.000338532787282,2.76546925306e-05
1772808559409172200,6.601172119140625,0.0817068078279495,-0.0122634884413331,0.0074503799380268,0.0006298827938735,-0.0008412694442085,0.0024892040528357
1772808559429221400,6.621221435546875,0.0811088419348001,0.0061515175002161,0.0035541716505074,-0.0017779836198315,0.0007999234367161,0.000100118573755
1772808559449270500,6.6412705078125,0.0805091224759817,0.0039870694753248,0.0030048215389018,-0.0007394566200673,-0.0010654439684003,-0.0008839946240186
1772808559469319400,6.6613193359375,0.0838023188024759,0.0033692389710806,0.0005256084764143,0.0017750563565641,0.0001580406096763,0.0005896687507629
1772808559489369300,6.681369384765625,0.0805114605635404,0.0037580008266493,0.0134670464116614,0.0024496088735759,0.0006226971745491,-0.0004758350551128
1772808559509418500,6.70141845703125,0.0953255833357572,-0.0034319472100585,0.0008047770442441,-0.0017516415100544,0.001042696647346,0.0013831963296979
1772808559529467400,6.72146728515625,0.0800602096647024,0.0043104196781758,0.0020223726730793,0.0018095751293003,6.18164776824e-05,0.0001831459812819
1772808559549516500,6.7415166015625,0.082905077701807,0.0063063518689014,-0.003072548446292,0.0004075069446116,-0.0011326880194246,-0.0012571103870868
1772808559569565200,6.761565185546875,0.0876917274564504,0.0020925609656143,0.005155455667572,0.0004389018286019,0.0014613580424338,0.0005492116324603
1772808559589615400,6.781615478515625,0.0818599525630474,0.0033091154148336,0.0045112577462103,-0.000643492443487,0.0007664368022233,-0.0001436434686183
1772808559609664500,6.80166455078125,0.0899409676879644,-0.0061365573931019,-0.0013107994707766,-0.0003968547098338,-0.0007158746593631,0.00010347366333
1772808559629713400,6.82171337890625,0.0704910018086433,-0.0009779051214456,0.0107797755224863,-0.002450727391988,-0.0001486570690758,-5.14476560056e-05
1772808559649762300,6.84176220703125,0.0839595551908016,-0.0008120196357835,-0.0015797708715777,0.0021972483955323,0.0023284542839974,0.0007598553784191
1772808559669811500,6.8618115234375,0.0731897393733263,0.0041747832003049,0.0005014741155784,0.0044545019045472,-0.0017946772277355,0.0015927709173411
1772808559689860400,6.8818603515625,0.0821697491645813,0.0025000549211166,-0.0004109006221406,0.0015032915398478,0.0038662673905491,0.0034608803689479
1772808559709910300,6.90191015625,0.0682528674930334,-0.0038618813262321,0.0048346947140293,-0.0001918885391205,0.0036904574371874,-6.3291285187e-05
1772808559729959400,6.92195947265625,0.0794756877750158,0.0008441683397162,-0.0006024685383308,-0.0015024784952402,0.0008103949367068,0.0001852679997682
1772808559750008300,6.94200830078125,0.0815706142276525,0.0076927921254653,0.000197828693618,0.0005119105335325,0.000613709737081,-0.001480481121689
1772808559770057500,6.962057373046875,0.0929442411571741,0.0096493330207187,0.0002977499707136,0.0003415721002966,-0.0022374694235622,0.0005317458417266
1772808559790106400,6.9821064453125,0.0836661252021789,-0.0007306249626446,0.0086406172024784,-0.0019978878553956,-0.0001890245184767,0.0016562873497605
1772808559810159400,7.002159423828125,0.077682959139347,0.0013349201318807,-0.0050592698506778,0.0005430509336292,-0.0012019041460007,0.0013293866068124
1772808559830208300,7.022208251953125,0.0773819303661584,0.0069985262509901,0.0008923594295745,-0.0029206192120909,-0.0008237160509452,-0.0021555377170443
1772808559850257400,7.04225732421875,0.0754354724735021,-0.0021095303667243,0.0086310456565348,0.0013000317849218,0.0011746931122615,-0.000756646040827
1772808559870306600,7.062306640625,0.0781301183849573,0.0009110869629308,0.0025355828922241,0.0019435985013842,0.0030338084325194,-3.33553180098e-05
1772808559890355500,7.08235546875,0.0880073692768812,0.0026697123995982,0.0016639191908063,0.000537467887625,-0.0010104685788974,0.0005886973813176
1772808559910404400,7.102404296875,0.0811240395039319,0.0063665850230026,0.0045414428219199,0.0008694774005562,-0.0003763462300412,-0.0014151576906442
1772808559930454500,7.12245458984375,0.083218381434679,-0.0008607267488725,0.0023522530814167,-0.001075540902093,0.0002042047563008,-0.0010742992162704
1772808559950503400,7.14250341796875,0.0782815095543861,-0.0004685216940473,0.0008871991972671,0.0014860436785966,-0.0023306673392653,0.0002853223122656
1772808559970552300,7.16255224609375,0.0851630857616663,0.0031188718060497,0.0038669182609533,0.0017721741460263,0.0008312027202919,-0.0001786150969564
1772808559990601200,7.182601318359375,0.0883066444844007,0.002760632952908,0.002958703675121,-0.000914087286219,0.0010284159798175,0.0009319053497165
1772808560010650400,7.202650390625,0.0808235952526331,-0.0023866576745174,-0.0025869340535486,0.0002690125256776,-0.0005203101900406,-0.0006788223981857
1772808560030700500,7.222700439453125,0.0957891091942787,0.0001811378537211,0.002312870919099,0.0004442476201802,-0.0037386391777545,-0.0016800290904939
1772808560050749200,7.242749267578125,0.0851625012397766,-0.0001556928852107,-0.0036563214173074,-0.0005967856850475,-0.0029571400955319,0.0005950818303972
1772808560070798300,7.26279833984375,0.0800759917557239,-0.0006568930061534,0.0077917224552948,0.0008518781978636,0.0015405206941068,0.0008142525330185
1772808560090847500,7.282847412109375,0.0791810887426137,0.0021750333509873,0.0017601095742778,0.0018250145949423,-0.0019420903408899,-0.0011351197026669
1772808560110896400,7.302896484375,0.0833709416478872,-0.0010121727172285,-0.00076542228139,-0.0029462669044733,0.0013738272245973,-0.0015244833193719
1772808560130945500,7.322945556640625,0.0827677150577306,-0.0012217238146811,0.00833558354103,-0.0010976293124258,0.0013850259128957,-0.0002375766634941
1772808560150995500,7.342995361328125,0.0802215377062559,-0.0036481015782337,0.0013596801138017,-0.0014121276326477,-0.0005266164662316,-0.0010057985782623
1772808560171044400,7.36304443359375,0.0811217014163732,0.001823690029513,0.0007428633897099,0.0019191543105989,0.003001908538863,-5.48213720321e-05
1772808560191093500,7.383093505859375,0.0769324330329895,0.0003432696128729,0.0041290580621687,-0.0012279355432838,-0.0003179592895321,6.44787214696e-05
1772808560211142400,7.403142333984375,0.0778290896117687,4.90998387336e-05,0.0019571619497612,0.0001899793278425,-0.0013445785734802,0.0003095013089478
1772808560231191300,7.42319140625,0.0805190593481063,-0.0005934632479678,0.0080797273501288,-0.0003150887787342,0.0004953928291797,-0.0006315093487501
1772808560251241500,7.443241455078125,0.0835123959451913,-0.0037289025963284,0.0075305005361093,5.8698933571e-06,-3.03490669466e-05,0.0006942707113921
1772808560271290400,7.463290283203125,0.0868055922716855,-0.0022550032520201,0.0074744047010084,-0.0026433775201439,7.70790502429e-05,0.0003234264440834
1772808560291339500,7.483339599609375,0.0763321290522813,0.0024580332771409,0.0105914772756164,-0.0017705084756016,-0.0011077353265136,0.001745484303683
1772808560311388400,7.503388427734375,0.0833645119071006,0.0035945812927093,-0.0037494430608581,-0.0006519432645291,0.0030005513690412,-0.0022971318103373
1772808560331437300,7.523437255859375,0.0836661252021789,-0.002701377046341,0.0085568433425854,0.0009248247370123,0.0024083047173917,0.0026785028167068
1772808560351487500,7.543487548828125,0.0767839644730091,0.0057040842599701,0.0080567528999177,-0.0006890450604259,0.0007023862563073,0.0004835515283048
1772808560371536400,7.563536376953125,0.0862128870755433,0.0015069430973846,0.014963943039067,0.0021897167898714,0.0020639169961214,-0.0004746038466691
1772808560391585300,7.583585205078125,0.0770820706367492,0.0015234010418411,0.0018265258739935,-0.003139684908092,-0.0003996684681624,-0.0025365222245454
1772808560411634400,7.603634521484375,0.0784212102860212,-0.005194426837936,-0.0046137134736869,0.000496283872053,4.28277999162e-05,-0.0009119235910475
1772808560431683300,7.623683349609375,0.0776741913110017,-0.001193611965049,0.0066174271120689,0.0031950497068464,-0.0015750878956168,-0.0010652779601514
1772808560451732500,7.643732421875,0.0806675279080867,-0.0012428670674096,0.0020520417255582,-0.0014622919261455,0.0005793697782792,0.0002073678188025
1772808560471782400,7.663782470703125,0.0776759448766708,0.0049365704861935,0.0040169622900895,-0.0014713034033775,-0.0017665412742644,-0.0008369549177587
1772808560491831300,7.683831298828125,0.0857552064359188,0.0019449874547775,0.0041811124763917,-7.44687858968e-05,0.0006501546595245,0.0006736936047673
1772808560511880400,7.70388037109375,0.0662999798595905,0.0038369386812206,-0.0010080764974234,0.0017145634628832,-0.0011425126576796,9.44565981626e-05
1772808560531929600,7.7239296875,0.0763286219209432,-0.0009832023510709,-0.0009885726459324,0.0012654971797019,-0.0003412823425605,-0.0002176179550588
1772808560551978200,7.743978271484375,0.0788707076191902,0.0065468278275802,0.0070040883420966,0.0017524939030408,-0.0010567886056378,-0.0002910746261477
1772808560572027400,7.76402734375,0.0908411313980817,-0.0030302254082169,0.0021092289726249,-0.0007124131079763,-0.0008044581627473,-0.0007017296738922
1772808560592077600,7.78407763671875,0.0818640442162752,-0.0034135256373789,0.0011688474165508,0.0007026633247733,0.0023146597668528,0.0025792319793254
1772808560612126500,7.80412646484375,0.0829126764863729,-0.0003240077899768,0.0120402650115545,0.0002848079893738,-0.0004537911736406,-0.0016355230472981
1772808560632175400,7.82417529296875,0.0743862556815147,0.003219674432557,-0.0015072718909475,0.0023532074410468,-0.004844132810831,-0.0009111696854233
1772808560652224300,7.844224365234375,0.0823164641588926,-0.0003390683617908,0.0075083663361147,-0.0026475456543266,-0.002222575712949,-4.19872812926e-05
1772808560672273400,7.8642734375,0.0832131207376718,-0.0056487556098494,0.0017043744987808,-0.0005332648288458,-6.12345756962e-05,0.0007189011666923
1772808560692323300,7.8843232421875,0.0728904641658067,-0.006652635422768,0.0071683572594076,-0.0018828291213139,-0.0003894197870977,-0.0002427143044769
1772808560712372200,7.904372314453125,0.0808212571650743,0.0045528957976959,0.0024471054577501,0.0019495307933539,0.0011936012888327,-0.0007766261696815
1772808560732421400,7.92442138671875,0.0791769970893859,0.0006000482523813,-0.0030975961225805,-0.0002773557789623,-0.000918673700653,-0.0012191785499453
1772808560752470500,7.944470458984375,0.0811240395039319,-0.005974717894895,0.001219951982703,-0.0007660300470888,-0.0003798921243287,0.0008529718033969
1772808560772519400,7.96451953125,0.0872568431705236,-0.0018408420937135,-0.0001299054234055,0.0001875087618827,-0.0003192808653693,-0.0001157643273472
1772808560792569300,7.9845693359375,0.0743839175939559,0.0001098444494884,0.007800645547267,-0.0027245280798524,0.0032237293198704,-0.0011635958217084
1772808560812614100,8.0046142578125,0.0803700062662363,-0.0094660123430658,0.0072432536931009,0.0006169991102069,0.0004742019809782,-0.0009468984790146
1772808560832663000,8.0246630859375,0.0757347476810216,-0.0039643461868632,0.0066770300785079,0.0011164685711264,-0.0026485649868845,-0.002338103018701
1772808560852712200,8.044712158203126,0.0854629454910755,-0.0013173662088811,0.0053284604471875,0.0002443166449666,0.0014388683484867,0.0023019786458462
1772808560872761300,8.06476123046875,0.0853168150186538,-0.0011380184534471,0.0104121340867597,0.0030626230873167,0.0029520629905164,0.001053623156622
1772808560892810000,8.08481005859375,0.0887596489489078,-0.0037517537489533,0.0036138157161418,0.001034713583067,-0.0010911293793469,-0.0011897156946361
1772808560912860200,8.104860107421874,0.0868131910562515,0.0011516633863095,0.0049010470816632,0.0002330008428543,0.0001928937854245,-0.0023644273169338
1772808560932909300,8.124909423828125,0.0847211872130632,0.0005742196913808,0.006946156742936,-0.0025177767965942,-0.0018819461110979,5.06378710269e-05
1772808560952958200,8.144958251953126,0.075443071258068,-0.0056569937152322,0.0032444115815917,-0.002239036373794,-0.0010622420813888,-0.0005494719371199
1772808560973007000,8.165007080078125,0.0875648862063884,-0.0037057409164495,0.0089000398902222,-0.0030028072651475,-0.0011626537889242,-0.0022332933731377
1772808560993056000,8.185055908203125,0.0848731629043817,0.0075375376316718,-0.0074817523238249,0.0043691201135516,-0.0006048734067007,-0.0011501791886985
1772808561013106200,8.205106201171875,0.0796370158165693,-0.0018789638807065,0.006496590911108,0.0008162369485944,-0.0032676237169653,0.0012096976861357
1772808561033155300,8.2251552734375,0.0744014532506466,-0.0005323715773411,-0.0016322773769497,0.0029595028609037,0.0003815465606749,-0.0014772554859519
1772808561053204000,8.245203857421876,0.0764981332689523,0.001112180759292,0.0009905819399282,-0.0035873367451131,0.0007862014463171,-9.37567092478e-05
1772808561073253000,8.265253173828125,0.0809884304255247,0.0072771057303529,0.0063506979007041,-0.0018007028847932,-0.0010670248884707,-0.0001722695305943
1772808561093302300,8.28530224609375,0.078444006639719,0.0065968409817665,-0.0004717000318225,0.0010644106660038,0.0006452151574194,-0.0019217883236706
1772808561113351200,8.30535107421875,0.0781429778665304,0.0047037755104713,-0.0013210834027733,-0.0004795263521373,-0.0031906133517622,-0.0013661598786711
1772808561133401000,8.325401123046875,0.0788882432758808,-3.89620372094e-05,0.006469885567273,-0.001864444813691,-1.1819647625e-05,0.0013168246950954
1772808561153450200,8.3454501953125,0.085918872565031,0.0072701736660674,0.0030734480620129,-0.0003484475892037,0.0003621510695666,0.0013455243315547
1772808561173499100,8.3654990234375,0.0757417619436979,0.01120310180136,0.0053372100092237,-0.0004324843175709,0.0018281675875186,-0.0004411581903696
1772808561193548300,8.38554833984375,0.0829231978803873,0.0036445213816594,0.0014344212838681,4.03486192226e-05,0.0005345684476196,0.0016601348761469
1772808561213597200,8.40559716796875,0.072145783278346,0.0026710367070045,0.0046327241348335,0.0022842669859528,0.0002301398781128,0.001203931402415
1772808561233647000,8.425647216796875,0.0757382548123598,0.0011710804728325,0.0096512098839739,0.0016364068724215,-0.0016058443579822,0.0010869861580431
1772808561253696300,8.4456962890625,0.080528996220231,-0.0017643062587827,0.0054958940025418,0.0029487733263522,0.0005646616336889,0.0005012033507227
1772808561273745200,8.4657451171875,0.0714005178689956,-0.0070213682704605,-0.0049847889755154,-0.0002758619375526,0.0010606492869555,0.0020242147147655
1772808561293794000,8.4857939453125,0.0865109932392835,-0.009048115724558,0.0102264616218162,0.0005461547989398,-0.0001702087756711,-0.0006186920218169
1772808561313843200,8.50584326171875,0.0895043298363685,0.0038074020594824,0.0056141272544628,0.001167879672721,-0.0003190148563589,-0.0024561127647757
1772808561333892000,8.52589208984375,0.0763356361836194,0.0017574198602698,0.0039990384743316,-0.0005843942053616,-0.0005921386764384,0.0025003680493682
1772808561353942300,8.5459423828125,0.0781342100381851,0.0067627082011196,0.0086381329844472,0.0018830893095582,0.0006799576804041,0.001391113968566
1772808561373991200,8.5659912109375,0.0697545042276382,-0.0003963058412075,-0.0023325893997214,-0.0011094766668975,0.0007267502951435,0.002437395742163
1772808561394040000,8.5860400390625,0.0766360804349184,-0.0032169618856627,-0.0005841291640419,-0.0014655464328825,-0.0019586980342864,0.0004603816196322
1772808561414089200,8.606089111328124,0.0781301183849573,0.006321129312925,0.0100574251978425,0.000686865998432,-0.000766925397329,0.0015863967128098
1772808561434138000,8.62613818359375,0.0869575679630041,-0.0013245722678024,0.0014944535085698,-0.0001381537877023,-0.0002153731766156,0.0003710947930812
1772808561454187300,8.646187255859376,0.0808241797745227,0.0019684505287557,0.0137374014853732,0.0021649473346769,0.0003001724253408,0.0007109190337359
1772808561474237200,8.6662373046875,0.0757353322029113,-0.0011474347357638,-0.0032353651920333,-2.14895699173e-05,-0.0014065647264942,-0.0012565194629132
1772808561494286000,8.6862861328125,0.0721446142345666,0.003597074643895,0.0002308998461579,-0.0011732571292668,-0.0021445928141474,-0.0007337862625718
1772808561514335200,8.706335205078124,0.0745382313728332,-0.0055076940381899,0.0026234484053449,0.0020673794206231,0.0003799756523221,-0.0009859604761004
1772808561534384000,8.726384033203125,0.0779793117374181,0.0030026706810109,0.008814110605861,0.0008826288394629,0.0011685770004987,0.0014256287831813
1772808561554433000,8.74643310546875,0.0799240160644054,0.0025629732226487,0.0081439105935627,-0.000990844797343,-0.0010962955420836,-0.0005381638184189
1772808561574483200,8.766483154296875,0.0740916566491127,-0.0049632575637195,0.0085442761219572,0.0021105357445776,0.0006982912891544,-0.0012409966439008
1772808561594532400,8.786532470703126,0.0776835436612367,-0.0046850525436922,-0.0024832910159835,-0.001500025158748,-0.0010859497124329,0.0011919897515326
1772808561614581000,8.8065810546875,0.0833686035603284,0.0038198140164837,0.0099391051809536,0.002258890774101,0.0013985713012516,0.0016916359309107
1772808561634630100,8.826630126953125,0.0805237355232238,0.0097057850488461,0.0060497330595972,-0.0029100151732563,0.0003775740042328,-0.0009246636182069
1772808561654679000,8.846678955078126,0.0853092162340879,0.005763513696473,-0.0006534406737424,0.0010734659153968,-0.0002079182013403,0.0004476835019886
1772808561674728200,8.866728271484375,0.0836632025927305,0.0026216080747079,0.0087006265942938,-0.0015877608675509,0.0015539634041488,0.00070695229806
1772808561694778000,8.886778076171876,0.0776776984423398,0.0024777060919906,0.0050860710926353,0.0010645843576639,-0.0013994424371048,-0.0004880167543888
1772808561714827000,8.906826904296874,0.0827677150577306,-0.0008986750059295,0.009068505492038,-0.0007148704025894,-0.0013014816213399,0.001385860145092
1772808561734876200,8.926876220703125,0.075284665825963,-0.0014875716766342,0.0023518101234221,-2.14758329093e-05,9.91125707514e-05,0.0003399099223315
1772808561754925300,8.94692529296875,0.0863613556355237,0.0048973618538118,0.0102098118811147,0.0006217698100954,0.0005925254081375,-0.0013510338030755
1772808561774974200,8.96697412109375,0.0845680424779653,-0.0019379823252558,0.0094677659087348,-0.0004110368900001,-0.0002513859362807,-0.0010276269167661
1772808561795023000,8.987023193359375,0.071548986428976,0.0032462701785378,0.0081518518714234,-0.0013333894312381,-0.000249881792115,-0.0003444910980761
1772808561815076900,9.007076904296875,0.0746937141954898,0.0018696937288623,0.004306780116097,6.55353069305e-05,0.000290262280032,0.0008710229303687
1772808561835125800,9.027125732421876,0.0859177035212516,-0.0013213939300272,0.0022196990431984,0.000207727542147,-3.19330138154e-05,0.001673346851021
1772808561855174700,9.047174560546877,0.079630001553893,0.0018287406639661,-0.0014549663149751,0.0016145054250955,-0.0019460616167634,0.0004590507596731
1772808561875223800,9.067223876953124,0.0829220288366079,-0.0019261914227623,0.005549062661617,0.0011115742381662,0.00165187404491,0.0033269899431616
1772808561895272700,9.087272705078124,0.0808276869058609,0.0037528040617238,-0.001488384527387,-0.0016057998873293,0.0001934893080033,-0.0009804666042327
1772808561915321900,9.10732177734375,0.072300681579113,0.0058557585571892,0.0043787448071874,0.0012618964537978,0.000968110980466,0.003260820871219
1772808561935371800,9.127371826171874,0.0869657512694597,0.0067745447693858,0.0094128939163405,-0.0009218687191605,0.0008077707607299,-0.0020514973439276
1772808561955420700,9.147420654296877,0.0865145003706216,0.0019911829503718,0.0082581663566874,-0.0002398644573986,-0.001603097654879,-0.0003828597255051
1772808561975469800,9.1674697265625,0.0757429309874773,0.0032689295349176,0.0030130824771709,0.0015146760269999,-0.0010812489781528,-6.50910660624e-05
1772808561995518700,9.187518798828124,0.0760427907168865,-0.0056348366823513,0.0122192337410757,0.0001793045084923,0.0009572433773428,-0.0019639483653008
1772808562015568000,9.20756787109375,0.0720066670686006,0.0037729152679909,0.0021535156389232,-0.0016778919380158,-0.0006129149114713,0.000522062415257
1772808562035617800,9.22761767578125,0.0823310772061347,0.0100297197735868,0.0043940793736372,0.0005819119978696,-0.0009970974642783,-0.0003925585187971
1772808562055666700,9.247666748046877,0.0757516988158226,0.0030250286432914,0.0029669417805038,0.0005725671071559,-0.0007645619334653,-0.0021140077151358
1772808562075715800,9.2677158203125,0.0811380680292844,0.0036965255635324,0.0055199552981415,0.001181780360639,-2.06673284992e-05,0.0005398162174969
1772808562095765000,9.287764892578124,0.0830827723562717,0.0065226158349309,0.0093388879652135,-0.0005475410725921,-0.0019530545687302,0.0007573741022497
1772808562115813600,9.307813720703123,0.0871229876577854,0.0025398298090789,0.0049298028186894,-0.0016228242311626,-0.000348528381437,-0.0008159335702657
1772808562135862800,9.32786279296875,0.0791916101366281,-0.0055489484971854,0.0052907861847663,-0.0007053217850625,0.0015071543166413,-0.0021076635457575
1772808562155913000,9.347912841796877,0.0872755478709936,0.002062101895269,0.0029465931122191,-8.97957943379e-05,-0.0006687671411782,0.0010395578574389
1772808562175961900,9.3679619140625,0.0776969876646995,-0.0059227685119491,0.0048400467425817,-0.000311825890094,-0.001371162943542,0.000727659324184
1772808562196010800,9.3880107421875,0.0717120680361986,0.0015920549644157,-0.0003583393178414,0.0009181404020637,0.0019765486940741,0.0017874208278954
1772808562216059600,9.4080595703125,0.0811409906387329,0.0022987145295832,0.0047680226859869,-0.0014476990327239,-0.0002023263659793,-0.0008469149470329
1772808562236108800,9.42810888671875,0.0808440535187721,0.0089601177806966,0.0029402181703597,0.0019962019287049,0.0009283034014515,-0.0001972895115613
1772808562256158000,9.448157958984376,0.0748585493683815,0.0125129240246023,0.0048372839633375,-0.001148254610598,0.002927680267021,0.000674373935908
1772808562276207600,9.46820751953125,0.0890735372036695,0.0017900160887744,0.0069865709517151,0.0026940430980175,-0.001874808454886,0.0004908996634185
1772808562296256800,9.4882568359375,0.0640858109414577,0.0072519712890964,0.0031805525651434,0.0006173618603497,-0.0039127892814576,0.0008188830688595
1772808562316306000,9.508305908203123,0.0754541771739721,0.0004335051795933,0.0044528329567052,0.0018331999890506,-0.0001640523259993,0.0004249410703778
1772808562336354800,9.528354736328126,0.0887719239085912,0.0069843241957016,-0.0014995224093319,0.0002274152357131,0.0025324113667011,-0.003063918557018
1772808562356403700,9.54840380859375,0.0869809488385915,-0.0002345759408548,0.0095400456936564,0.0016964650712907,0.0066082589328289,-5.32059930264e-05
1772808562376452600,9.56845263671875,0.0796609812140464,0.0001890288992319,0.003838212756277,0.0035678115673363,0.0072756027802824,0.0027175864670425
1772808562396502800,9.588502685546874,0.0769786102622747,0.0051087578484788,0.0074082760956604,0.00141884945333,9.43503109738e-05,-0.0007377183064818
1772808562416552000,9.608552001953123,0.0615630144655704,-0.0014971614888869,0.0116151623341254,0.0019427628722041,-0.006794502492994,0.0006119343452155
1772808562436600600,9.6286005859375,0.0827975256741046,0.0084533647018019,0.0055459162898827,-0.0025207493454217,-0.004380845464766,-0.0006832941435277
1772808562456649700,9.648649658203125,0.1068845037043094,0.0139240420646965,-0.000326492008008,-0.0029552241321653,-0.0015805547591298,-0.0002610636875033
