time,seconds_elapsed,accel_z,accel_y,accel_x,gyro_x,gyro_y,gyro_z
1.7726401284780168e+18,0.252016845703125,-0.0471305847167968,-0.0058853514492511,0.0098783057183027,0.0018642111681401,-0.0022636849898844,0.0005326317623257
1.7726401284980086e+18,0.272008544921875,-0.0567140579223632,-0.0061485581099987,0.0099506452679634,0.0,-0.0001331579405814,0.0
1.7726401285180004e+18,0.29200048828125,-0.0375499725341796,0.003430962562561,0.0146043878048658,-0.0002663158811628,-0.0003994738217443,0.0
1.7726401285379922e+18,0.3119921875,-0.0471315383911132,-0.0108917467296123,0.0097806677222251,-0.0005326317623257,0.00093210558407,0.0
1.772640128557984e+18,0.33198388671875,-0.0423412322998046,-0.0109462924301624,0.0193287171423435,0.0002663158811628,-0.0014647373463958,-0.0005326317623257
1.7726401285779758e+18,0.351975830078125,-0.0567140579223632,0.0082148760557174,0.004818657413125,0.0010652635246515,0.0006657897029072,-0.0013315794058144
1.7726401285979674e+18,0.37196728515625,-0.0471305847167968,-0.0011602714657783,0.0144720487296581,0.0013315794058144,0.0003994738217443,0.0005326317623257
1.7726401286179592e+18,0.391959228515625,-0.0609045028686523,-0.006057783961296,0.0190724842250347,0.0,-0.0006657897029072,0.0
1.772640128637951e+18,0.411950927734375,-0.0800685882568359,-0.0012691617012023,0.0094049386680126,-0.0002663158811628,-0.0001331579405814,0.0
1.7726401286579428e+18,0.43194287109375,-0.0656957626342773,0.0131519325077533,-0.0050607100129127,0.0002663158811628,-0.0001331579405814,-0.0007989476434886
1.7726401286779346e+18,0.4519345703125,-0.0609035491943359,0.0036727003753185,0.0284498110413551,0.0,-0.0006657897029072,0.0
1.772640128697926e+18,0.47192578125,-0.0423402786254882,0.0084084868431091,0.0284150093793869,-0.0010652635246515,0.0003994738217443,0.0002663158811628
1.7726401287179164e+18,0.49191650390625,-0.0519218444824218,0.00345866009593,0.0093753803521394,0.0005326317623257,-0.00093210558407,-0.0002663158811628
1.7726401287379067e+18,0.51190673828125,-0.0567131042480468,-0.0204963944852352,0.0188181027770042,0.0,-0.0003994738217443,-0.0002663158811628
1.772640128757897e+18,0.53189697265625,-0.0423393249511718,-0.010863360017538,0.0185223519802093,-0.0002663158811628,-0.0003994738217443,0.0
1.7726401287778872e+18,0.55188720703125,-0.056711196899414,0.0228770747780799,0.0278592258691787,-0.0005326317623257,-0.0001331579405814,0.0002663158811628
1.7726401287978775e+18,0.57187744140625,-0.0471277236938476,-0.0201891362667083,0.013451823964715,0.0002663158811628,-0.0001331579405814,0.0002663158811628
1.772640128817868e+18,0.591867919921875,-0.051919937133789,-0.0010794512927532,0.0086276289075613,0.0007989476434886,0.0006657897029072,0.0010652635246515
1.7726401288378583e+18,0.6118583984375,-0.0609016418457031,-0.001081459224224,0.0181224048137664,0.0,-0.0006657897029072,-0.0002663158811628
1.7726401288578486e+18,0.6318486328125,-0.0471277236938476,0.0083924196660518,0.0132968686521053,-0.0002663158811628,-0.0014647373463958,0.0
1.7726401288778388e+18,0.6518388671875,-0.0656929016113281,0.0037553682923316,0.0132102109491825,-0.0010652635246515,-0.0011984214652329,-0.0002663158811628
1.772640128897829e+18,0.6718291015625,-0.0471258163452148,0.0088555440306663,0.0229638833552598,-0.0002663158811628,-0.0001331579405814,-0.0002663158811628
1.7726401289178196e+18,0.691819580078125,-0.0608997344970703,0.0041135624051094,0.0036618951708078,0.0002663158811628,-0.0001331579405814,0.0005326317623257
1.77264012893781e+18,0.711809814453125,-0.0567083358764648,-0.0006797760725021,-0.0012140534818172,0.0,-0.0003994738217443,0.0002663158811628
1.7726401289578002e+18,0.73180029296875,-0.0519170761108398,-0.0006816945970058,0.013071971014142,0.0005326317623257,-0.0001331579405814,0.0
1.7726401289777905e+18,0.75179052734375,-0.0423355102539062,-0.0056304968893527,0.008246811106801,-0.0007989476434886,-0.0003994738217443,0.0002663158811628
1.7726401289977807e+18,0.77178076171875,-0.0608997344970703,-0.0056835711002349,-0.0109467525035142,-0.0015978952869772,0.00093210558407,-0.0007989476434886
1.7726401290177713e+18,0.791771240234375,-0.0848560333251953,0.0086856372654438,-0.001187240704894,-0.0002663158811628,-0.0006657897029072,-0.0005326317623257
1.7726401290377615e+18,0.811761474609375,-0.0656919479370117,0.0038920044898986,-0.0203258730471134,0.0,-0.0003994738217443,-0.0005326317623257
1.7726401290577518e+18,0.831751708984375,-0.0471267700195312,0.013471744954586,-0.0108008813112974,0.0,-0.0003994738217443,0.0005326317623257
1.772640129077742e+18,0.8517421875,-0.042337417602539,0.0037885457277297,-0.0010963771492242,0.0007989476434886,-0.0001331579405814,0.0
1.7726401290977324e+18,0.871732421875,-0.032754898071289,0.0036877132952213,-0.0010772496461868,0.0002663158811628,-0.0001331579405814,0.0005326317623257
1.772640129117723e+18,0.891722900390625,-0.0471277236938476,0.0086373463273048,-0.0155324954539537,0.0,0.00093210558407,0.0010652635246515
1.7726401291377132e+18,0.911713134765625,-0.0471258163452148,0.0040587708353996,-0.0203514564782381,0.0,0.0001331579405814,0.0010652635246515
1.7726401291577034e+18,0.931703369140625,-0.0656929016113281,0.0086425840854644,-0.0154862012714147,0.0,-0.0001331579405814,-0.0002663158811628
1.772640129197684e+18,0.97168408203125,-0.0704841613769531,-0.0058279745280742,-0.0160390380769968,0.0005326317623257,0.0006657897029072,-0.0007989476434886
1.7726401292176737e+18,0.991673828125,-0.0471277236938476,0.0037050656974315,0.0127215608954429,0.0005326317623257,0.0001331579405814,0.0002663158811628
1.7726401292376635e+18,1.01166357421875,-0.0423383712768554,-0.0011335425078868,-0.0015805177390575,-0.0007989476434886,-0.0003994738217443,-0.0005326317623257
1.7726401292576532e+18,1.0316533203125,-0.0752735137939453,-0.01044612377882,0.0125468745827674,-0.0010652635246515,-0.0001331579405814,0.0002663158811628
1.7726401292776428e+18,1.051642822265625,-0.0608997344970703,0.0088233277201652,0.0078754313290119,0.0010652635246515,0.0003994738217443,-0.0007989476434886
1.7726401292976325e+18,1.071632568359375,-0.0704841613769531,-0.0009625442326068,0.0032588839530944,0.0002663158811628,0.0003994738217443,0.0
1.7726401293176223e+18,1.091622314453125,-0.0752754211425781,-0.0012192092835903,-0.0110404770821332,0.0002663158811628,0.0001331579405814,0.0
1.772640129337612e+18,1.111612060546875,-0.0609025955200195,0.0035223253071308,0.0029834061861038,0.0002663158811628,0.0003994738217443,-0.0005326317623257
1.7726401293576018e+18,1.131601806640625,-0.0704841613769531,0.0132088847458362,-0.0064724870026111,-0.0013315794058144,-0.0011984214652329,0.0010652635246515
1.7726401293775916e+18,1.151591552734375,-0.0519180297851562,0.0087328292429447,0.0179893169552087,-0.0005326317623257,0.0006657897029072,-0.0010652635246515
1.7726401293975813e+18,1.171581298828125,-0.0567083358764648,0.0088905990123748,0.0085270293056964,0.0010652635246515,0.00093210558407,0.0002663158811628
1.772640129417571e+18,1.191571044921875,-0.0519170761108398,0.0184702686965465,-0.0010353736579418,0.0013315794058144,0.0003994738217443,-0.0010652635246515
1.7726401294375608e+18,1.211560791015625,-0.0423355102539062,-0.000636737793684,-0.0106993038207292,0.0002663158811628,-0.0017310532275587,-0.0010652635246515
1.7726401294575506e+18,1.231550537109375,-0.0704813003540039,-0.0004757083952426,0.003794303163886,-0.0005326317623257,0.0006657897029072,0.0007989476434886
1.7726401294775404e+18,1.251540283203125,-0.0519161224365234,0.013896208256483,0.0132852979004383,-0.0015978952869772,-0.0003994738217443,0.0005326317623257
1.77264012949753e+18,1.271530029296875,-0.0519161224365234,0.0091581046581268,-0.0058577787131071,-0.0007989476434886,0.0006657897029072,-0.0002663158811628
1.77264012951752e+18,1.291519775390625,-0.0752716064453125,0.0044220574200153,-0.0012044310569763,0.0,0.0001331579405814,0.0005326317623257
1.7726401295375096e+18,1.311509521484375,-0.0567054748535156,0.0093182437121868,-0.0061303973197937,-0.0002663158811628,-0.0003994738217443,-0.0002663158811628
1.7726401295574994e+18,1.33149951171875,-0.0567054748535156,-0.0002070926129817,-0.0110029932111501,-0.0007989476434886,0.0006657897029072,-0.0007989476434886
1.7726401295774892e+18,1.3514892578125,-0.060896873474121,-0.0001507513225078,0.0076805725693702,0.0,-0.0003994738217443,0.0002663158811628
1.7726401295974787e+18,1.371478759765625,-0.0704793930053711,-0.0097234472632408,0.0078530367463827,-0.0002663158811628,0.0001331579405814,-0.0002663158811628
1.7726401296174684e+18,1.391468505859375,-0.0519142150878906,0.0047565586864948,0.0126053635030984,-0.0002663158811628,-0.0006657897029072,0.0
1.7726401296374582e+18,1.411458251953125,-0.0704774856567382,0.0289637148380279,-0.0112732071429491,-0.0005326317623257,-0.0006657897029072,0.0005326317623257
1.772640129657448e+18,1.431447998046875,-0.0519132614135742,0.0050632655620574,0.0176395066082477,-0.0002663158811628,-0.0003994738217443,-0.0005326317623257
1.7726401296974277e+18,1.471427734375,-0.0800590515136718,-0.0045072101056575,0.0031445417553186,-0.0002663158811628,0.0006657897029072,-0.0010652635246515
1.7726401297174185e+18,1.49141845703125,-0.0656862258911132,-0.0139729902148246,0.0081594344228506,0.0,0.00093210558407,0.0007989476434886
1.7726401297374095e+18,1.511409423828125,-0.0423307418823242,0.0100331343710422,0.00806874781847,-0.0005326317623257,-0.0001331579405814,0.0007989476434886
1.7726401297574003e+18,1.531400390625,-0.0279579162597656,0.0148209035396575,0.0080829877406358,-0.0013315794058144,0.0003994738217443,0.0002663158811628
1.7726401297773914e+18,1.551391357421875,-0.0608949661254882,0.0052928924560546,-0.0013232734054327,-0.0002663158811628,0.00093210558407,0.0
1.7726401297973821e+18,1.571382080078125,-0.0656862258911132,0.000402059406042,0.0132705997675657,0.0,0.0003994738217443,0.0005326317623257
1.7726401298173732e+18,1.591373291015625,-0.0471210479736328,-0.0091712735593318,0.0132281295955181,-0.0005326317623257,0.0011984214652329,0.0005326317623257
1.772640129837364e+18,1.611364013671875,-0.0471229553222656,0.019516784697771,0.0182379931211471,-0.0002663158811628,-0.0003994738217443,-0.0007989476434886
1.7726401298573548e+18,1.631354736328125,-0.0608978271484375,0.0241423659026622,0.013406004756689,0.0,0.0001331579405814,-0.0002663158811628
1.7726401298773458e+18,1.651345703125,-0.0704803466796875,0.004876509308815,0.013313939794898,-0.0002663158811628,0.00093210558407,-0.0002663158811628
1.7726401298973366e+18,1.671336669921875,-0.060896873474121,0.005139410495758,0.0084847621619701,0.0005326317623257,0.0011984214652329,0.0005326317623257
1.7726401299173276e+18,1.69132763671875,-0.060896873474121,-0.0094326548278331,0.0179700031876564,0.0,-0.0001331579405814,-0.0018642111681401
1.7726401299373184e+18,1.711318359375,-0.0471229553222656,-0.0095270909368991,-0.0062237735837697,0.0002663158811628,0.0011984214652329,0.0013315794058144
1.7726401299573094e+18,1.731309326171875,-0.042332649230957,0.014527577906847,-0.0013102889060974,0.0007989476434886,-0.0001331579405814,0.0
1.7726401299773002e+18,1.75130029296875,-0.0608978271484375,0.0193122923374176,0.0140387434512376,0.0005326317623257,-0.0003994738217443,0.0013315794058144
1.7726401299972913e+18,1.771291259765625,-0.0752706527709961,-0.009370632469654,0.0334106311202049,-0.0013315794058144,-0.0001331579405814,0.0002663158811628
1.772640130017282e+18,1.791281982421875,-0.0567073822021484,-0.004624206572771,0.0048379153013229,0.0010652635246515,-0.0003994738217443,-0.0005326317623257
1.772640130037273e+18,1.811273193359375,-0.0752725601196289,0.0046458579599857,0.0098497159779071,0.0005326317623257,-0.0011984214652329,0.0
1.7726401300572639e+18,1.831263916015625,-0.0704841613769531,0.0045427270233631,0.0052296798676252,-0.0005326317623257,0.0006657897029072,-0.0013315794058144
1.772640130077255e+18,1.8512548828125,-0.0609006881713867,0.023800078779459,0.0051395166665315,0.0,0.0019973691087216,0.0015978952869772
1.7726401300972457e+18,1.87124560546875,-0.0519189834594726,-0.0051991492509841,0.0004708282649517,-0.0002663158811628,0.0011984214652329,0.0007989476434886
1.7726401301172367e+18,1.89123681640625,-0.056711196899414,-0.0004559941589832,-0.0040388256311416,0.0002663158811628,0.00093210558407,0.0007989476434886
1.7726401301372275e+18,1.9112275390625,-0.0704870223999023,-0.0054475776851177,0.0008226018399,0.0015978952869772,0.0011984214652329,-0.0005326317623257
1.7726401301572186e+18,1.931218505859375,-0.051919937133789,0.018499806523323,-0.0089430101215839,0.0005326317623257,0.00093210558407,-0.0010652635246515
1.7726401301972004e+18,1.971200439453125,-0.056711196899414,0.0186990424990654,0.0097564794123172,-0.0005326317623257,-0.0003994738217443,-0.0010652635246515
1.7726401302171917e+18,1.991191650390625,-0.0704832077026367,0.0046926252543926,0.023921275511384,0.0013315794058144,0.0006657897029072,-0.0005326317623257
1.772640130237183e+18,2.011182861328125,-0.0656919479370117,-0.0097208991646766,-0.0048021338880062,0.0002663158811628,0.0014647373463958,-0.0010652635246515
1.7726401302571745e+18,2.031174560546875,-0.042337417602539,-0.005182821303606,0.0046908613294363,0.0010652635246515,0.0003994738217443,0.0002663158811628
1.7726401302771658e+18,2.051165771484375,-0.056711196899414,-0.0004391074180603,0.0047585181891918,0.0,-0.00093210558407,0.0007989476434886
1.7726401302971574e+18,2.071157470703125,-0.047128677368164,-0.0005910359323024,0.004825348034501,-0.0007989476434886,0.0001331579405814,-0.0007989476434886
1.7726401303171487e+18,2.091148681640625,-0.056711196899414,-0.014896422624588,0.0143107529729604,-0.0018642111681401,-0.00093210558407,-0.0013315794058144
1.7726401303371402e+18,2.11114013671875,-0.0609016418457031,-0.0004144124686717,0.0190013833343982,0.0002663158811628,0.0001331579405814,0.0005326317623257
1.7726401303571315e+18,2.131131591796875,-0.0609025955200195,0.0090610459446907,0.01442745141685,0.0013315794058144,-0.0003994738217443,0.0002663158811628
1.7726401303771228e+18,2.151122802734375,-0.0609025955200195,0.0138457305729389,0.0149279832839965,0.0002663158811628,0.0003994738217443,0.0002663158811628
1.7726401303971144e+18,2.1711142578125,-0.0704851150512695,-0.0053616464138031,0.0099913012236356,0.0007989476434886,0.0003994738217443,-0.0005326317623257
1.7726401304171057e+18,2.191105712890625,-0.0609016418457031,-0.0100362375378608,0.0051619671285152,-0.0002663158811628,-0.0003994738217443,-0.0002663158811628
1.7726401304370972e+18,2.21109716796875,-0.051919937133789,0.013651717454195,0.0051248352974653,-0.0005326317623257,-0.0003994738217443,-0.0005326317623257
1.7726401304570885e+18,2.231088623046875,-0.047128677368164,0.0040191113948822,0.0241842661052942,0.0005326317623257,0.0011984214652329,0.0002663158811628
1.77264013047708e+18,2.251080078125,-0.0423393249511718,0.0184867233037948,-0.0042779073119163,0.0,-0.0003994738217443,-0.0013315794058144
1.7726401304970714e+18,2.2710712890625,-0.0800685882568359,0.0039585940539836,0.0005308780819177,0.0002663158811628,-0.0006657897029072,0.0
1.7726401305170627e+18,2.291062744140625,-0.0656957626342773,-0.0104016438126564,-0.0136044491082429,-0.0005326317623257,-0.0001331579405814,-0.0007989476434886
1.7726401305370542e+18,2.31105419921875,-0.0471324920654296,-0.0107019357383251,-0.0038966350257396,0.0013315794058144,-0.0001331579405814,0.0005326317623257
1.7726401305570455e+18,2.33104541015625,-0.0609073638916015,0.0034117400646209,0.0056993570178747,0.0002663158811628,-0.0003994738217443,0.0002663158811628
1.772640130577037e+18,2.351037109375,-0.0609073638916015,-0.0061606988310813,0.0002229399979114,-0.0005326317623257,0.0014647373463958,0.0005326317623257
1.7726401305970284e+18,2.3710283203125,-0.051924705505371,-0.0206163823604583,-0.0046500880271196,0.0007989476434886,0.0001331579405814,-0.0002663158811628
1.7726401306170196e+18,2.39101953125,-0.0375518798828125,0.0081797242164611,0.019464710727334,0.0,0.0011984214652329,-0.0007989476434886
1.7726401306370112e+18,2.41101123046875,-0.0656986236572265,0.0129127241671085,0.0051072500646114,0.0015978952869772,0.0006657897029072,-0.0002663158811628
1.7726401306570025e+18,2.43100244140625,-0.0656995773315429,0.0224799439311027,-0.004244128242135,0.0013315794058144,0.0001331579405814,0.0002663158811628
1.772640130676994e+18,2.450994140625,-0.0800743103027343,-0.0018344558775424,-0.00880085863173,0.0,-0.0003994738217443,-0.0005326317623257
1.772640130696985e+18,2.470985107421875,-0.0752849578857421,-0.0067717470228672,0.0105807408690452,0.0005326317623257,-0.0003994738217443,0.0
1.772640130716975e+18,2.49097509765625,-0.0657033920288086,-0.0163871273398399,-0.0036142878234386,-0.0002663158811628,0.00093210558407,0.0010652635246515
1.7726401307369649e+18,2.51096484375,-0.0567207336425781,-0.0115811824798583,0.0007528495043516,0.0002663158811628,0.0001331579405814,0.0013315794058144
1.772640130756955e+18,2.530954833984375,-0.065704345703125,-0.0068833120167255,0.01544532738626,0.0,0.0011984214652329,-0.0005326317623257
1.772640130776945e+18,2.55094482421875,-0.065704345703125,-0.0019819624722003,0.0162036549299955,0.0018642111681401,0.0011984214652329,-0.0007989476434886
1.772640130796935e+18,2.570934814453125,-0.065704345703125,-0.0019758120179176,0.0066335294395685,0.0007989476434886,0.0011984214652329,-0.0005326317623257
1.7726401308169247e+18,2.590924560546875,-0.0471401214599609,0.0074581950902938,-0.0078103877604007,0.0002663158811628,0.00093210558407,-0.0005326317623257
1.7726401308369147e+18,2.610914794921875,-0.065704345703125,-0.0259353443980216,0.0159976929426193,0.0,0.00093210558407,0.0005326317623257
1.7726401308569047e+18,2.63090478515625,-0.0567207336425781,-0.01627067476511,0.0208476968109607,0.0005326317623257,0.0017310532275587,0.0015978952869772
1.7726401308768945e+18,2.65089453125,-0.0519285202026367,0.0078486651182174,-0.0080219320952892,-0.0005326317623257,0.00093210558407,-0.0013315794058144
1.7726401308968845e+18,2.670884521484375,-0.0471372604370117,0.0174295119941234,0.01105273142457,0.0,0.0001331579405814,-0.0007989476434886
1.7726401309168745e+18,2.69087451171875,-0.0704946517944336,0.0030166357755661,0.006541546434164,0.0006657897029072,-0.0003994738217443,0.0011984214652329
1.7726401309368643e+18,2.7108642578125,-0.0704946517944336,-0.0017572678625583,0.0160293094813823,-0.0006657897029072,-0.0006657897029072,-0.0006657897029072
1.7726401309568543e+18,2.730854248046875,-0.0471382141113281,0.0125142522156238,0.0114092174917459,-0.0003994738217443,0.0003994738217443,0.00093210558407
1.7726401309768443e+18,2.75084423828125,-0.0609130859375,0.0123608633875846,0.0201369915157556,-0.00093210558407,-0.0006657897029072,0.0001331579405814
1.772640130996834e+18,2.770833984375,-0.0848674774169921,0.0076298266649246,0.0154602527618408,-0.0001331579405814,-0.0003994738217443,0.0003994738217443
1.772640131016824e+18,2.790823974609375,-0.065704345703125,-0.0067210905253887,-0.0036222506314516,0.0001331579405814,0.0014647373463958,-0.0003994738217443
1.772640131036814e+18,2.81081396484375,-0.0561227798461914,-0.0019129365682601,0.0013496372848749,-0.0001331579405814,-0.0003994738217443,0.0003994738217443
1.7726401310568038e+18,2.830803955078125,-0.0657062530517578,0.0025772638618946,0.0159928184002637,0.0003994738217443,0.00093210558407,-0.0001331579405814
1.772640131096784e+18,2.870783935546875,-0.0609130859375,0.00765897706151,0.0109168887138366,0.0006657897029072,-0.0011984214652329,0.0001331579405814
1.772640131116774e+18,2.89077392578125,-0.0609121322631835,-0.0113734081387519,0.0014115758240222,-0.0003994738217443,0.0006657897029072,-0.0003994738217443
1.7726401311367636e+18,2.910763671875,-0.07049560546875,0.0076412074267864,0.0101483911275863,-0.0001331579405814,0.0003994738217443,0.0003994738217443
1.7726401311567537e+18,2.930753662109375,-0.0704946517944336,-0.0018714480102062,-0.0137673299759626,-0.0001331579405814,0.00093210558407,0.0003994738217443
1.7726401311967334e+18,2.9707333984375,-0.0519294738769531,0.0077914595603942,0.0108707379549741,0.0014647373463958,0.0014647373463958,-0.0001331579405814
1.7726401312167237e+18,2.9907236328125,-0.0519304275512695,0.0173181742429733,0.0060987137258052,-0.0011984214652329,-0.0003994738217443,0.0003994738217443
1.7726401312367137e+18,3.010713623046875,-0.07049560546875,0.0076912008225917,0.0109556056559085,-0.0006657897029072,0.0003994738217443,0.0006657897029072
1.772640131256704e+18,3.0307041015625,-0.0609121322631835,0.0030691958963871,0.0108656398952007,0.0006657897029072,-0.0011984214652329,0.0001331579405814
1.772640131276694e+18,3.050694091796875,-0.0609111785888671,0.003237560391426,0.0108268950134515,-0.0003994738217443,0.0001331579405814,-0.0003994738217443
1.7726401312966843e+18,3.070684326171875,-0.0471363067626953,-0.0061663277447223,0.001111228018999,-0.0001331579405814,0.0006657897029072,-0.0001331579405814
1.7726401313166743e+18,3.09067431640625,-0.0567188262939453,0.0082654394209384,0.0155979543924331,0.0001331579405814,0.0001331579405814,0.0001331579405814
1.7726401313366646e+18,3.11066455078125,-0.0519266128540039,0.0035903230309486,0.0060872063040733,0.0001331579405814,0.0003994738217443,0.0001331579405814
1.7726401313566546e+18,3.130654541015625,-0.0567188262939453,0.0033932402729988,0.0155214685946702,-0.00093210558407,-0.0003994738217443,0.00093210558407
1.7726401313766449e+18,3.150644775390625,-0.0800743103027343,-0.0014849454164505,0.0106921978294849,-0.00093210558407,-0.0001331579405814,-0.0001331579405814
1.772640131396635e+18,3.170634765625,-0.0752830505371093,0.0080503299832344,-0.013276694342494,-0.00093210558407,-0.0006657897029072,-0.0011984214652329
1.772640131416625e+18,3.190625,-0.0657014846801757,0.0082130953669548,0.0148266479372978,-0.0003994738217443,0.0006657897029072,0.0011984214652329
1.7726401314366152e+18,3.210615234375,-0.0657014846801757,-0.0014564134180545,0.0340294316411018,-0.0006657897029072,0.0003994738217443,0.0003994738217443
1.7726401314566054e+18,3.23060546875,-0.0800743103027343,0.0129170641303062,0.0243404526263475,0.00093210558407,-0.0006657897029072,0.00093210558407
1.7726401314765955e+18,3.250595458984375,-0.0609102249145507,0.0176509507000446,0.0002539902925491,0.0003994738217443,-0.0001331579405814,0.0006657897029072
1.7726401314965855e+18,3.27058544921875,-0.0657014846801757,-0.0017040893435478,0.0050132479518651,0.0001331579405814,-0.0001331579405814,-0.0019973691087216
1.7726401315165757e+18,3.29057568359375,-0.0704917907714843,-0.0110492259263992,0.0286464337259531,-0.00093210558407,-0.0001331579405814,0.0001331579405814
1.7726401315365658e+18,3.310565673828125,-0.0800743103027343,-0.0063400454819202,0.0047111753374338,0.0003994738217443,0.0003994738217443,-0.0001331579405814
1.772640131556556e+18,3.33055615234375,-0.0704917907714843,0.0128761157393455,-0.009573433548212,-0.0001331579405814,-0.0003994738217443,-0.0001331579405814
1.772640131576546e+18,3.350546142578125,-0.0609083175659179,-0.0012190081179141,0.0046623200178146,0.0001331579405814,-0.0006657897029072,0.0001331579405814
1.7726401315965363e+18,3.370536376953125,-0.0561170578002929,-0.0155583471059799,0.0140960030257701,0.00093210558407,-0.0001331579405814,0.0011984214652329
1.7726401316165263e+18,3.3905263671875,-0.0561170578002929,0.0085060559213161,0.0235186647623777,-0.0011984214652329,-0.0014647373463958,-0.0003994738217443
1.7726401316365166e+18,3.4105166015625,-0.0704898834228515,0.0228668674826622,0.0138929560780525,0.0003994738217443,0.0001331579405814,-0.0001331579405814
1.7726401316565066e+18,3.430506591796875,-0.0800714492797851,0.0083947703242301,0.0187386143952608,-0.0003994738217443,0.0003994738217443,-0.0003994738217443
1.772640131676497e+18,3.450496826171875,-0.0609054565429687,-0.0010658912360668,0.0040210895240306,-0.0014647373463958,-0.0006657897029072,-0.0001331579405814
1.772640131716478e+18,3.49047802734375,-0.0471324920654296,-0.0011837854981422,-0.0009321440011262,-0.0001331579405814,-0.0006657897029072,-0.0001331579405814
1.7726401317364687e+18,3.51046875,-0.0800695419311523,-0.001062698662281,0.0036182273179292,-0.0006657897029072,-0.0006657897029072,0.0001331579405814
1.7726401317564595e+18,3.53045947265625,-0.0704851150512695,0.0039479732513427,-0.0015104543417692,-0.0001331579405814,-0.0001331579405814,-0.0001331579405814
1.7726401317764503e+18,3.5504501953125,-0.0519208908081054,-0.000826459378004,-0.0055653527379035,0.0003994738217443,0.0003994738217443,-0.0001331579405814
1.772640131796441e+18,3.570441162109375,-0.0561122894287109,-0.0005491264164447,0.0135030169039964,-0.0006657897029072,-0.0017310532275587,0.0006657897029072
1.7726401318164319e+18,3.590431884765625,-0.0609016418457031,-0.0053708031773567,-0.0105711799114942,-0.0003994738217443,-0.00093210558407,0.0001331579405814
1.7726401318364227e+18,3.610422607421875,-0.0656938552856445,-0.0006163753569126,-0.0059573389589786,0.00093210558407,0.0001331579405814,-0.0003994738217443
1.7726401318764042e+18,3.650404296875,-0.0656938552856445,0.0183932967483997,0.0227262172847986,-0.0006657897029072,-0.0011984214652329,-0.0001331579405814
1.772640131896395e+18,3.67039501953125,-0.0423383712768554,0.0327919796109199,0.0083163809031248,-0.0011984214652329,-0.0017310532275587,0.00093210558407
1.772640131916386e+18,3.690385986328125,-0.0848550796508789,0.0188804194331169,0.0034420080482959,-0.0001331579405814,0.0006657897029072,0.0006657897029072
1.7726401319363768e+18,3.710376953125,-0.0656909942626953,0.0092501416802406,0.0320159532129764,-0.0014647373463958,-0.0003994738217443,0.0006657897029072
1.7726401319563676e+18,3.73036767578125,-0.0471258163452148,-0.0051009692251682,0.0129127334803342,0.0001331579405814,-0.0006657897029072,-0.0011984214652329
1.7726401319763584e+18,3.7503583984375,-0.0471258163452148,0.0092747472226619,0.0027528833597898,0.0001331579405814,-0.00093210558407,-0.00093210558407
1.77264013201634e+18,3.790340087890625,-0.0656900405883789,0.0094769299030303,0.0218759439885616,0.0006657897029072,-0.0001331579405814,0.0001331579405814
1.7726401320363308e+18,3.810330810546875,-0.0656881332397461,0.0145249515771865,-0.0214506294578313,-0.0003994738217443,-0.0001331579405814,0.0006657897029072
1.7726401320563215e+18,3.830321533203125,-0.0656881332397461,-0.0044613294303417,-0.0023117437958717,-0.0025300008710473,-0.0003994738217443,0.0003994738217443
1.7726401320963034e+18,3.870303466796875,-0.0471220016479492,0.0101369693875312,0.0022907927632331,0.0001331579405814,-0.0006657897029072,0.0011984214652329
1.7726401321162941e+18,3.890294189453125,-0.0752677917480468,-0.0088945999741554,0.0069416929036378,-0.0001331579405814,0.0003994738217443,-0.0001331579405814
1.772640132136285e+18,3.910284912109375,-0.0752677917480468,-0.0231683515012264,-0.0073959212750196,-0.0001331579405814,0.0001331579405814,-0.0006657897029072
1.7726401321562757e+18,3.930275634765625,-0.0608940124511718,-0.0135005712509155,-0.0027850586920976,-0.00093210558407,0.0003994738217443,-0.0003994738217443
1.7726401321762665e+18,3.9502666015625,-0.0519113540649414,0.0056709349155426,0.0026267170906066,-0.0014647373463958,-0.0011984214652329,-0.0003994738217443
1.7726401321962575e+18,3.970257568359375,-0.0704765319824218,0.0057304948568344,-0.0015384834259748,-0.00093210558407,-0.0001331579405814,-0.00093210558407
1.7726401322162499e+18,3.990249755859375,-0.0561046600341796,0.0007447153329849,-0.001459464430809,-0.00093210558407,0.0014647373463958,0.0003994738217443
1.7726401322362422e+18,4.0102421875,-0.0752677917480468,0.0103800371289253,-0.0011711921542882,-0.0006657897029072,-0.0006657897029072,0.00093210558407
1.7726401322562345e+18,4.030234375,-0.0656852722167968,-0.0039718858897686,-0.0013008117675781,-0.0003994738217443,0.0001331579405814,0.0001331579405814
1.7726401322762266e+18,4.0502265625,-0.0608949661254882,0.0247021503746509,0.0177060309797525,-0.0003994738217443,-0.00093210558407,-0.0001331579405814
1.7726401323162112e+18,4.090211181640625,-0.0519132614135742,0.0006589367985725,0.0038446802645921,-0.0001331579405814,0.0001331579405814,0.0003994738217443
1.7726401323561958e+18,4.13019580078125,-0.0656881332397461,0.0102428458631038,-0.0055861640721559,-0.0003994738217443,0.0001331579405814,-0.0003994738217443
1.7726401323761882e+18,4.150188232421875,-0.0800609588623046,0.0150279365479946,0.012985672801733,0.00093210558407,0.0003994738217443,-0.0003994738217443
1.7726401323961805e+18,4.170180419921875,-0.0752696990966796,0.0102375410497188,-0.006301037967205,-0.0003994738217443,0.0014647373463958,0.0003994738217443
1.7726401324161728e+18,4.1901728515625,-0.0752677917480468,-0.013525553047657,0.0030926670879125,-0.0001331579405814,-0.0006657897029072,0.0001331579405814
1.772640132436165e+18,4.2101650390625,-0.0519113540649414,0.0057493112981319,0.0080008022487163,0.0001331579405814,-0.0006657897029072,-0.0006657897029072
1.7726401324561572e+18,4.2301572265625,-0.0471200942993164,0.0010766685009002,0.0175828039646148,-0.0001331579405814,0.0014647373463958,0.0017310532275587
1.7726401324761495e+18,4.2501494140625,-0.060892105102539,-0.0082688778638839,0.0080144796520471,-0.0003994738217443,0.0001331579405814,-0.00093210558407
1.7726401324961418e+18,4.270141845703125,-0.0704765319824218,0.0060582496225833,0.008288474753499,-0.0001331579405814,0.0001331579405814,0.0003994738217443
1.7726401325161341e+18,4.290134033203125,-0.0608930587768554,0.0156846493482589,0.0033087376505136,-0.0001331579405814,-0.0006657897029072,-0.0003994738217443
1.7726401325361265e+18,4.31012646484375,-0.0608930587768554,-0.0034589990973472,-0.0110754780471324,-0.00093210558407,-0.00093210558407,0.0001331579405814
1.7726401325561188e+18,4.330118896484375,-0.0561027526855468,0.0110482722520828,-0.0109214764088392,-0.0006657897029072,0.0006657897029072,-0.00093210558407
1.772640132576111e+18,4.350111083984375,-0.042327880859375,0.0014370083808898,-0.0116180758923292,-0.0006657897029072,0.0001331579405814,0.0003994738217443
1.7726401325961034e+18,4.370103515625,-0.047119140625,-0.0177207291126251,-0.0019888747483491,-0.0011984214652329,0.0001331579405814,0.0001331579405814
1.7726401326160957e+18,4.390095703125,-0.0608940124511718,-0.0034285895526409,-0.0065212585031986,0.0001331579405814,0.0014647373463958,-0.0001331579405814
1.772640132636088e+18,4.410088134765625,-0.0423307418823242,-0.0083906352519989,-0.0206119902431964,-0.0003994738217443,-0.00093210558407,-0.0001331579405814
1.7726401326560804e+18,4.430080322265625,-0.0608959197998046,-0.008561473339796,0.0130511745810508,-0.0001331579405814,-0.0001331579405814,-0.0006657897029072
1.7726401326760724e+18,4.450072509765625,-0.060896873474121,-0.0038959346711635,0.0179094113409519,-0.0006657897029072,0.0007989476434886,-0.0002663158811628
1.7726401327160563e+18,4.490056396484375,-0.0561084747314453,-0.0041092224419116,-0.0009597670286893,0.0001331579405814,-0.0005326317623257,-0.0002663158811628
1.7726401327360479e+18,4.5100478515625,-0.0561084747314453,-0.0090177208185195,-0.0104833841323852,0.0001331579405814,0.0002663158811628,0.0
1.7726401327560394e+18,4.530039306640625,-0.0561094284057617,0.0052679032087326,0.0080592110753059,0.0003994738217443,0.0013315794058144,0.0002663158811628
1.772640132776031e+18,4.550031005859375,-0.0519170761108398,-0.0043341442942619,0.0085306875407695,0.00093210558407,0.0013315794058144,0.0002663158811628
1.772640132816014e+18,4.59001416015625,-0.0752725601196289,0.014602743089199,0.0127600468695163,0.00093210558407,0.0007989476434886,-0.0002663158811628
1.7726401328360056e+18,4.610005615234375,-0.0609006881713867,-0.0046848803758621,0.0033722501248121,0.0006657897029072,0.0005326317623257,0.0002663158811628
1.772640132855997e+18,4.629996826171875,-0.0752735137939453,-0.0142186768352985,-0.0059485025703907,0.0006657897029072,0.0018642111681401,-0.0002663158811628
1.7726401328759887e+18,4.64998876953125,-0.0752725601196289,0.009850725531578,0.0132892876863479,0.0003994738217443,-0.0002663158811628,-0.0007989476434886
1.7726401329159716e+18,4.6899716796875,-0.0609006881713867,-0.0045249350368976,0.0132100787013769,0.0006657897029072,0.0002663158811628,0.0002663158811628
1.7726401329359631e+18,4.709963134765625,-0.0608997344970703,0.0097465477883815,0.0129681471735239,0.0003994738217443,0.0,0.0002663158811628
1.7726401329559547e+18,4.72995458984375,-0.0656919479370117,0.0048755444586277,0.0176709406077861,0.0001331579405814,-0.0005326317623257,0.0005326317623257
1.7726401329759462e+18,4.7499462890625,-0.0471258163452148,0.0049449205398559,0.0086113680154085,0.00093210558407,-0.0007989476434886,-0.0002663158811628
1.7726401329959378e+18,4.769937744140625,-0.0561084747314453,0.0051708705723285,0.0230938307940959,0.0006657897029072,0.0010652635246515,0.0007989476434886
1.7726401330159293e+18,4.789929443359375,-0.0656900405883789,-0.0092142596840858,-0.0009746849536895,-0.0001331579405814,0.0013315794058144,0.0010652635246515
1.772640133035921e+18,4.8099208984375,-0.0608987808227539,0.0004443489015102,0.0182535480707883,-0.0006657897029072,0.0005326317623257,0.0007989476434886
1.7726401330559124e+18,4.829912353515625,-0.0608987808227539,0.0099311657249927,0.0187077913433313,-0.0006657897029072,0.0,-0.0010652635246515
1.772640133075904e+18,4.849904052734375,-0.0752716064453125,0.0051051490008831,0.0185629650950431,0.0003994738217443,-0.0007989476434886,0.0005326317623257
1.772640133115887e+18,4.88988720703125,-0.0656900405883789,0.0145644433796405,0.03277088701725,0.0003994738217443,-0.0005326317623257,0.0
1.7726401331358787e+18,4.909878662109375,-0.0561094284057617,-0.0094541236758232,0.0184615682810544,-0.0003994738217443,-0.0002663158811628,-0.0002663158811628
1.7726401331558702e+18,4.9298701171875,-0.0752725601196289,-0.009361021220684,0.0091675817966461,-0.0011984214652329,0.0007989476434886,0.0002663158811628
1.7726401331758618e+18,4.94986181640625,-0.0800647735595703,0.014334499835968,0.0271831844002008,0.0001331579405814,-0.0005326317623257,-0.0005326317623257
1.772640133195853e+18,4.96985302734375,-0.0561094284057617,0.0048737674951553,0.0222916882485151,-0.0003994738217443,0.0005326317623257,-0.0002663158811628
1.7726401332158438e+18,4.98984375,-0.0704813003540039,0.0048910789191722,0.0219316743314266,0.0003994738217443,-0.0005326317623257,0.0005326317623257
1.7726401332358344e+18,5.00983447265625,-0.0561094284057617,0.0049083493649959,0.0267725810408592,0.0001331579405814,-0.0005326317623257,0.0002663158811628
1.7726401332558252e+18,5.0298251953125,-0.0423355102539062,0.0048732087016105,0.026770019903779,0.0001331579405814,-0.0002663158811628,-0.0005326317623257
1.7726401332758157e+18,5.049815673828125,-0.0608997344970703,0.0048376023769378,0.0267656575888395,0.0003994738217443,0.0005326317623257,-0.0002663158811628
1.7726401333157972e+18,5.08979736328125,-0.0704822540283203,-0.0001473873853683,0.007338635623455,-0.0003994738217443,0.0015978952869772,0.0
1.7726401333357878e+18,5.109787841796875,-0.0608997344970703,0.0093393959105014,0.0169334784150123,0.0011984214652329,0.0005326317623257,0.0005326317623257
1.7726401333557786e+18,5.129778564453125,-0.0519170761108398,-6.10500574111e-05,0.0123710688203573,-0.0006657897029072,-0.0002663158811628,-0.0010652635246515
1.7726401333757693e+18,5.149769287109375,-0.0471258163452148,-0.0049224458634853,-0.0061404258012771,-0.0001331579405814,-0.0015978952869772,0.0002663158811628
1.7726401334157507e+18,5.189750732421875,-0.0561103820800781,-0.0049433261156082,0.0081908460706472,-0.0001331579405814,0.0005326317623257,0.0005326317623257
1.7726401334357412e+18,5.2097412109375,-0.0609016418457031,0.0044471062719821,0.0274011082947254,0.0001331579405814,0.0002663158811628,0.0002663158811628
1.772640133455732e+18,5.22973193359375,-0.051919937133789,-0.0004746839404106,0.0084208436310291,0.0001331579405814,0.0002663158811628,-0.0013315794058144
1.7726401334757228e+18,5.24972265625,-0.0609045028686523,0.0136389173567295,0.0134919695556163,0.0003994738217443,-0.0013315794058144,0.0
1.7726401334957133e+18,5.26971337890625,-0.0752773284912109,0.0183189325034618,0.0181365404278039,0.0003994738217443,0.0002663158811628,-0.0002663158811628
1.772640133515704e+18,5.2897041015625,-0.0561141967773437,0.003912080079317,0.0277116019278764,-0.00093210558407,0.0013315794058144,-0.0013315794058144
1.7726401335356946e+18,5.309694580078125,-0.0656957626342773,-0.0009039565920829,0.0133056007325649,0.0003994738217443,0.0002663158811628,0.0010652635246515
1.7726401335556854e+18,5.329685302734375,-0.0609045028686523,0.0086879134178161,-0.0009195562452077,0.0001331579405814,-0.0007989476434886,0.0
1.7726401335756762e+18,5.34967626953125,-0.0561151504516601,0.0182626694440841,-0.0061007663607597,0.00093210558407,0.0005326317623257,-0.0005326317623257
1.7726401335956667e+18,5.369666748046875,-0.0609073638916015,-0.0060218721628189,0.0177599396556615,0.0006657897029072,0.0010652635246515,-0.0005326317623257
1.7726401336156575e+18,5.389657470703125,-0.0752801895141601,-0.0014640241861343,0.0034228470176458,0.0011984214652329,0.0015978952869772,0.0005326317623257
1.7726401336356483e+18,5.409648193359375,-0.0752801895141601,-0.0111578106880187,0.0079272501170635,0.0003994738217443,-0.0005326317623257,0.0
1.7726401336556388e+18,5.429638671875,-0.0519256591796875,0.0079646594822406,-0.0160098876804113,0.0001331579405814,0.0002663158811628,-0.0005326317623257
1.7726401336756296e+18,5.449629638671875,-0.0656995773315429,-0.0065280050039291,0.0169393587857484,0.0001331579405814,0.0,0.0005326317623257
1.77264013369562e+18,5.4696201171875,-0.0519256591796875,-0.0208384059369564,0.0216812919825315,-0.0001331579405814,0.0007989476434886,-0.0002663158811628
1.7726401337156104e+18,5.4896103515625,-0.051924705505371,-0.0063767693936824,0.0023982301354408,-0.0001331579405814,0.0010652635246515,-0.0007989476434886
1.7726401337356006e+18,5.5096005859375,-0.0704898834228515,-0.0014533512294292,0.0074266027659177,0.0017310532275587,-0.0002663158811628,-0.0002663158811628
1.772640133755591e+18,5.5295908203125,-0.0704908370971679,0.0080348923802375,-0.0021620187908411,0.0011984214652329,0.0002663158811628,0.0
1.772640133775581e+18,5.549580810546875,-0.0519256591796875,0.0032633766531944,0.0032640825957059,0.0006657897029072,-0.0013315794058144,-0.0010652635246515
1.7726401337955712e+18,5.5695712890625,-0.0656986236572265,-0.0014476776123046,0.0128117036074399,0.0001331579405814,0.0,-0.0005326317623257
1.7726401338155615e+18,5.5895615234375,-0.047133445739746,0.0032579898834228,0.0175081584602594,0.0006657897029072,0.0002663158811628,-0.0002663158811628
1.7726401338355517e+18,5.6095517578125,-0.047133445739746,-0.0015571452677249,0.0173618458211421,-0.0001331579405814,0.0,0.0
1.772640133855542e+18,5.6295419921875,-0.0609073638916015,-0.0016331821680068,0.0075471550226211,-0.0003994738217443,-0.0005326317623257,-0.0002663158811628
1.7726401338755323e+18,5.6495322265625,-0.047133445739746,0.0032293945550918,-0.0067711565643548,-0.0006657897029072,0.0013315794058144,0.0
1.7726401338955223e+18,5.669522216796875,-0.0656986236572265,-0.0015335977077484,0.0028990674763917,0.0003994738217443,0.0,-0.0002663158811628
1.7726401339155126e+18,5.6895126953125,-0.0609092712402343,-0.0019225291907787,-0.001846607774496,-0.0001331579405814,0.0002663158811628,0.0002663158811628
1.7726401339355028e+18,5.7095029296875,-0.0375518798828125,0.0030443929135799,0.0171704553067684,-0.0003994738217443,0.0,-0.0007989476434886
1.772640133955493e+18,5.7294931640625,-0.0609073638916015,-0.0162206590175628,0.0217022709548473,0.0003994738217443,-0.0002663158811628,-0.0002663158811628
1.7726401339754834e+18,5.7494833984375,-0.0752782821655273,-0.006399393081665,-0.0068104732781648,0.0001331579405814,-0.0005326317623257,0.0
1.7726401339954737e+18,5.7694736328125,-0.0561161041259765,0.012668278068304,-0.0020764004439115,0.0003994738217443,-0.0010652635246515,0.0002663158811628
1.772640134015464e+18,5.7894638671875,-0.0561170578002929,0.0125651396811008,0.0077406987547874,-0.0003994738217443,0.0002663158811628,0.0002663158811628
1.772640134035454e+18,5.809453857421875,-0.051924705505371,-0.0114475935697555,-0.0065781604498624,-0.0001331579405814,0.0005326317623257,-0.0005326317623257
1.7726401340554442e+18,5.8294443359375,-0.0704898834228515,-0.0065139941871166,-0.0018451903015375,0.0019973691087216,0.0002663158811628,0.0
1.7726401340754345e+18,5.8494345703125,-0.0752792358398437,0.0125993750989437,0.0364036411046981,-0.00093210558407,-0.0005326317623257,-0.0005326317623257
1.7726401340954248e+18,5.8694248046875,-0.047133445739746,-0.0019536353647708,0.0219789184629917,0.0006657897029072,-0.0010652635246515,0.0002663158811628
1.772640134115415e+18,5.8894150390625,-0.0471315383911132,-0.0112282782793045,0.0075288452208042,-0.0011984214652329,-0.0007989476434886,0.0002663158811628
1.772640134135405e+18,5.909405029296875,-0.0561141967773437,-0.0015140809118747,0.0169631913304328,0.0003994738217443,-0.0013315794058144,-0.0010652635246515
1.7726401341553953e+18,5.929395263671875,-0.0561141967773437,0.0080776959657669,0.0215460769832134,0.0003994738217443,0.0013315794058144,-0.0013315794058144
1.7726401341753856e+18,5.949385498046875,-0.0609054565429687,-0.0111960917711257,0.0108922757208347,0.0003994738217443,0.0002663158811628,-0.0002663158811628
1.7726401341953759e+18,5.9693759765625,-0.0519227981567382,0.0079259164631366,0.015643635764718,-0.0006657897029072,-0.0002663158811628,0.0013315794058144
1.772640134235357e+18,6.00935693359375,-0.0561141967773437,-0.0015997290611267,-0.0085712056607007,0.0001331579405814,0.0,0.0
1.7726401342553472e+18,6.02934716796875,-0.0519218444824218,0.0128260441124439,0.0202819965779781,0.00093210558407,0.0,-0.0002663158811628
1.7726401342953283e+18,6.069328369140625,-0.0519218444824218,0.0032908245921134,0.0097550768405199,-0.0014647373463958,-0.0002663158811628,-0.0005326317623257
1.7726401343153188e+18,6.08931884765625,-0.0561132431030273,0.0034467913210392,0.0149757154285907,-0.0006657897029072,-0.0005326317623257,-0.0007989476434886
1.7726401343552996e+18,6.129299560546875,-0.0656938552856445,0.0089718215167522,-0.0138188432902097,-0.0001331579405814,-0.0007989476434886,-0.0002663158811628
1.77264013437529e+18,6.1492900390625,-0.0423383712768554,0.0083624348044395,-0.0074373800307512,0.0006657897029072,0.0007989476434886,0.0002663158811628
1.7726401343952806e+18,6.16928076171875,-0.0656957626342773,-0.0061487443745136,-0.0024956930428743,0.0001331579405814,0.0,0.0005326317623257
1.7726401344352617e+18,6.20926171875,-0.0423383712768554,-0.0011232197284698,0.0024382825940847,-0.0001331579405814,-0.0010652635246515,-0.0010652635246515
1.772640134455252e+18,6.229251953125,-0.0519208908081054,-0.0011153370141983,0.0032278429716825,-0.0003994738217443,0.0007989476434886,0.0
1.7726401344752425e+18,6.249242431640625,-0.0561122894287109,-0.0010033994913101,0.0079385470598936,0.0001331579405814,-0.0007989476434886,-0.0002663158811628
1.772640134495233e+18,6.26923291015625,-0.0423383712768554,-0.0057253874838352,0.0080672353506088,-0.0007989476434886,0.0023968429304659,0.0001331579405814
1.7726401345352138e+18,6.3092138671875,-0.0519189834594726,-0.0009187832474708,0.0126810483634471,-0.0005326317623257,0.0005326317623257,0.00093210558407
1.7726401345552044e+18,6.329204345703125,-0.056711196899414,-0.0058493092656135,0.0079141836613416,0.0,-0.0010652635246515,-0.0001331579405814
1.772640134575195e+18,6.34919482421875,-0.042337417602539,0.00378293171525,0.0165912806987762,0.0007989476434886,0.0007989476434886,0.00093210558407
1.7726401345951854e+18,6.369185302734375,-0.0656929016113281,0.0086147747933864,-0.0218614730983972,-0.0002663158811628,0.0007989476434886,0.0001331579405814
1.7726401346151757e+18,6.38917578125,-0.0471277236938476,0.0039783306419849,-0.0071204807609319,0.0,0.0010652635246515,-0.0003994738217443
1.7726401346351662e+18,6.409166259765625,-0.0656929016113281,-0.0008050501346588,0.0264559872448444,-0.0005326317623257,-0.0002663158811628,-0.00093210558407
1.7726401346551567e+18,6.42915673828125,-0.0609006881713867,-0.0198191665112972,0.0024316180497407,-0.0002663158811628,0.0007989476434886,-0.0006657897029072
1.7726401346751473e+18,6.449147216796875,-0.0519180297851562,0.0041858293116092,0.0025726966559886,0.0,0.0002663158811628,0.0003994738217443
1.7726401346951378e+18,6.4691376953125,-0.0609016418457031,0.0042874552309513,-0.0067985579371452,0.0007989476434886,0.0002663158811628,-0.00093210558407
1.7726401347151283e+18,6.48912841796875,-0.0656909942626953,-0.0195693485438823,0.0076522957533597,-0.0002663158811628,-0.0013315794058144,-0.0003994738217443
1.772640134755109e+18,6.529109130859375,-0.0561094284057617,-0.0049554370343685,0.0221185218542814,-0.0002663158811628,-0.0007989476434886,-0.0003994738217443
1.7726401347750996e+18,6.549099609375,-0.0561084747314453,0.0095085948705673,0.0263502486050128,-0.0007989476434886,0.0018642111681401,-0.0001331579405814
1.7726401347950902e+18,6.569090087890625,-0.0423345565795898,0.0047658234834671,0.0167225301265716,0.0,0.0005326317623257,-0.0001331579405814
1.7726401348150807e+18,6.589080810546875,-0.0656900405883789,0.0047100819647312,0.0305273216217756,-0.0005326317623257,-0.0002663158811628,-0.00093210558407
1.7726401348350712e+18,6.6090712890625,-0.0561094284057617,-0.0001269578933715,0.0160577837377786,-0.0002663158811628,0.0007989476434886,0.0011984214652329
1.7726401348550618e+18,6.629061767578125,-0.0561084747314453,-0.004745353013277,0.0114935431629419,-0.0005326317623257,0.0010652635246515,-0.0003994738217443
1.772640134875052e+18,6.649052001953125,-0.0519161224365234,-0.0095629282295703,0.0210213009268045,-0.0002663158811628,0.0005326317623257,0.0006657897029072
1.7726401348950426e+18,6.66904248046875,-0.0471248626708984,0.009535152465105,0.0066237580031156,0.0002663158811628,-0.0002663158811628,0.0011984214652329
1.7726401349350236e+18,6.709023681640625,-0.0704822540283203,0.0045904777944087,0.0018155574798583,-0.0005326317623257,0.0005326317623257,0.0001331579405814
1.7726401349550141e+18,6.72901416015625,-0.0656909942626953,-0.0049754120409488,-0.0028251446783542,-0.0002663158811628,0.0,-0.0003994738217443
1.7726401349750047e+18,6.749004638671875,-0.0375442504882812,-0.0001267157495021,0.0071194246411323,0.0002663158811628,0.0005326317623257,0.0001331579405814
1.7726401349949952e+18,6.7689951171875,-0.0423355102539062,0.0045042149722576,0.0023646615445613,0.0002663158811628,-0.0002663158811628,-0.0001331579405814
1.7726401350149857e+18,6.78898583984375,-0.0561103820800781,-0.0003326050937175,0.007986843585968,-0.0007989476434886,0.0013315794058144,0.0006657897029072
1.7726401350349763e+18,6.808976318359375,-0.0471277236938476,0.0044547766447067,0.0176768582314252,0.0002663158811628,0.0,0.0003994738217443
1.7726401350549668e+18,6.828966796875,-0.0471258163452148,0.0047641322016716,0.0033899694681167,0.0002663158811628,0.0,0.0003994738217443
1.772640135074957e+18,6.84895703125,-0.0375452041625976,0.0095406211912631,-0.0011498481035232,0.0002663158811628,0.0,0.0003994738217443
1.7726401350949476e+18,6.868947509765625,-0.0423355102539062,0.0001730099320411,0.0228501372039318,0.0005326317623257,0.0002663158811628,0.0001331579405814
1.772640135114938e+18,6.888938232421875,-0.0519161224365234,-0.0092268846929073,0.0181145835667848,0.0,0.0007989476434886,-0.0006657897029072
1.7726401351349286e+18,6.9089287109375,-0.0471248626708984,0.0051933526992797,0.0132846571505069,-0.0002663158811628,-0.0010652635246515,-0.0011984214652329
1.7726401351549192e+18,6.928919189453125,-0.0561075210571289,0.0197917073965072,0.0086205806583166,0.0007989476434886,0.0002663158811628,0.0003994738217443
1.7726401351749097e+18,6.94890966796875,-0.0656890869140625,0.024536807090044,0.0182041618973016,0.0002663158811628,0.0013315794058144,-0.0006657897029072
1.7726401351949002e+18,6.968900146484375,-0.0561084747314453,0.0148768238723278,0.0087998863309621,0.0,0.0007989476434886,-0.0003994738217443
1.7726401352148915e+18,6.9888916015625,-0.0752716064453125,-0.0043237879872322,0.0040413327515125,-0.0015978952869772,0.0005326317623257,0.0001331579405814
1.772640135234883e+18,7.008883056640625,-0.0561084747314453,0.01003398001194,0.0041258763521909,0.0,0.0013315794058144,-0.00093210558407
1.7726401352548744e+18,7.028874267578125,-0.0423345565795898,0.0006651394069194,0.0089380256831645,-0.0010652635246515,0.0005326317623257,-0.0001331579405814
1.772640135274866e+18,7.048865966796875,-0.0561065673828125,0.0055027641355991,0.0087515898048877,-0.0007989476434886,0.0005326317623257,0.0003994738217443
1.7726401352948572e+18,7.068857177734375,-0.0704793930053711,0.000820804387331,0.0088260099291801,-0.0002663158811628,0.0,0.0003994738217443
1.7726401353148485e+18,7.0888486328125,-0.0656881332397461,-0.0039557181298732,0.0087955333292484,-0.0013315794058144,0.0007989476434886,-0.0001331579405814
1.77264013533484e+18,7.108840087890625,-0.0704803466796875,-0.0088263414800167,0.0040361639112234,0.0,0.0002663158811628,-0.0006657897029072
1.7726401353548314e+18,7.128831298828125,-0.060896873474121,0.0008641555905342,-0.0153155494481325,0.0002663158811628,0.0010652635246515,-0.0011984214652329
1.7726401353748227e+18,7.14882275390625,-0.0519142150878906,-0.0087452270090579,0.0176256522536277,0.0002663158811628,0.0002663158811628,0.0003994738217443
1.7726401353948142e+18,7.168814208984375,-0.060896873474121,-0.0136066563427448,0.0080182217061519,0.0,0.0005326317623257,0.0003994738217443
1.7726401354148055e+18,7.188805419921875,-0.0608978271484375,0.0053961798548698,-0.0061992667615413,-0.0010652635246515,0.0002663158811628,-0.0006657897029072
1.772640135434797e+18,7.208797119140625,-0.051915168762207,0.0054943934082984,0.0081957932561635,-0.0002663158811628,-0.0007989476434886,0.0003994738217443
1.7726401354547884e+18,7.228788330078125,-0.0519142150878906,0.0104252584278583,0.0082702673971652,-0.0005326317623257,0.0005326317623257,0.0003994738217443
1.7726401354747796e+18,7.248779541015625,-0.0608978271484375,0.0102521181106567,0.0034593474119901,0.0,0.0,-0.0001331579405814
1.7726401354947712e+18,7.268771240234375,-0.051915168762207,0.0294109806418418,0.0175747126340866,0.0005326317623257,0.0002663158811628,-0.0003994738217443
1.7726401355147625e+18,7.288762451171875,-0.0561075210571289,0.0150636658072471,-0.0111586358398199,-0.0005326317623257,-0.0010652635246515,-0.0001331579405814
1.772640135534754e+18,7.308754150390625,-0.0471220016479492,0.0008513554930686,0.0079239066690206,0.0002663158811628,0.0002663158811628,0.0003994738217443
1.7726401355547453e+18,7.328745361328125,-0.042332649230957,0.0054795108735561,-0.006550895050168,0.0005326317623257,0.0,0.0003994738217443
1.772640135574737e+18,7.34873681640625,-0.0608959197998046,0.0056820437312126,-0.0161616615951061,0.0007989476434886,0.0007989476434886,-0.0001331579405814
1.7726401355947282e+18,7.368728271484375,-0.0656862258911132,0.0106124952435493,0.0076078735291957,-0.0005326317623257,0.0002663158811628,-0.00093210558407
1.7726401356147195e+18,7.388719482421875,-0.0656862258911132,0.0010862499475479,-0.0115430615842342,-0.0007989476434886,0.0005326317623257,-0.0006657897029072
1.772640135634711e+18,7.4087109375,-0.0423297882080078,0.0155359283089637,-0.0115806739777326,0.0007989476434886,0.0,-0.00093210558407
1.7726401356547023e+18,7.428702392578125,-0.0656862258911132,0.0154562331736087,-0.0163468532264232,-0.0002663158811628,-0.0010652635246515,0.00093210558407
1.772640135674694e+18,7.44869384765625,-0.0608940124511718,0.0108044892549514,-0.0115939509123563,-0.0002663158811628,0.0,-0.0001331579405814
1.7726401356946852e+18,7.468685302734375,-0.047119140625,0.0061103105545043,0.0074893198907375,-0.0007989476434886,-0.0002663158811628,-0.0003994738217443
1.7726401357146752e+18,7.48867529296875,-0.0471200942993164,0.005998533219099,0.0026286784559488,0.0007989476434886,-0.0005326317623257,-0.0001331579405814
1.7726401357346655e+18,7.50866552734375,-0.0561027526855468,-0.0130780301988124,0.0168491080403327,-0.0010652635246515,-0.0002663158811628,-0.0001331579405814
1.7726401357546557e+18,7.52865576171875,-0.042327880859375,-0.012939453125,0.0071872342377901,-0.0007989476434886,-0.0007989476434886,-0.0003994738217443
1.772640135774646e+18,7.54864599609375,-0.056100845336914,0.0206623747944831,0.0030818246304988,-0.0002663158811628,0.0,-0.0006657897029072
1.7726401357946363e+18,7.56863623046875,-0.0561017990112304,0.0062289051711559,0.0125186219811439,-0.0005326317623257,-0.0002663158811628,0.00093210558407
1.7726401358146266e+18,7.58862646484375,-0.0752649307250976,-0.0034436732530593,0.0124270357191562,0.0002663158811628,0.0,0.0006657897029072
1.7726401358346168e+18,7.608616943359375,-0.065683364868164,0.0013502314686775,0.01781752333045,-0.0007989476434886,-0.0002663158811628,0.0003994738217443
1.772640135854607e+18,7.628607177734375,-0.056100845336914,0.0062381774187088,0.0129350032657384,-0.0005326317623257,-0.0002663158811628,-0.0003994738217443
1.7726401358745974e+18,7.648597412109375,-0.056100845336914,0.0160518437623977,-0.0061738509684801,0.0005326317623257,-0.0002663158811628,-0.0001331579405814
1.7726401358945876e+18,7.668587646484375,-0.0375347137451171,0.0114502124488353,-0.0011306293308734,-0.0002663158811628,-0.0005326317623257,0.0006657897029072
1.772640135914578e+18,7.688577880859375,-0.0656795501708984,-0.0073775351047515,-0.0011393427848815,-0.0005326317623257,-0.0002663158811628,-0.0003994738217443
1.7726401359345682e+18,7.708568115234375,-0.0656776428222656,0.0120270550251007,0.0130370315164327,-0.0005326317623257,0.0005326317623257,0.0006657897029072
1.7726401359545585e+18,7.728558349609375,-0.0327405929565429,0.0120583102107048,-0.0010312832891941,0.0002663158811628,-0.0005326317623257,-0.0014647373463958
1.7726401359745487e+18,7.748548828125,-0.060887336730957,0.0023724362254142,0.0032977815717458,0.0005326317623257,-0.0002663158811628,-0.0001331579405814
1.772640135994539e+18,7.7685390625,-0.0752601623535156,0.0022690668702125,0.0214893668889999,0.0,0.0002663158811628,-0.0003994738217443
1.7726401360145293e+18,7.788529296875,-0.0608863830566406,-0.0071860402822494,0.0071414522826671,-0.0005326317623257,-0.0002663158811628,0.00093210558407
1.7726401360345196e+18,7.80851953125,-0.065678596496582,0.0119047500193119,-0.002499122172594,-0.0013315794058144,0.0002663158811628,0.0006657897029072
1.7726401360545098e+18,7.828509765625,-0.060887336730957,0.0069223381578922,0.0070946253836154,-0.0010652635246515,0.0013315794058144,0.0001331579405814
1.7726401360745e+18,7.8485,-0.060887336730957,0.0118000954389572,-0.0027766451239585,-0.0015978952869772,0.0,0.0003994738217443
1.7726401360944904e+18,7.868490478515625,-0.070469856262207,0.0164589323103427,-0.0027516670525074,-0.0013315794058144,-0.0007989476434886,0.00093210558407
1.7726401361144806e+18,7.888480712890625,-0.0560970306396484,-0.0120939277112483,0.0163929276168346,-0.0002663158811628,0.0015978952869772,0.0003994738217443
1.772640136134471e+18,7.908470947265625,-0.0560970306396484,0.0021785721182823,0.0068657416850328,0.0005326317623257,0.0007989476434886,-0.0006657897029072
1.7726401361544612e+18,7.928461181640625,-0.056096076965332,-0.0024934113025665,0.0020878314971923,0.0005326317623257,-0.0015978952869772,-0.0001331579405814
1.7726401361744515e+18,7.948451416015625,-0.0752592086791992,0.0024576447904109,0.0027500763535499,-0.0005326317623257,0.0002663158811628,0.0003994738217443
1.7726401361944417e+18,7.968441650390625,-0.060887336730957,0.0071882158517837,0.0030723474919795,0.0002663158811628,-0.0002663158811628,-0.0003994738217443
1.772640136234425e+18,8.008425048828125,-0.0608892440795898,0.006767988204956,0.0079265665262937,0.0010652635246515,0.0001331579405814,-0.0011984214652329
1.7726401362544166e+18,8.028416748046874,-0.0560989379882812,-0.0124110989272594,0.0221096184104681,-0.0005326317623257,-0.0014647373463958,0.0003994738217443
1.7726401362744082e+18,8.048408203125,-0.0560989379882812,0.0067463256418704,-0.0016666632145643,0.0005326317623257,0.0001331579405814,0.0014647373463958
1.7726401362944e+18,8.06839990234375,-0.0519065856933593,0.0115198120474815,0.0077065378427505,-0.0007989476434886,0.0001331579405814,0.0003994738217443
1.7726401363143916e+18,8.0883916015625,-0.0560998916625976,-0.0030466690659523,0.0075490418821573,0.0005326317623257,0.0003994738217443,0.0006657897029072
1.7726401363343834e+18,8.10838330078125,-0.0327425003051757,0.0066327229142189,0.0026643592864274,-0.0005326317623257,0.0001331579405814,0.0003994738217443
1.772640136354375e+18,8.128375,-0.0375337600708007,0.0018462315201759,0.0219003930687904,-0.0007989476434886,0.0003994738217443,0.0001331579405814
1.7726401363743665e+18,8.148366455078126,-0.0519084930419921,0.0207102037966251,0.0219200979918241,0.0002663158811628,0.0017310532275587,-0.0014647373463958
1.7726401363943583e+18,8.168358154296875,-0.0656824111938476,0.0159959085285663,0.0075475573539733,0.0010652635246515,0.0003994738217443,0.0003994738217443
1.7726401364343414e+18,8.20834130859375,-0.0375356674194335,-0.0033036135137081,0.0172527804970741,0.0002663158811628,-0.0006657897029072,-0.0001331579405814
1.7726401364543332e+18,8.228333251953124,-0.0519084930419921,0.0206647887825965,0.012659853324294,0.0,0.00093210558407,0.0006657897029072
1.7726401364743247e+18,8.24832470703125,-0.0561017990112304,0.0348612293601036,0.0036853067576885,0.0,-0.00093210558407,0.0003994738217443
1.7726401364943165e+18,8.268316650390625,-0.060892105102539,0.0204497650265693,0.0132016707211732,0.0010652635246515,-0.0006657897029072,-0.00093210558407
1.7726401365342996e+18,8.308299560546875,-0.0519094467163085,0.011035855859518,0.0035943668335676,-0.0005326317623257,-0.0003994738217443,-0.0006657897029072
1.7726401365542915e+18,8.32829150390625,-0.0608911514282226,0.0160075090825557,-0.0154635962098836,0.0,0.0006657897029072,0.0003994738217443
1.772640136574283e+18,8.348282958984376,-0.056100845336914,0.0017958357930183,0.0074500869959592,0.0013315794058144,0.0003994738217443,0.0003994738217443
1.7726401365942748e+18,8.36827490234375,-0.0519075393676757,-0.0077073089778423,-0.0165534224361181,-0.0005326317623257,0.0001331579405814,0.0003994738217443
1.7726401366142664e+18,8.388266357421875,-0.0608911514282226,0.0162704288959503,-0.0163937974721193,0.0007989476434886,0.0003994738217443,0.0001331579405814
1.7726401366542497e+18,8.428249755859374,-0.0519075393676757,0.0018318369984626,-0.0117640793323516,-0.0002663158811628,0.0011984214652329,0.00093210558407
1.7726401366742413e+18,8.4482412109375,-0.0560998916625976,0.0115524493157863,0.0122324042022228,0.0005326317623257,0.0001331579405814,-0.0003994738217443
1.7726401366942328e+18,8.46823291015625,-0.0471162796020507,0.0067020691931247,-0.0116259716451168,0.0,-0.0001331579405814,-0.0001331579405814
1.7726401367142228e+18,8.488222900390625,-0.0423250198364257,0.0020717903971672,-0.007009407505393,0.0002663158811628,-0.0003994738217443,0.0001331579405814
1.7726401367342129e+18,8.508212890625,-0.0560989379882812,-0.0075880959630012,-0.0021960455924272,-0.0010652635246515,0.0003994738217443,0.0003994738217443
1.772640136754203e+18,8.528202880859375,-0.0608892440795898,-0.01234120875597,0.0065801590681076,-0.0007989476434886,0.00093210558407,-0.0001331579405814
1.7726401367741932e+18,8.548193115234374,-0.0279521942138671,0.001983143389225,0.0028409510850906,-0.0002663158811628,-0.0003994738217443,-0.0001331579405814
1.772640136794183e+18,8.568182861328125,-0.0423250198364257,0.0018831342458724,0.0076320804655551,-0.0002663158811628,0.0006657897029072,-0.0003994738217443
1.7726401368141732e+18,8.588173095703125,-0.0471162796020507,0.0160177648067474,0.0123063903301954,-0.0005326317623257,-0.0003994738217443,-0.0014647373463958
1.7726401368341632e+18,8.6081630859375,-0.0656814575195312,0.0112091526389122,-0.0020965822041034,-0.0007989476434886,0.0003994738217443,0.0006657897029072
1.7726401368541532e+18,8.6281533203125,-0.0519084930419921,0.0063073858618736,0.0172003637999296,0.0002663158811628,0.0003994738217443,-0.0003994738217443
1.7726401368741432e+18,8.648143310546875,-0.056100845336914,0.0110286436975002,0.012449188157916,-0.0007989476434886,-0.00093210558407,0.0006657897029072
1.7726401368941332e+18,8.66813330078125,-0.0423269271850585,0.0014520548284053,0.0033194832503795,0.0005326317623257,0.0001331579405814,-0.0001331579405814
1.7726401369141233e+18,8.688123291015625,-0.0519094467163085,0.0206167362630367,-0.0060830321162939,0.0,-0.00093210558407,0.0001331579405814
1.7726401369541033e+18,8.728103271484375,-0.060892105102539,-0.0032531172037124,0.0133450049906969,0.0002663158811628,-0.0006657897029072,-0.0001331579405814
1.7726401369740936e+18,8.748093505859375,-0.0375375747680664,0.0109457112848758,0.008110174909234,0.0005326317623257,0.0001331579405814,0.0006657897029072
1.7726401369940836e+18,8.76808349609375,-0.0519113540649414,0.0203832387924194,0.0128875169903039,0.0010652635246515,-0.0003994738217443,-0.0006657897029072
1.7726401370140736e+18,8.788073486328125,-0.047119140625,-0.0035548247396945,0.0080938134342432,0.0,-0.0001331579405814,-0.0001331579405814
1.7726401370340636e+18,8.808063720703124,-0.0519113540649414,0.0059699453413486,0.0082496516406536,0.0005326317623257,0.00093210558407,-0.0003994738217443
1.7726401370540536e+18,8.8280537109375,-0.0423288345336914,-0.0034903548657894,0.0032601226121187,0.0002663158811628,0.0003994738217443,-0.0003994738217443
1.7726401370740436e+18,8.848043701171875,-0.0519113540649414,0.005929373204708,0.0177124496549367,0.0,-0.0006657897029072,0.0003994738217443
1.7726401370940337e+18,8.86803369140625,-0.0471200942993164,0.0108594335615634,0.0128032397478818,0.0002663158811628,0.0003994738217443,-0.0003994738217443
1.7726401371140237e+18,8.888023681640625,-0.0561037063598632,0.01068577170372,-0.0160437896847724,0.0002663158811628,0.00093210558407,0.0001331579405814
1.7726401371340137e+18,8.908013671875,-0.051910400390625,0.0011622756719589,0.007701663300395,0.0007989476434886,0.00093210558407,0.0001331579405814
1.7726401371540037e+18,8.928003662109376,-0.0423288345336914,-0.0036630555987358,0.0172608643770217,0.0005326317623257,0.0001331579405814,-0.0003994738217443
1.772640137173994e+18,8.947993896484375,-0.051910400390625,0.0011337175965309,0.003599701449275,0.0,0.0001331579405814,-0.00093210558407
1.772640137213975e+18,8.98797509765625,-0.0519094467163085,0.0013523884117603,-0.006100071594119,0.0002663158811628,0.00093210558407,0.0014647373463958
1.7726401372339663e+18,9.00796630859375,-0.042327880859375,0.0156965218484401,-0.0012876652181148,-0.0005326317623257,-0.00093210558407,0.0006657897029072
1.7726401372539576e+18,9.02795751953125,-0.0519094467163085,0.0203945599496364,0.0033031683415174,0.0007989476434886,0.0006657897029072,-0.0001331579405814
1.7726401372739487e+18,9.04794873046875,-0.060892105102539,0.0107429325580596,-0.0016241315752267,-0.0007989476434886,-0.0003994738217443,-0.0006657897029072
1.77264013729394e+18,9.06793994140625,-0.0519094467163085,0.0011148713529109,0.017462819814682,0.0007989476434886,-0.0006657897029072,-0.0003994738217443
1.772640137313931e+18,9.087930908203123,-0.0704755783081054,-0.013321254402399,-0.0016273893415927,-0.0002663158811628,-0.00093210558407,0.0006657897029072
1.7726401373339223e+18,9.10792236328125,-0.0704755783081054,0.001005932688713,0.0079526882618665,0.0002663158811628,0.0001331579405814,0.0011984214652329
1.7726401373539133e+18,9.127913330078124,-0.05670166015625,0.0106232874095439,0.0032759942114353,0.0,0.0006657897029072,-0.0003994738217443
1.7726401373739046e+18,9.147904541015626,-0.051910400390625,-0.0037835501134395,0.0217543225735425,0.0005326317623257,-0.0003994738217443,-0.0003994738217443
1.772640137393896e+18,9.16789599609375,-0.0519094467163085,0.0012224614620208,0.0023940503597259,0.0,0.0001331579405814,0.00093210558407
1.7726401374338783e+18,9.207878173828124,-0.070474624633789,-0.0132491551339626,0.0166506096720695,0.0002663158811628,-0.00093210558407,-0.0006657897029072
1.7726401374538696e+18,9.22786962890625,-0.0519084930419921,0.0011822991073131,0.0166287403553724,0.0002663158811628,-0.0006657897029072,-0.00093210558407
1.7726401374738606e+18,9.247860595703123,-0.0608911514282226,0.0298119895160198,0.0067863520234823,0.0002663158811628,-0.0001331579405814,0.0001331579405814
1.772640137493852e+18,9.267851806640625,-0.065683364868164,0.0152541883289814,-0.0125383678823709,0.0005326317623257,0.0003994738217443,0.0001331579405814
1.772640137513843e+18,9.287843017578124,-0.065683364868164,-0.0135542564094066,-0.00298454426229,0.0002663158811628,0.0001331579405814,0.0001331579405814
1.7726401375538253e+18,9.3278251953125,-0.032745361328125,0.0054546557366847,0.0011727474629878,-0.0002663158811628,0.0006657897029072,0.0003994738217443
1.7726401375738166e+18,9.347816650390625,-0.0656843185424804,0.0149566903710365,-0.0023450758308172,0.0002663158811628,-0.0001331579405814,0.00093210558407
1.772640137613799e+18,9.387798828125,-0.047119140625,0.0007779709994792,-0.0020673051476478,-0.0010652635246515,-0.00093210558407,0.00093210558407
1.7726401376337902e+18,9.407790283203123,-0.0608949661254882,-0.0043071508407592,-0.006876703351736,0.0010652635246515,0.0001331579405814,-0.0006657897029072
1.7726401376537812e+18,9.42778125,-0.0471200942993164,-0.0090155601501464,-0.0022204797714948,-0.0002663158811628,0.0001331579405814,0.0011984214652329
1.7726401376737725e+18,9.4477724609375,-0.0471200942993164,-0.018543753772974,0.0027369540184736,0.0002663158811628,-0.0011984214652329,-0.0001331579405814
1.7726401376937636e+18,9.467763671875,-0.0567026138305664,-0.0040995329618453,-0.0013815574347972,0.0007989476434886,-0.00093210558407,0.0001331579405814
1.7726401377137539e+18,9.48775390625,-0.0375375747680664,-0.0040284842252731,0.0079381000250577,0.0005326317623257,-0.0001331579405814,-0.0003994738217443
1.7726401377337439e+18,9.507743896484374,-0.0519094467163085,0.0104839317500591,-0.0255706813186407,0.0005326317623257,0.0003994738217443,-0.0003994738217443
1.772640137753734e+18,9.52773388671875,-0.047119140625,0.015141561627388,0.0080152489244937,0.0002663158811628,0.0003994738217443,0.0001331579405814
1.772640137773724e+18,9.547723876953125,-0.0375385284423828,0.0007232725620269,0.0212080143392086,-0.0002663158811628,0.0011984214652329,0.0011984214652329
1.7726401377937142e+18,9.567714111328126,-0.0471200942993164,0.0053978413343429,0.0166443511843681,-0.0005326317623257,0.0001331579405814,-0.0006657897029072
1.7726401378137042e+18,9.5877041015625,-0.0471200942993164,0.0200090929865837,0.0167341064661741,0.0015978952869772,-0.0001331579405814,-0.0003994738217443
1.7726401378336942e+18,9.607694091796876,-0.0561046600341796,0.0053792186081409,0.0069950129836797,-0.0002663158811628,-0.0006657897029072,-0.00093210558407
1.7726401378536845e+18,9.6276845703125,-0.0608949661254882,-0.0042786262929439,0.0118267107754945,0.0,0.00093210558407,-0.00093210558407
1.7726401378736745e+18,9.647674560546877,-0.0561046600341796,0.0004244670271873,0.0021523088216781,-0.0002663158811628,0.0003994738217443,0.0006657897029072
1.7726401378936645e+18,9.66766455078125,-0.0519123077392578,0.0003368854522705,-0.0027709100395441,-0.0002663158811628,-0.0011984214652329,0.00093210558407
1.7726401379136548e+18,9.68765478515625,-0.0471210479736328,0.0001971386373043,0.0019279103726148,-0.0007989476434886,-0.0001331579405814,-0.0001331579405814
1.7726401379336448e+18,9.707644775390625,-0.042332649230957,0.0001094192266464,-0.0027354732155799,0.0005326317623257,0.0003994738217443,-0.0006657897029072
1.7726401379536348e+18,9.727634765625,-0.0423307418823242,-0.0046528950333595,0.0011049285531044,0.0002663158811628,0.0003994738217443,0.0001331579405814
1.772640137973625e+18,9.747625,-0.060896873474121,0.0144399292767047,0.0020280871540308,0.0005326317623257,0.0011984214652329,-0.0014647373463958
1.772640137993615e+18,9.767614990234376,-0.0561065673828125,0.0047591291368007,0.0020918902009725,-0.0014647373463958,0.00093210558407,0.0006657897029072
1.772640138013605e+18,9.787605224609376,-0.0561065673828125,-0.00479356944561,-0.0027800723910331,0.0011984214652329,-0.0006657897029072,-0.0003994738217443
1.7726401380535854e+18,9.82758544921875,-0.0519142150878906,0.014265701174736,-0.0028923228383064,0.0003994738217443,0.0003994738217443,0.0006657897029072
1.7726401380735754e+18,9.847575439453124,-0.0471229553222656,-8.97645950317e-05,0.0161955226212739,0.0003994738217443,-0.0003994738217443,0.0001331579405814
1.7726401380935654e+18,9.8675654296875,-0.0561065673828125,0.0094861015677452,0.0111329369246959,0.0003994738217443,-0.0006657897029072,0.0003994738217443
1.7726401381135557e+18,9.8875556640625,-0.0423316955566406,-0.0096362195909023,-0.0032145772129297,0.0006657897029072,-0.0003994738217443,-0.0001331579405814
1.7726401381335457e+18,9.907545654296875,-0.0471229553222656,0.0046380199491977,-0.008020594716072,0.0003994738217443,0.0006657897029072,-0.00093210558407
1.772640138173526e+18,9.947526123046876,-0.060896873474121,0.0092096738517284,0.0114162731915712,-0.0001331579405814,-0.0017310532275587,-0.0006657897029072
1.772640138193516e+18,9.96751611328125,-0.0608987808227539,-0.0006141327321529,0.0161317605525255,0.0001331579405814,0.0017310532275587,-0.0011984214652329
1.7726401382135066e+18,9.987506591796874,-0.0561065673828125,-0.0004914216697216,0.0064453165978193,0.0003994738217443,0.0003994738217443,-0.0003994738217443
1.772640138233497e+18,10.0074970703125,-0.0752696990966796,-0.0006288960576057,-0.0080473627895116,-0.0001331579405814,-0.0003994738217443,-0.0006657897029072
1.7726401382534876e+18,10.027487548828123,-0.0704793930053711,-0.0151024274528026,-0.0034910794347524,0.0001331579405814,-0.0001331579405814,0.0001331579405814
1.7726401382734781e+18,10.04747802734375,-0.0561075210571289,0.0039647296071052,0.0108199119567871,-0.0001331579405814,-0.0001331579405814,-0.0006657897029072
1.7726401382934687e+18,10.06746875,-0.0561065673828125,-0.0054815560579299,0.0014078915119171,-0.0001331579405814,-0.0011984214652329,0.0001331579405814
1.7726401383134592e+18,10.087459228515623,-0.060896873474121,-0.0054502710700035,-0.0032534375786781,-0.0001331579405814,0.0001331579405814,0.0001331579405814
1.7726401383534403e+18,10.127440185546876,-0.0608997344970703,0.0037694945931434,-0.0029024612158536,0.0003994738217443,-0.0001331579405814,-0.0001331579405814
1.7726401383734308e+18,10.1474306640625,-0.0471258163452148,0.0038294717669487,0.010861238464713,0.0003994738217443,-0.0003994738217443,0.0001331579405814
1.7726401383934213e+18,10.16742138671875,-0.0471258163452148,0.0085642747581005,0.0107472669333219,0.0011984214652329,-0.0001331579405814,0.0001331579405814
1.7726401384134118e+18,10.187411865234376,-0.0608997344970703,-0.0058280564844608,0.006115524098277,-0.0006657897029072,-0.0003994738217443,-0.0011984214652329
1.772640138453393e+18,10.227392822265625,-0.0471258163452148,0.008537121117115,-0.0129838529974222,0.0006657897029072,-0.0006657897029072,-0.0003994738217443
1.7726401384733834e+18,10.247383544921876,-0.0519189834594726,-0.0155698545277118,0.0063373986631631,0.0006657897029072,-0.0011984214652329,0.0006657897029072
1.772640138493374e+18,10.2673740234375,-0.0609016418457031,0.0083812735974788,0.0204665381461381,0.0003994738217443,-0.0001331579405814,0.0003994738217443
1.7726401385133645e+18,10.287364501953125,-0.0519189834594726,0.0034424997866153,0.0011603645980358,-0.0006657897029072,0.00093210558407,-0.0003994738217443
1.772640138533355e+18,10.30735498046875,-0.0519189834594726,-0.0060539059340953,-0.0035513527691364,-0.0001331579405814,0.0006657897029072,-0.0001331579405814
1.7726401385533458e+18,10.327345703125,-0.0656929016113281,0.0227039270102977,0.0198753271251916,0.0017310532275587,0.0011984214652329,0.0001331579405814
1.7726401385733363e+18,10.34733642578125,-0.0656919479370117,-0.0011783652007579,0.0113740414381027,-0.0003994738217443,0.0001331579405814,-0.0001331579405814
1.7726401385933268e+18,10.367326904296876,-0.0704822540283203,-0.0058327168226242,0.0161921773105859,0.0001331579405814,-0.0003994738217443,0.0003994738217443
1.7726401386133174e+18,10.3873173828125,-0.0561103820800781,0.0084837712347507,0.0068186614662408,0.0001331579405814,0.00093210558407,0.00093210558407
1.772640138633308e+18,10.407307861328125,-0.0608997344970703,0.0038574859499931,0.0066104251891374,-0.0003994738217443,-0.0001331579405814,0.0001331579405814
1.772640138673289e+18,10.4472890625,-0.0471277236938476,-0.0111681446433067,0.0204543843865394,0.00093210558407,0.00093210558407,-0.0003994738217443
1.7726401386932795e+18,10.467279541015625,-0.0561122894287109,-0.0017728582024574,0.0110186301171779,-0.0001331579405814,-0.00093210558407,-0.0001331579405814
1.7726401387132713e+18,10.487271240234374,-0.051919937133789,0.0030799321830272,0.0013979524374008,0.0006657897029072,-0.0006657897029072,0.0001331579405814
1.7726401387332634e+18,10.507263427734374,-0.042337417602539,0.0176343880593776,-0.0080935321748256,-0.0003994738217443,0.0003994738217443,0.00093210558407
1.7726401387532552e+18,10.527255126953126,-0.0375452041625976,0.0033745504915714,0.0109027232974767,-0.0003994738217443,0.0006657897029072,-0.0003994738217443
1.7726401387732472e+18,10.547247314453124,-0.0609006881713867,0.0130972787737846,0.0056720301508903,-0.0003994738217443,-0.0003994738217443,-0.00093210558407
1.772640138793239e+18,10.567239013671877,-0.0561094284057617,0.0130813680589199,0.0101407002657651,-0.0006657897029072,0.0003994738217443,-0.00093210558407
1.772640138813231e+18,10.587231201171877,-0.0519170761108398,-0.0059976913034915,0.0006780587136745,0.0001331579405814,0.0011984214652329,-0.0003994738217443
1.772640138833223e+18,10.607222900390624,-0.0327529907226562,-0.0012386851012706,0.0149252898991107,-0.00093210558407,-0.00093210558407,0.0003994738217443
1.772640138853215e+18,10.627215087890624,-0.0519170761108398,0.0036125928163528,0.0054506696760654,0.0011984214652329,-0.00093210558407,-0.0003994738217443
1.772640138873207e+18,10.64720703125,-0.0519170761108398,-0.0013139694929122,0.0006234105676412,0.0022636849898844,-0.0011984214652329,-0.0001331579405814
1.7726401388931988e+18,10.66719873046875,-0.0375442504882812,0.0130956619977951,0.0053149051964282,0.00093210558407,0.00093210558407,0.0003994738217443
1.772640138913191e+18,10.68719091796875,-0.0519180297851562,0.0033657550811767,-0.0040309708565473,-0.0011984214652329,0.0003994738217443,0.0003994738217443
1.7726401389331827e+18,10.7071826171875,-0.0561122894287109,0.0127239860594272,0.0058149248361587,-0.0006657897029072,-0.0006657897029072,-0.0003994738217443
1.7726401389531748e+18,10.7271748046875,-0.0327577590942382,-0.0066669136285781,0.0061813611537218,-0.00093210558407,0.00093210558407,-0.0001331579405814
1.7726401389731666e+18,10.74716650390625,-0.0327577590942382,0.0028722733259201,0.0070398095995187,-0.0001331579405814,-0.0014647373463958,-0.0001331579405814
1.7726401389931587e+18,10.76715869140625,-0.0519208908081054,0.0029867552220821,0.016440276056528,-0.0003994738217443,0.0006657897029072,-0.0006657897029072
1.7726401390131505e+18,10.787150390625,-0.037546157836914,-0.0016260296106338,-0.0033246092498302,0.0001331579405814,-0.0003994738217443,-0.0003994738217443
1.7726401390331425e+18,10.807142578125,-0.0519142150878906,0.0036951713263988,0.0053205229341983,-0.0003994738217443,0.0006657897029072,-0.0003994738217443
1.7726401390531346e+18,10.827134521484377,-0.0608949661254882,0.0040159001946449,0.0146207846701145,0.0006657897029072,-0.0001331579405814,0.0003994738217443
,,,,,-0.0003994738217443,-0.0003994738217443,0.0014647373463958
,,,,,0.0006657897029072,0.0011984214652329,-0.0003994738217443
,,,,,0.00093210558407,0.0014647373463958,0.0006657897029072
,,,,,0.0011984214652329,0.0019973691087216,-0.0006657897029072
,,,,,0.0001331579405814,0.0014647373463958,-0.00093210558407
,,,,,-0.0006657897029072,-0.0006657897029072,0.0003994738217443
,,,,,-0.00093210558407,-0.0030626326333731,-0.0001331579405814
,,,,,-0.0027963167522102,-0.004660528153181,-0.0001331579405814
,,,,,-0.0017310532275587,-0.0011984214652329,0.0001331579405814
