time,seconds_elapsed,accel_z,accel_y,accel_x,gyro_x,gyro_y,gyro_z
1.7726402305912174e+18,0.318217529296875,-0.047102928161621,-0.0019142031669616,0.0123938210308551,-0.0003994738217443,-0.0003994738217443,-0.0005326317623257
1.7726402306112067e+18,0.33820654296875,-0.0375223159790039,0.007365696132183,0.0122753754258155,0.0006657897029072,0.0003994738217443,-0.0002663158811628
1.772640230631196e+18,0.35819580078125,-0.0566864013671875,0.002533346414566,-0.0212755836546421,-0.0006657897029072,0.00093210558407,0.0007989476434886
1.7726402306711747e+18,0.398174560546875,-0.0566864013671875,-0.0166089423000812,0.0068406425416469,-0.0002663158811628,-0.0001331579405814,-0.0002663158811628
1.772640230691164e+18,0.418163818359375,-0.0471038818359375,-0.0072247572243213,-0.0125462189316749,0.0010652635246515,-0.0011984214652329,0.0
1.772640230711155e+18,0.438155029296875,-0.0656700134277343,0.0068975202739238,0.0018641725182533,-0.0002663158811628,0.0001331579405814,0.0010652635246515
1.7726402307311465e+18,0.458146484375,-0.0704622268676757,0.0212797261774539,-0.0124186724424362,-0.0002663158811628,-0.00093210558407,-0.0002663158811628
1.7726402307511378e+18,0.4781376953125,-0.0471067428588867,0.0163413919508457,-0.0075903497636318,0.0002663158811628,0.0001331579405814,0.0
1.772640230771129e+18,0.498129150390625,-0.0423173904418945,-0.0077589824795722,-0.0122388526797294,0.0015978952869772,-0.0001331579405814,0.0013315794058144
1.7726402307911204e+18,0.518120361328125,-0.0608816146850585,-0.003113392740488,-0.0032177008688449,0.0,-0.0006657897029072,0.0002663158811628
1.7726402308111117e+18,0.538111572265625,-0.0518980026245117,-0.0077890120446681,-0.01312742754817,0.0002663158811628,0.0001331579405814,-0.0005326317623257
1.7726402308311032e+18,0.558103271484375,-0.0518989562988281,-0.0032472983002662,-0.0179825834929943,0.0,-0.0011984214652329,-0.0005326317623257
1.7726402308510945e+18,0.578094482421875,-0.0704631805419921,-0.0128688588738441,-0.0276280306279659,0.0015978952869772,-0.0006657897029072,0.0005326317623257
1.7726402308710858e+18,0.5980859375,-0.0608797073364257,-0.0126474648714065,-0.003140665590763,0.0010652635246515,0.0006657897029072,-0.0002663158811628
1.772640230891077e+18,0.6180771484375,-0.0704631805419921,-0.0126350335776805,-0.0029460601508617,0.0005326317623257,0.0003994738217443,0.0002663158811628
1.7726402309110687e+18,0.638068603515625,-0.0566892623901367,0.0065909028053283,-0.0119946561753749,0.0010652635246515,0.00093210558407,-0.0002663158811628
1.77264023093106e+18,0.65806005859375,-0.0471057891845703,0.0019663795828819,0.0018154643476009,0.0,-0.0001331579405814,-0.0005326317623257
1.7726402309510513e+18,0.67805126953125,-0.0471057891845703,-0.0172364450991153,-0.0120238922536373,0.0005326317623257,-0.0003994738217443,0.0
1.7726402309710426e+18,0.69804248046875,-0.0231504440307617,-0.0314895436167717,0.0022290274500846,0.0002663158811628,-0.0014647373463958,0.0005326317623257
1.7726402309910339e+18,0.718033935546875,-0.0608787536621093,-0.01231300085783,-0.0072621740400791,0.0005326317623257,0.0001331579405814,0.0005326317623257
1.7726402310110254e+18,0.738025390625,-0.0656709671020507,-0.0076144784688949,-0.0071191899478435,-0.0002663158811628,-0.0011984214652329,0.0007989476434886
1.7726402310310167e+18,0.7580166015625,-0.0704622268676757,0.0019773133099079,-0.0215560495853424,-0.0002663158811628,-0.0001331579405814,0.0005326317623257
1.772640231051008e+18,0.778008056640625,-0.0656700134277343,0.0068818554282188,-0.0025116354227066,-0.0002663158811628,0.00093210558407,0.0005326317623257
1.7726402310709993e+18,0.797999267578125,-0.0656681060791015,-0.0074266083538532,-0.0033336654305458,-0.0005326317623257,-0.0006657897029072,-0.0010652635246515
1.7726402310909906e+18,0.817990478515625,-0.0656671524047851,0.0118500553071498,-0.0083467774093151,0.0,0.0001331579405814,-0.0007989476434886
1.7726402311109821e+18,0.837982177734375,-0.042311668395996,0.0122234895825386,0.0062705688178539,0.0,-0.0006657897029072,0.0002663158811628
1.7726402311309734e+18,0.857973388671875,-0.0608758926391601,-0.0118748359382152,0.0015163570642471,-0.0007989476434886,0.0001331579405814,0.0
1.7726402311509647e+18,0.87796484375,-0.0656681060791015,-0.0070704817771911,-0.0079727880656719,0.0,0.0006657897029072,-0.0005326317623257
1.772640231170956e+18,0.8979560546875,-0.0608758926391601,0.0025736466050148,-0.003248456865549,0.0005326317623257,0.0001331579405814,0.0
1.7726402311909476e+18,0.917947509765625,-0.0518932342529296,0.0170059278607368,0.0205827541649341,-0.0002663158811628,-0.0003994738217443,-0.0007989476434886
1.7726402312109386e+18,0.937938720703125,-0.0518932342529296,0.0169082023203372,-0.0082278698682785,-0.0007989476434886,-0.0019973691087216,0.0002663158811628
1.77264023123093e+18,0.957929931640625,-0.0566844940185546,0.0118640139698982,0.0107618533074855,0.0002663158811628,-0.0006657897029072,-0.0005326317623257
1.772640231250921e+18,0.9779208984375,-0.0471019744873046,-0.0216558575630188,0.0203761905431747,-0.0013315794058144,0.0003994738217443,0.0
1.7726402312709123e+18,0.997912353515625,-0.0375185012817382,-0.0119553171098232,0.0153574720025062,-0.0010652635246515,0.0003994738217443,-0.0005326317623257
1.7726402312909033e+18,1.0179033203125,-0.0518913269042968,-0.0119410380721092,0.0010218545794487,0.0002663158811628,0.00093210558407,0.0007989476434886
1.7726402313108946e+18,1.03789453125,-0.0566816329956054,0.0121771432459354,-0.0039402805268764,0.0005326317623257,-0.00093210558407,0.0007989476434886
1.772640231330886e+18,1.057885986328125,-0.0608730316162109,0.0168692283332347,0.0055203735828399,0.0,0.0001331579405814,0.0002663158811628
1.772640231350877e+18,1.077876953125,-0.0608739852905273,0.0168231911957263,0.0102417841553688,-0.0005326317623257,-0.00093210558407,0.0005326317623257
1.7726402313708682e+18,1.0978681640625,-0.0704565048217773,0.0072494484484195,-0.013671938329935,0.0007989476434886,-0.0003994738217443,-0.0002663158811628
1.7726402313908593e+18,1.117859375,-0.051889419555664,-0.0021124556660652,-0.0185768157243728,0.0010652635246515,-0.0001331579405814,0.0002663158811628
1.7726402314108506e+18,1.1378505859375,-0.032724380493164,0.0122664049267768,0.0052037388086318,0.0002663158811628,-0.0014647373463958,0.0010652635246515
1.7726402314308419e+18,1.157841796875,-0.0608701705932617,-0.0068324729800224,0.0049777366220951,-0.0002663158811628,0.0001331579405814,-0.0002663158811628
1.772640231450833e+18,1.1778330078125,-0.0656614303588867,0.0122851505875587,0.0001188293099403,-0.0007989476434886,-0.0006657897029072,-0.0005326317623257
1.7726402314708242e+18,1.19782421875,-0.0566787719726562,0.0170284658670425,0.0095777586102485,-0.0002663158811628,-0.0006657897029072,-0.0002663158811628
1.7726402314908152e+18,1.217815185546875,-0.0470972061157226,-0.0070172995328903,-0.0047558695077896,0.0002663158811628,-0.0011984214652329,0.0005326317623257
1.7726402315108065e+18,1.237806640625,-0.0518865585327148,-0.0068993493914604,0.0041064918041229,0.0002663158811628,0.0006657897029072,0.0002663158811628
1.7726402315307978e+18,1.2577978515625,-0.0470943450927734,0.0026921406388282,-0.0009081475436687,0.0002663158811628,-0.0001331579405814,-0.0005326317623257
1.7726402315507889e+18,1.277788818359375,-0.0518856048583984,0.0027540959417819,-0.0153945237398147,-0.0013315794058144,-0.0011984214652329,-0.0013315794058144
1.7726402315707802e+18,1.2977802734375,-0.0470943450927734,0.002763245254755,-0.0056693591177463,-0.0002663158811628,-0.00093210558407,-0.0002663158811628
1.7726402315907712e+18,1.317771240234375,-0.0656595230102539,0.0172437578439712,-0.0105242654681205,0.0,-0.0011984214652329,-0.0010652635246515
1.7726402316107625e+18,1.337762451171875,-0.037510871887207,-0.0113306753337383,0.0036744959652423,0.0005326317623257,0.0001331579405814,0.0002663158811628
1.7726402316307538e+18,1.35775390625,-0.0470914840698242,-0.0017892606556415,0.0034494586288928,0.0002663158811628,-0.0003994738217443,0.0
1.7726402316507448e+18,1.377744873046875,-0.0375099182128906,-0.0016731396317481,-0.0061444975435733,0.0005326317623257,0.0003994738217443,0.0
1.7726402316707361e+18,1.397736083984375,-0.0470905303955078,-0.0111353956162929,-0.0056630969047546,-0.0010652635246515,-0.00093210558407,0.0002663158811628
1.7726402316907272e+18,1.41772705078125,-0.0656566619873046,-0.0063824579119682,-0.0007815733551979,0.0005326317623257,-0.0025300008710473,-0.0005326317623257
1.7726402317107182e+18,1.43771826171875,-0.0608634948730468,-0.0015277750790119,-0.0153192542493343,-0.0007989476434886,0.0014647373463958,-0.0005326317623257
1.7726402317307092e+18,1.457709228515625,-0.0656557083129882,-0.0065662339329719,0.013196375221014,0.0,-0.0006657897029072,-0.0007989476434886
1.7726402317507003e+18,1.4777001953125,-0.0518808364868164,-0.0016592405736446,0.003493420779705,-0.0007989476434886,-0.0003994738217443,-0.0015978952869772
1.7726402317706913e+18,1.49769140625,-0.0608634948730468,-0.0017520412802696,0.0128976218402385,0.0002663158811628,-0.00093210558407,-0.0002663158811628
1.772640231790682e+18,1.51768212890625,-0.0800275802612304,-0.0017923451960086,0.0080358237028121,-0.0005326317623257,-0.0003994738217443,0.0007989476434886
1.7726402318106732e+18,1.537673095703125,-0.0656538009643554,0.0077446028590202,0.0079649798572063,-0.0007989476434886,-0.00093210558407,-0.0002663158811628
1.7726402318306642e+18,1.557664306640625,-0.0608625411987304,-0.0064585208892822,-0.0255231149494647,-0.0005326317623257,-0.0001331579405814,0.0
1.7726402318506552e+18,1.5776552734375,-0.0566692352294921,0.0033410675823688,-0.0064759254455566,0.0005326317623257,-0.0001331579405814,0.0005326317623257
1.772640231870646e+18,1.59764599609375,-0.0752334594726562,0.0082427784800529,-0.0065403208136558,0.0005326317623257,-0.0011984214652329,-0.0002663158811628
1.772640231890637e+18,1.617636962890625,-0.0566673278808593,0.0085107311606407,-0.0064992234110832,0.0007989476434886,-0.0014647373463958,0.0005326317623257
1.772640231910628e+18,1.637628173828125,-0.0470848083496093,-0.0012691803276538,0.0076450444757938,-0.0007989476434886,-0.00093210558407,-0.0010652635246515
1.7726402319306191e+18,1.657619140625,-0.0566663742065429,0.0037397034466266,0.0028378441929817,0.0007989476434886,-0.0001331579405814,0.0002663158811628
1.7726402319506102e+18,1.677610107421875,-0.0566663742065429,-0.0009356290102005,-0.0014731585979461,0.0005326317623257,-0.0003994738217443,0.0005326317623257
1.772640231970601e+18,1.69760107421875,-0.0566654205322265,0.0087043941020965,-0.0063281096518039,-0.0007989476434886,0.0003994738217443,-0.0005326317623257
1.772640231990592e+18,1.717592041015625,-0.0704383850097656,0.0039741396903991,0.0079728439450263,-0.0005326317623257,-0.00093210558407,-0.0010652635246515
1.772640232010583e+18,1.7375830078125,-0.0608558654785156,0.008718617260456,0.0079009197652339,-0.0002663158811628,-0.0003994738217443,-0.0005326317623257
1.772640232030574e+18,1.757573974609375,-0.0375003814697265,-0.0103758871555328,0.0175106413662433,-0.0010652635246515,0.0001331579405814,0.0002663158811628
1.772640232050565e+18,1.777565185546875,-0.0608558654785156,-0.0104106292128562,0.0032260827720165,-0.0007989476434886,-0.0001331579405814,-0.0010652635246515
1.772640232070556e+18,1.797555908203125,-0.0470809936523437,0.0088114887475967,0.0024024434387683,0.0007989476434886,-0.0011984214652329,0.0005326317623257
1.772640232090547e+18,1.817546875,-0.0470809936523437,-0.0006537660956382,-0.007241141051054,-0.0015978952869772,-0.0003994738217443,0.0002663158811628
1.772640232110538e+18,1.8375380859375,-0.0752277374267578,0.01340838894248,0.002219695597887,-0.0002663158811628,-0.0001331579405814,-0.0005326317623257
1.772640232130529e+18,1.857529052734375,-0.0518703460693359,0.0040947534143924,0.0115691907703876,0.0002663158811628,-0.0001331579405814,-0.0005326317623257
1.7726402321505198e+18,1.877519775390625,-0.0518703460693359,-0.0007889047265052,0.0018671713769435,-0.0005326317623257,-0.0014647373463958,0.0
1.7726402321705108e+18,1.8975107421875,-0.0704345703125,-0.0103018395602703,-0.0030421204864978,-0.0002663158811628,0.0001331579405814,0.0
1.772640232190502e+18,1.917501953125,-0.065643310546875,0.0088664665818214,-0.0078441277146339,0.0007989476434886,0.0001331579405814,0.0005326317623257
1.7726402322104924e+18,1.937492431640625,-0.0518693923950195,-0.0007557310163974,-0.0030654482543468,-0.0002663158811628,0.0001331579405814,0.0002663158811628
1.7726402322304827e+18,1.957482666015625,-0.075225830078125,-0.0102674514055252,-0.0170762129127979,-0.0002663158811628,-0.00093210558407,0.0010652635246515
1.772640232250473e+18,1.977472900390625,-0.0470800399780273,-0.0103018805384635,-0.0169753730297088,0.0007989476434886,-0.0003994738217443,0.0010652635246515
1.7726402322704635e+18,1.99746337890625,-0.0608549118041992,-0.0152943171560764,-0.0026096738874912,-0.0002663158811628,-0.0014647373463958,-0.0007989476434886
1.7726402322904538e+18,2.017453857421875,-0.0518722534179687,0.008548691868782,-0.0076118446886539,0.0005326317623257,-0.0006657897029072,-0.0002663158811628
1.7726402323104443e+18,2.0374443359375,-0.0704364776611328,-0.0057167671620845,0.0019620135426521,-0.0005326317623257,0.0001331579405814,-0.0013315794058144
1.7726402323304346e+18,2.0574345703125,-0.0704374313354492,-0.0152902863919734,0.0158213600516319,-0.0005326317623257,-0.0003994738217443,0.0002663158811628
1.772640232350425e+18,2.077425048828125,-0.0656461715698242,-0.0008671209216117,0.0014909766614437,0.0005326317623257,-0.0001331579405814,0.0002663158811628
1.7726402323704154e+18,2.097415283203125,-0.0704364776611328,-0.0007638595998287,-0.0032531209290027,-0.0002663158811628,0.0022636849898844,0.0005326317623257
1.772640232390406e+18,2.117406005859375,-0.0566635131835937,0.0328000485897064,-0.0030497387051582,0.0005326317623257,0.0007989476434886,-0.0007989476434886
1.7726402324103962e+18,2.137396240234375,-0.0566625595092773,0.0233563147485256,-0.0078427530825138,0.0007989476434886,-0.0018642111681401,0.0002663158811628
1.7726402324303864e+18,2.157386474609375,-0.0566625595092773,-0.0052831061184406,-0.003005314618349,0.0,0.0,0.0015978952869772
1.772640232450377e+18,2.177376953125,-0.0566625595092773,0.0091333538293838,0.0066681914031505,0.0,0.0002663158811628,0.0007989476434886
1.7726402324703672e+18,2.1973671875,-0.0608530044555664,0.0092294551432132,0.0114954300224781,0.0,0.0005326317623257,0.0
1.7726402324903578e+18,2.217357666015625,-0.0566616058349609,-0.0098255202174186,0.0211046338081359,-0.0002663158811628,0.0005326317623257,-0.0002663158811628
1.772640232510348e+18,2.23734814453125,-0.0422878265380859,-0.0095595866441726,-0.007591538131237,-0.0005326317623257,0.0005326317623257,0.0005326317623257
1.7726402325303386e+18,2.257338623046875,-0.0422887802124023,0.0095421783626079,0.0118679478764534,-0.0002663158811628,0.0002663158811628,0.0005326317623257
1.7726402325503288e+18,2.277328857421875,-0.0704374313354492,0.0045889057219028,0.0024326182901859,-0.0013315794058144,-0.0005326317623257,0.0
1.772640232570319e+18,2.297319091796875,-0.0518703460693359,-0.0094652287662029,-0.0166217386722564,0.0,0.0013315794058144,0.0002663158811628
1.7726402325903096e+18,2.3173095703125,-0.0704364776611328,-0.0048296302556991,0.0023225992918014,-0.0002663158811628,0.0002663158811628,0.0005326317623257
1.7726402326103e+18,2.3372998046875,-0.0608530044555664,-0.0093016140162944,-0.0022652968764305,-0.0005326317623257,0.0005326317623257,0.0005326317623257
1.7726402326302904e+18,2.35729052734375,-0.0518703460693359,-0.0094010904431343,-0.0117942616343498,-0.0010652635246515,-0.0002663158811628,-0.0005326317623257
1.7726402326502807e+18,2.37728076171875,-0.0608530044555664,-0.0046085342764854,0.0074075832962989,-0.0005326317623257,0.0013315794058144,-0.0013315794058144
1.772640232670271e+18,2.39727099609375,-0.0704355239868164,0.005071997642517,0.0025545991957187,0.0002663158811628,0.0013315794058144,-0.0002663158811628
1.7726402326902615e+18,2.417261474609375,-0.065643310546875,0.0098522007465362,0.0023347958922386,-0.0007989476434886,0.0002663158811628,0.0002663158811628
1.7726402327102518e+18,2.437251708984375,-0.075225830078125,0.0097382068634033,0.0166341587901115,-0.0002663158811628,-0.0002663158811628,0.0002663158811628
1.772640232730242e+18,2.457241943359375,-0.08001708984375,0.0097800195217132,0.0215552262961864,0.0002663158811628,0.0,0.0
1.772640232750232e+18,2.477232177734375,-0.0704355239868164,0.0050867609679698,0.0217370316386222,-0.0010652635246515,0.0005326317623257,0.0
1.7726402327702223e+18,2.497222412109375,-0.0518684387207031,0.0244375430047512,0.0072988122701644,0.0007989476434886,0.0005326317623257,-0.0005326317623257
1.7726402327902126e+18,2.517212646484375,-0.0422868728637695,0.0101058781147003,0.012071032077074,-0.0007989476434886,0.0,0.0005326317623257
1.772640232810203e+18,2.537202880859375,-0.0608510971069335,-0.0092613324522972,0.0023217052221298,0.0002663158811628,-0.0005326317623257,-0.0005326317623257
1.7726402328301932e+18,2.557193115234375,-0.0608510971069335,0.0004218071699142,-0.0031268335878849,0.0,-0.0007989476434886,0.0
1.7726402328501832e+18,2.57718310546875,-0.0704345703125,0.0052063129842281,-0.0028711669147014,-0.0002663158811628,0.0010652635246515,0.0002663158811628
1.7726402328701734e+18,2.59717333984375,-0.0470781326293945,0.0099337138235569,0.0079450160264968,0.0,0.0005326317623257,0.0
1.7726402328901637e+18,2.617163818359375,-0.0704336166381836,0.0148138217628002,-0.0018002279102802,-0.0005326317623257,0.0002663158811628,0.0
1.772640232910154e+18,2.637154052734375,-0.0566596984863281,0.0100637227296829,0.0077662356197834,-0.0007989476434886,0.0,0.0007989476434886
1.7726402329301443e+18,2.657144287109375,-0.0470771789550781,0.0243081375956535,0.0125900730490684,0.0002663158811628,-0.0010652635246515,-0.0002663158811628
1.7726402329501343e+18,2.67713427734375,-0.0800161361694336,0.0050328560173511,-0.0162540264427661,0.0002663158811628,0.0,-0.0007989476434886
1.7726402329701245e+18,2.69712451171875,-0.0608530044555664,-0.0143287219107151,0.0027424059808254,-0.0002663158811628,0.0,-0.0007989476434886
1.7726402329901148e+18,2.71711474609375,-0.0470790863037109,-6.29611313343e-05,0.0028874613344669,0.0,0.0005326317623257,0.0
1.772640233010105e+18,2.73710498046875,-0.0608530044555664,0.009664487093687,-0.0019099451601505,0.0,0.0002663158811628,0.0002663158811628
1.7726402330300954e+18,2.757095458984375,-0.075225830078125,0.0001852326095104,-0.0017593801021575,0.0,0.0,0.0
1.7726402330500854e+18,2.77708544921875,-0.0800161361694336,0.0050212554633617,-0.0113392993807792,-0.0002663158811628,0.0,-0.0002663158811628
1.7726402330700756e+18,2.79707568359375,-0.0704364776611328,1.897290349e-05,-0.0023105442523956,0.0007989476434886,0.0,-0.0002663158811628
1.772640233090066e+18,2.81706591796875,-0.0608530044555664,0.009693905711174,-0.0214097201824188,0.0002663158811628,-0.0013315794058144,0.0
1.7726402331100562e+18,2.83705615234375,-0.0566606521606445,0.0052083805203437,0.0122102797031402,0.0010652635246515,0.0,-0.0007989476434886
1.7726402331300465e+18,2.85704638671875,-0.0800161361694336,0.0052544437348842,0.0074571818113327,-0.0010652635246515,0.0002663158811628,0.0
1.7726402331500365e+18,2.877036376953125,-0.0704336166381836,0.0294394381344318,0.0026555731892585,0.0,0.0010652635246515,0.0
1.7726402331700268e+18,2.89702685546875,-0.0656423568725586,0.0198879204690456,0.0122692510485649,-0.0005326317623257,0.0,-0.0002663158811628
1.772640233190017e+18,2.91701708984375,-0.0518684387207031,-0.0040648803114891,0.012353129684925,0.0005326317623257,0.0002663158811628,-0.0007989476434886
1.772640233210008e+18,2.937008056640625,-0.056060791015625,0.0054570287466049,-0.0117027424275875,0.0005326317623257,0.0007989476434886,0.0005326317623257
1.772640233229999e+18,2.9569990234375,-0.0656423568725586,0.0007679164409637,0.0123880878090858,-0.0007989476434886,0.0002663158811628,-0.0013315794058144
1.7726402332499904e+18,2.976990478515625,-0.0608501434326171,0.0009219907224178,0.0074772872030735,-0.0013315794058144,-0.0002663158811628,0.0002663158811628
1.7726402332699817e+18,2.996981689453125,-0.0518674850463867,0.0057573392987251,-0.0019016675651073,-0.0005326317623257,0.0002663158811628,0.0007989476434886
1.7726402332899727e+18,3.01697265625,-0.0752229690551757,0.0060114115476608,0.0078741759061813,-0.0010652635246515,0.0002663158811628,0.0
1.772640233309964e+18,3.036964111328125,-0.0656414031982421,0.0013219192624092,0.0128528736531734,0.0,0.0002663158811628,0.0010652635246515
1.772640233329955e+18,3.056955078125,-0.0518684387207031,-0.0131438709795475,-0.0014224834740161,0.0005326317623257,0.0002663158811628,-0.0005326317623257
1.7726402333499464e+18,3.0769462890625,-0.0608501434326171,0.006063912063837,0.0177145786583423,-0.0002663158811628,-0.0002663158811628,-0.0002663158811628
1.7726402333699374e+18,3.0969375,-0.0800142288208007,0.0157837569713592,0.0081678330898284,-0.0013315794058144,0.0002663158811628,0.0005326317623257
1.7726402333899287e+18,3.1169287109375,-0.0518665313720703,-0.0032214485108852,-0.0062579661607742,0.0,0.0005326317623257,0.0
1.77264023340992e+18,3.136919921875,-0.0800142288208007,0.0013572201132774,-0.0063117034733295,-0.0007989476434886,0.0010652635246515,0.0010652635246515
1.772640233429911e+18,3.1569111328125,-0.0656414031982421,0.0014057382941246,0.0176153741776943,-0.0013315794058144,0.0010652635246515,0.0013315794058144
1.7726402334499023e+18,3.17690234375,-0.0608482360839843,-0.0080647505819797,0.0031787827610969,0.0005326317623257,0.0002663158811628,0.0002663158811628
1.7726402334698934e+18,3.196893310546875,-0.0518665313720703,0.00156657025218,0.0026745237410068,0.0,0.0007989476434886,-0.0005326317623257
1.7726402334898847e+18,3.216884765625,-0.0560579299926757,0.0064526125788688,-0.0021747648715972,-0.0005326317623257,0.0,0.0002663158811628
1.7726402335098757e+18,3.236875732421875,-0.0656385421752929,0.0161725506186485,-0.0213734358549118,-0.0005326317623257,0.0002663158811628,0.0005326317623257
1.772640233529867e+18,3.256866943359375,-0.0608472824096679,0.0017436854541301,0.0073038637638092,0.0,0.0,0.0007989476434886
1.7726402335498583e+18,3.2768583984375,-0.0704298019409179,0.0064733363687992,0.0023455284535884,0.0005326317623257,0.0,-0.0007989476434886
1.7726402335698493e+18,3.296849365234375,-0.0704298019409179,0.020767904818058,0.0070149786770343,-0.0007989476434886,-0.0002663158811628,0.0002663158811628
1.7726402335898406e+18,3.316840576171875,-0.0470705032348632,0.0114841870963573,0.006191961467266,-0.0005326317623257,-0.0005326317623257,0.0010652635246515
1.7726402336098317e+18,3.336831787109375,-0.0560541152954101,0.0020024105906486,0.0110664367675781,-0.0005326317623257,0.0002663158811628,0.0002663158811628
1.772640233629823e+18,3.356822998046875,-0.0704278945922851,0.0068355612456798,0.0015785656869411,0.0,-0.0007989476434886,0.0015978952869772
1.772640233649814e+18,3.37681396484375,-0.0656356811523437,0.0166057310998439,-0.003163993358612,-0.0005326317623257,-0.0005326317623257,0.0005326317623257
1.7726402336698053e+18,3.396805419921875,-0.0656328201293945,-0.0022452287375926,-0.0076182372868061,0.0,0.0,0.0002663158811628
1.7726402336897964e+18,3.41679638671875,-0.0560522079467773,0.0024883821606636,0.0164654143154621,0.0005326317623257,-0.0005326317623257,-0.0005326317623257
1.7726402337097866e+18,3.43678662109375,-0.0800075531005859,0.0168390795588493,-0.0024433173239231,-0.0007989476434886,-0.0005326317623257,-0.0005326317623257
1.7726402337297766e+18,3.456776611328125,-0.0800065994262695,0.0216540582478046,0.0023357160389423,-0.0007989476434886,-0.0005326317623257,0.0005326317623257
1.7726402337497664e+18,3.476766357421875,-0.0656356811523437,-0.0168117694556713,0.016628760844469,-0.0002663158811628,0.0007989476434886,-0.0002663158811628
1.7726402337697564e+18,3.49675634765625,-0.0704269409179687,0.0071323178708553,0.0357410758733749,-0.0018642111681401,0.0,0.0002663158811628
1.7726402337897462e+18,3.51674609375,-0.0470705032348632,0.0072258003056049,0.0028956644237041,-0.0007989476434886,-0.0007989476434886,-0.0002663158811628
1.7726402338097362e+18,3.536736083984375,-0.0518608093261718,0.0216224566102027,0.0078253038227558,-0.0005326317623257,0.0007989476434886,-0.0005326317623257
1.7726402338297262e+18,3.556726318359375,-0.0704269409179687,0.0218033753335475,0.0033360943198204,0.0,0.0005326317623257,-0.0010652635246515
1.772640233849716e+18,3.576716064453125,-0.0656356811523437,0.0026351287961006,0.0128428004682064,0.0,0.0007989476434886,-0.0013315794058144
1.772640233869706e+18,3.5967060546875,-0.0608444213867187,0.0023692995309829,0.0079817585647106,0.0002663158811628,0.0005326317623257,0.0002663158811628
1.772640233889696e+18,3.616696044921875,-0.0470685958862304,0.007410891354084,0.0030753798782825,0.0002663158811628,-0.0013315794058144,0.0005326317623257
1.7726402339296758e+18,3.65667578125,-0.0704278945922851,-0.0071629881858825,-0.0062641575932502,-0.0002663158811628,0.0005326317623257,-0.0007989476434886
1.7726402339496655e+18,3.67666552734375,-0.0704278945922851,0.031071376055479,0.0034095235168933,0.0,0.0007989476434886,-0.0002663158811628
1.7726402339696556e+18,3.696655517578125,-0.0704288482666015,0.0118384175002574,0.0081817880272865,-0.0002663158811628,0.0013315794058144,0.0005326317623257
1.7726402339896456e+18,3.7166455078125,-0.0608453750610351,0.0070890597999095,0.003924760967493,-0.0013315794058144,0.0005326317623257,0.0013315794058144
1.7726402340096353e+18,3.73663525390625,-0.0518627166748046,-0.00235465914011,0.0089453607797622,0.0007989476434886,-0.0002663158811628,-0.0002663158811628
1.7726402340296253e+18,3.756625244140625,-0.0566539764404296,-0.0119638293981552,0.0040626972913742,-0.0005326317623257,-0.0007989476434886,0.0010652635246515
1.7726402340496154e+18,3.776615478515625,-0.0656385421752929,-0.0073098726570606,0.0090173929929733,0.0,0.0005326317623257,0.0010652635246515
1.772640234069605e+18,3.796605224609375,-0.0608453750610351,0.0119528919458389,0.0075671710073947,0.0,0.0015978952869772,-0.0005326317623257
1.7726402340895951e+18,3.81659521484375,-0.0656366348266601,0.0214647985994815,0.0026869662106037,0.0015978952869772,0.0,-0.0002663158811628
1.772640234109585e+18,3.8365849609375,-0.0656375885009765,0.011669285595417,0.0024940446019172,-0.0002663158811628,-0.0005326317623257,0.0005326317623257
1.772640234129575e+18,3.856574951171875,-0.0752191543579101,0.0068281553685665,0.0073472447693347,0.0,0.0007989476434886,0.0
1.772640234149565e+18,3.87656494140625,-0.0470733642578125,0.0020961984992027,-0.0165155045688152,-0.0002663158811628,0.0,0.0007989476434886
1.7726402341695547e+18,3.8965546875,-0.0608472824096679,0.0020520165562629,0.0170181170105934,-0.0005326317623257,0.0006657897029072,-0.0003994738217443
1.772640234209536e+18,3.936535888671875,-0.0656394958496093,0.0018399097025394,0.022016491740942,0.0007989476434886,-0.0001331579405814,-0.0001331579405814
1.7726402342295276e+18,3.956527587890625,-0.0608491897583007,0.0017949007451534,-0.0114868022501468,0.0,-0.0001331579405814,-0.0006657897029072
1.772640234249519e+18,3.97651904296875,-0.0656394958496093,-0.002773892134428,-0.0161859430372715,-0.0007989476434886,-0.0011984214652329,0.0001331579405814
1.772640234269511e+18,3.996510986328125,-0.0800113677978515,0.0165865793824195,-0.0024943314492702,0.0010652635246515,0.0001331579405814,-0.0001331579405814
1.7726402342895025e+18,4.01650244140625,-0.0560550689697265,-0.0023545697331428,0.0021041184663772,0.0015978952869772,-0.0003994738217443,0.0006657897029072
1.772640234309494e+18,4.036493896484375,-0.0656366348266601,-0.0023928768932819,-0.0075005069375038,-0.0007989476434886,-0.0001331579405814,-0.0006657897029072
1.7726402343294856e+18,4.056485595703125,-0.0704278945922851,0.0120774954557418,0.0016547925770282,0.0007989476434886,0.00093210558407,0.0003994738217443
1.7726402343494774e+18,4.076477294921875,-0.0470705032348632,-0.0117468126118183,-0.0174144282937049,0.0,0.0003994738217443,0.0011984214652329
1.772640234369469e+18,4.096468994140625,-0.0470705032348632,0.0074687972664833,-0.0029667243361473,0.0005326317623257,0.0001331579405814,0.0006657897029072
1.7726402343894605e+18,4.11646044921875,-0.0560541152954101,0.0219258740544319,-0.0028393007814884,0.0002663158811628,0.00093210558407,-0.00093210558407
1.7726402344094523e+18,4.136452392578125,-0.0560541152954101,0.0122852586209774,0.0112761482596397,0.0,-0.0001331579405814,-0.0019973691087216
1.7726402344294438e+18,4.15644384765625,-0.0560541152954101,0.0075967572629451,-0.0125920176506042,-0.0010652635246515,0.0003994738217443,0.0001331579405814
1.7726402344494354e+18,4.176435302734375,-0.0800085067749023,0.0074920505285263,-0.002987302839756,-0.0015978952869772,-0.0017310532275587,0.0001331579405814
1.7726402344694272e+18,4.19642724609375,-0.0518617630004882,0.0026554614305496,0.0077481567859649,0.0005326317623257,0.0001331579405814,0.00093210558407
1.7726402344894188e+18,4.216418701171875,-0.0656347274780273,-0.0019657388329505,0.0220038257539272,-0.0010652635246515,0.0003994738217443,-0.0006657897029072
1.7726402345094103e+18,4.236410400390625,-0.0752172470092773,0.0027277618646621,-0.0163853578269481,-0.0002663158811628,0.0006657897029072,-0.00093210558407
1.7726402345493937e+18,4.2763935546875,-0.0374889373779296,0.0072637237608432,-0.020709179341793,-0.0002663158811628,0.0003994738217443,-0.0001331579405814
1.7726402345693852e+18,4.29638525390625,-0.0518617630004882,-0.0118203498423099,0.0031555444002151,-0.0013315794058144,0.0006657897029072,-0.0003994738217443
1.7726402345893768e+18,4.316376708984375,-0.0656347274780273,-0.0117410793900489,0.00311691313982,0.0005326317623257,-0.0001331579405814,-0.0003994738217443
1.7726402346093686e+18,4.33636865234375,-0.0704250335693359,-0.0070864856243133,-0.0066981725394725,0.0,-0.0006657897029072,0.0001331579405814
1.77264023462936e+18,4.356360107421875,-0.0656356811523437,0.0071306265890598,-0.0066681057214736,-0.0005326317623257,0.0001331579405814,-0.0014647373463958
1.7726402346493517e+18,4.3763515625,-0.0560522079467773,0.01690673828125,-0.0114234946668148,0.0005326317623257,-0.0003994738217443,-0.0003994738217443
1.7726402346693432e+18,4.39634326171875,-0.0518598556518554,-0.0021398328244686,0.0012732297182083,-0.0005326317623257,0.0006657897029072,0.0003994738217443
1.7726402347093266e+18,4.43632666015625,-0.0656337738037109,0.0026043504476547,0.0155607312917709,0.0,-0.0006657897029072,0.0003994738217443
1.7726402347293181e+18,4.456318115234375,-0.0608434677124023,0.026529423892498,0.0012566111981868,0.0015978952869772,0.0001331579405814,0.0003994738217443
1.77264023474931e+18,4.47631005859375,-0.0608444213867187,0.0120969414710998,0.0061622373759746,0.0005326317623257,-0.0006657897029072,-0.0001331579405814
1.7726402347693015e+18,4.496301513671875,-0.0704250335693359,0.0026260502636432,0.0012316294014453,-0.0002663158811628,-0.0003994738217443,-0.0003994738217443
1.772640234789293e+18,4.51629296875,-0.0608453750610351,0.0167753919959068,-0.02240851521492,-0.0002663158811628,-0.0003994738217443,-0.0001331579405814
1.7726402348092849e+18,4.536284912109375,-0.051863670349121,-0.0018815360963344,-0.0036633685231208,0.0002663158811628,-0.0014647373463958,-0.00093210558407
1.7726402348292764e+18,4.5562763671875,-0.0800094604492187,0.006997138261795,0.0295860208570957,0.0005326317623257,-0.0001331579405814,0.0003994738217443
1.772640234849268e+18,4.57626806640625,-0.0608444213867187,-0.0018681362271308,0.0196794942021369,0.0005326317623257,-0.0003994738217443,0.0003994738217443
1.7726402348692595e+18,4.596259521484375,-0.0656356811523437,0.0023301169276237,-0.003652986139059,-0.0010652635246515,0.0017310532275587,-0.0001331579405814
1.7726402348892513e+18,4.616251220703125,-0.0704250335693359,0.0120078772306442,-0.0087778195738792,0.0002663158811628,-0.0011984214652329,-0.0011984214652329
1.772640234909243e+18,4.636242919921875,-0.0470695495605468,0.0072160921990871,-0.0181559212505817,-0.0002663158811628,0.0006657897029072,-0.0006657897029072
1.7726402349292347e+18,4.656234619140625,-0.0374889373779296,-0.0168592743575572,0.0059647858142852,-0.0002663158811628,0.00093210558407,0.0001331579405814
1.7726402349492262e+18,4.676226318359375,-0.0560541152954101,0.0071468129754066,0.0060784518718719,0.0,0.0001331579405814,0.0003994738217443
1.7726402349692178e+18,4.6962177734375,-0.0470705032348632,-0.0072049833834171,-0.0036883875727653,0.0002663158811628,-0.0006657897029072,0.0003994738217443
1.7726402349892096e+18,4.716209716796875,-0.0470695495605468,0.0023831687867641,0.0202009417116642,0.0,0.00093210558407,-0.0003994738217443
1.7726402350092012e+18,4.736201171875,-0.0704269409179687,0.0119047686457633,0.0203967541456222,0.0010652635246515,0.0011984214652329,0.00093210558407
1.7726402350291927e+18,4.756192626953125,-0.0847997665405273,0.0118438266217708,0.0010924860835075,0.0,0.0003994738217443,-0.00093210558407
1.7726402350491845e+18,4.7761845703125,-0.0704269409179687,0.0070518217980861,0.0202424526214599,0.0002663158811628,-0.0019973691087216,0.00093210558407
1.772640235069176e+18,4.796176025390625,-0.0704269409179687,0.0022676289081573,-0.0073796212673187,-0.0002663158811628,-0.0011984214652329,-0.0003994738217443
1.7726402350891676e+18,4.816167724609375,-0.0752162933349609,0.0072662457823753,0.0023737587034702,-0.0005326317623257,-0.0003994738217443,-0.00093210558407
1.7726402351091592e+18,4.8361591796875,-0.0470705032348632,0.0023768246173858,-0.0025515779852867,-0.0005326317623257,-0.0001331579405814,-0.0006657897029072
1.772640235129151e+18,4.85615087890625,-0.0470705032348632,0.0118448138236999,0.0214910395443439,0.0010652635246515,0.0011984214652329,0.0001331579405814
1.7726402351491425e+18,4.876142578125,-0.0704250335693359,0.0119403153657913,0.0258409231901168,0.0002663158811628,0.0003994738217443,0.0001331579405814
1.7726402351691343e+18,4.89613427734375,-0.0704250335693359,0.0070957839488983,0.0115198865532875,-0.0002663158811628,0.0001331579405814,-0.0011984214652329
1.772640235189126e+18,4.9161259765625,-0.0656356811523437,0.0022592581808567,0.0069973021745681,0.0,-0.0011984214652329,-0.0006657897029072
1.7726402352091162e+18,4.9361162109375,-0.0470705032348632,0.0068918876349925,0.021301157772541,0.0002663158811628,0.0011984214652329,0.0006657897029072
1.7726402352291062e+18,4.956106201171875,-0.0752162933349609,0.0165618658065795,0.00683169439435,0.0005326317623257,0.0003994738217443,-0.0003994738217443
1.7726402352490962e+18,4.97609619140625,-0.0608425140380859,0.0118141844868659,0.0121160447597503,-0.0007989476434886,0.0001331579405814,-0.0003994738217443
1.7726402352690862e+18,4.996086181640625,-0.0608444213867187,0.0164318457245826,0.0105298832058906,0.0005326317623257,-0.0011984214652329,-0.0003994738217443
1.7726402352890762e+18,5.016076171875,-0.0608453750610351,0.0210415907204151,0.0152620002627372,-0.0007989476434886,0.00093210558407,0.0001331579405814
1.7726402353090662e+18,5.036066162109375,-0.0560550689697265,-0.0030543394386768,-0.0088679827749729,-0.0002663158811628,-0.0006657897029072,-0.0006657897029072
1.7726402353290563e+18,5.05605615234375,-0.0656366348266601,0.016145147383213,-0.0040517076849937,0.0013315794058144,0.0001331579405814,-0.0006657897029072
1.7726402353490463e+18,5.07604638671875,-0.0470714569091796,0.011293102055788,-0.0040265172719955,-0.0002663158811628,-0.0001331579405814,-0.0006657897029072
1.772640235369036e+18,5.0960361328125,-0.0656375885009765,0.0016147643327713,0.0055130794644355,-0.0002663158811628,-0.00093210558407,-0.0001331579405814
1.772640235389026e+18,5.116026123046875,-0.0608463287353515,-0.0031590387225151,-0.0088241770863533,0.0,0.0006657897029072,0.0001331579405814
1.772640235409016e+18,5.13601611328125,-0.0560569763183593,0.0111526772379875,-0.0135219581425189,0.0007989476434886,0.00093210558407,-0.00093210558407
1.772640235429006e+18,5.156006103515625,-0.0518646240234375,0.0112485289573669,-0.0134280622005462,0.0002663158811628,-0.0003994738217443,-0.0001331579405814
1.772640235448996e+18,5.17599609375,-0.0608472824096679,0.0112412944436073,0.0051488578319549,-0.0002663158811628,-0.0003994738217443,-0.0001331579405814
1.772640235468986e+18,5.195986083984375,-0.0752201080322265,-0.0079498067498207,0.0111384280025959,-0.0002663158811628,-0.0001331579405814,0.0003994738217443
1.7726402354889761e+18,5.21597607421875,-0.0704288482666015,-0.0030918978154659,0.0013625510036945,0.0007989476434886,0.00093210558407,0.0001331579405814
1.7726402355089661e+18,5.235966064453125,-0.0518627166748046,0.0113765709102153,0.0063185878098011,0.0013315794058144,-0.0001331579405814,-0.0001331579405814
1.7726402355289562e+18,5.2559560546875,-0.0752172470092773,0.0020630583167076,0.001439768821001,0.0002663158811628,-0.0006657897029072,-0.0003994738217443
1.7726402355489462e+18,5.2759462890625,-0.0608444213867187,0.0115825235843658,0.0156468600034713,0.0,0.00093210558407,0.0001331579405814
1.7726402355689362e+18,5.295936279296875,-0.0326976776123046,0.0020062774419784,0.0107504166662693,0.0,-0.0017310532275587,0.0001331579405814
1.7726402355889262e+18,5.31592626953125,-0.0374889373779296,0.0114738158881664,0.0012370944023132,0.0005326317623257,0.0017310532275587,0.0014647373463958
1.7726402356089162e+18,5.335916259765625,-0.0560541152954101,0.01135990396142,-0.0086245276033878,0.0002663158811628,-0.0003994738217443,0.0001331579405814
1.7726402356289062e+18,5.35590625,-0.0704269409179687,-0.0077803246676921,0.0010258704423904,-0.0007989476434886,0.0001331579405814,-0.0003994738217443
1.7726402356488963e+18,5.375896240234375,-0.0518608093261718,0.0115302726626396,-0.0133572183549404,0.0,0.0006657897029072,0.00093210558407
1.7726402356688863e+18,5.39588623046875,-0.0560522079467773,0.0021630972623825,0.0053235292434692,-0.0002663158811628,-0.0003994738217443,0.0025300008710473
1.772640235688876e+18,5.4158759765625,-0.0656337738037109,0.0069504454731941,-0.0090654008090496,0.0007989476434886,-0.0006657897029072,-0.00093210558407
1.7726402357088673e+18,5.435867431640625,-0.0608415603637695,-0.0072449333965778,0.000587061047554,-0.0015978952869772,0.0003994738217443,-0.0001331579405814
1.7726402357288586e+18,5.455858642578125,-0.051858901977539,0.0118538625538349,-0.0090635083615779,-0.0002663158811628,0.0003994738217443,0.0003994738217443
1.7726402357488502e+18,5.47585009765625,-0.0422782897949218,0.0117257349193096,0.0093532353639602,0.0,-0.0003994738217443,-0.0001331579405814
1.772640235788833e+18,5.5158330078125,-0.0560531616210937,-0.0018878653645515,-0.009326759725809,-0.0005326317623257,-0.0001331579405814,-0.0019973691087216
1.7726402358088246e+18,5.535824462890625,-0.0518617630004882,-0.0068187229335308,-0.0235248319804668,0.0010652635246515,0.0001331579405814,0.0003994738217443
1.772640235828816e+18,5.55581591796875,-0.0560541152954101,-0.006802275776863,-0.0186726376414299,0.0,-0.0014647373463958,-0.0014647373463958
1.7726402358488074e+18,5.575807373046875,-0.0560541152954101,0.0165277980268001,0.0051956176757812,0.0005326317623257,-0.0001331579405814,0.0001331579405814
1.772640235868799e+18,5.595799072265625,-0.0518608093261718,-0.0024714358150959,0.0009762309491634,-0.0002663158811628,-0.0001331579405814,-0.0003994738217443
1.7726402358887903e+18,5.615790283203125,-0.0656337738037109,0.0071538984775543,0.005575630813837,-0.0010652635246515,0.0006657897029072,0.0006657897029072
1.7726402359087818e+18,5.63578173828125,-0.0374870300292968,0.0023625753819942,0.015053492039442,-0.0005326317623257,0.0001331579405814,0.0003994738217443
1.7726402359287734e+18,5.6557734375,-0.0518598556518554,0.0024152249097824,0.0055944435298442,-0.0007989476434886,0.0001331579405814,-0.0003994738217443
1.7726402359487647e+18,5.6757646484375,-0.0560522079467773,0.0071449950337409,0.0008294582366943,0.0005326317623257,0.0003994738217443,-0.0011984214652329
1.7726402359687562e+18,5.695756103515625,-0.0656337738037109,-0.002324242144823,0.0056894086301326,0.0,-0.0006657897029072,0.00093210558407
1.7726402359887475e+18,5.71574755859375,-0.047067642211914,-0.0070456974208354,-0.0088480785489082,0.0002663158811628,-0.0003994738217443,-0.0006657897029072
1.772640236008739e+18,5.735739013671875,-0.0560522079467773,-0.0072886273264884,-0.0040212459862232,-0.0007989476434886,0.0014647373463958,0.0002663158811628
1.7726402360287306e+18,5.755730712890625,-0.0608425140380859,0.0023455247282981,-0.0039340555667877,0.0002663158811628,0.0006657897029072,0.0002663158811628
1.772640236048722e+18,5.775721923828125,-0.0608425140380859,0.0071274302899837,-0.0039515458047389,0.0,0.0003994738217443,0.0010652635246515
1.7726402360687135e+18,5.79571337890625,-0.0422801971435546,0.0069618448615074,0.0009696558117866,0.0002663158811628,-0.0001331579405814,-0.0005326317623257
1.772640236088705e+18,5.815705078125,-0.0656366348266601,0.0164132043719291,-0.0276969633996486,-0.0007989476434886,0.0003994738217443,-0.0010652635246515
1.7726402361086963e+18,5.8356962890625,-0.051863670349121,0.011708989739418,0.0013870559632778,0.0002663158811628,-0.0014647373463958,-0.0002663158811628
1.7726402361286879e+18,5.85568798828125,-0.0422821044921875,0.0019710659980773,0.00598606467247,0.0,-0.0003994738217443,-0.0002663158811628
1.7726402361486792e+18,5.87567919921875,-0.0560569763183593,-0.0028624981641769,-0.0033529438078403,-0.0005326317623257,0.0006657897029072,0.0002663158811628
1.7726402361686707e+18,5.895670654296875,-0.0656385421752929,-0.007687110453844,-0.0082576274871826,-0.0002663158811628,0.00093210558407,-0.0005326317623257
1.7726402361886623e+18,5.915662353515625,-0.0470733642578125,-0.0076167955994606,-0.0129448026418685,0.0005326317623257,-0.0003994738217443,0.0005326317623257
1.7726402362086528e+18,5.93565283203125,-0.0422830581665039,-0.0123801529407501,-0.0034328326582908,-0.0007989476434886,-0.0006657897029072,-0.0007989476434886
1.772640236228643e+18,5.95564306640625,-0.051863670349121,0.0020978301763534,0.0013838149607181,-0.0002663158811628,0.0003994738217443,0.0005326317623257
1.7726402362486333e+18,5.97563330078125,-0.0800094604492187,0.0164434686303138,0.0059813261032104,0.0007989476434886,-0.0001331579405814,0.0007989476434886
1.7726402362686236e+18,5.99562353515625,-0.0656375885009765,-0.0028672367334365,-0.0132341235876083,0.0005326317623257,-0.0003994738217443,-0.0002663158811628
1.772640236288614e+18,6.01561376953125,-0.0560550689697265,0.0114359520375728,0.0153013654053211,0.0,0.0003994738217443,-0.0005326317623257
1.7726402363086042e+18,6.035604248046875,-0.0518627166748046,0.0019070692360401,0.005684420466423,0.0010652635246515,0.0003994738217443,0.0005326317623257
1.7726402363285947e+18,6.0555947265625,-0.042281150817871,0.0021166540682315,-0.0036530159413814,0.0002663158811628,0.0011984214652329,-0.0002663158811628
1.772640236348585e+18,6.0755849609375,-0.0560541152954101,-0.0026647299528121,0.0010073520243167,0.0,-0.0001331579405814,-0.0002663158811628
1.7726402363685752e+18,6.0955751953125,-0.0560522079467773,-0.0026036202907562,0.0102834142744541,0.0,0.0006657897029072,-0.0002663158811628
1.7726402363885655e+18,6.1155654296875,-0.0656337738037109,0.0215747691690921,0.015124637633562,0.0005326317623257,-0.0001331579405814,0.0002663158811628
1.7726402364085558e+18,6.1355556640625,-0.0656318664550781,0.0075051710009574,0.0104456469416618,0.0,0.0001331579405814,-0.0005326317623257
1.772640236428546e+18,6.155546142578125,-0.0560522079467773,-0.0070590674877166,-0.0081286169588565,-0.0005326317623257,0.0006657897029072,0.0002663158811628
1.7726402364485363e+18,6.175536376953125,-0.0422782897949218,-0.0023119002580642,-0.0081896744668483,0.0002663158811628,-0.0006657897029072,0.0
1.7726402364685268e+18,6.19552685546875,-0.0560503005981445,0.0122507885098457,-0.0039095468819141,-0.0005326317623257,-0.0001331579405814,0.0005326317623257
1.772640236488517e+18,6.21551708984375,-0.0518608093261718,0.0167521387338638,0.0057409480214118,0.0002663158811628,-0.0014647373463958,-0.0010652635246515
1.7726402365085074e+18,6.23550732421875,-0.0518608093261718,0.0072645768523216,-0.0133693069219589,0.0010652635246515,-0.0001331579405814,0.0002663158811628
1.7726402365284977e+18,6.25549755859375,-0.0470695495605468,0.0169737040996551,0.0060707665979862,0.0005326317623257,-0.00093210558407,0.0002663158811628
1.772640236548488e+18,6.275488037109375,-0.0374870300292968,0.007538229227066,-0.003475971519947,-0.0013315794058144,0.0006657897029072,0.0
1.7726402365684782e+18,6.295478271484375,-0.051858901977539,-0.0018265470862388,-0.0035451836884021,-0.0007989476434886,0.0006657897029072,0.0010652635246515
1.7726402365884685e+18,6.315468505859375,-0.0518579483032226,-0.0018712095916271,-0.0085010677576065,0.0,-0.00093210558407,-0.0007989476434886
1.7726402366084588e+18,6.335458740234375,-0.0608425140380859,0.0123764239251613,-0.0179687477648258,-0.0002663158811628,-0.0006657897029072,0.0
1.7726402366284493e+18,6.35544921875,-0.0656337738037109,0.0123568139970302,-0.0233365707099437,-0.002130527049303,0.0003994738217443,-0.0002663158811628
1.7726402366484396e+18,6.375439453125,-0.0560531616210937,-0.0062438994646072,0.0009050369262695,-0.0002663158811628,0.0003994738217443,-0.0005326317623257
1.7726402366684298e+18,6.395429931640625,-0.0422792434692382,0.0027375258505344,0.0062054023146629,0.0007989476434886,0.0001331579405814,-0.0002663158811628
1.77264023668842e+18,6.415420166015625,-0.0326967239379882,0.0075697861611843,-0.0218181274831295,-0.0002663158811628,-0.0003994738217443,0.0
1.772640236708411e+18,6.435410888671875,-0.0470705032348632,0.0075060985982418,-0.0074559226632118,0.0,0.0006657897029072,0.0
1.772640236728402e+18,6.45540185546875,-0.0656337738037109,0.0074434280395507,-0.0077262185513973,0.0005326317623257,-0.0003994738217443,0.0
1.7726402367483927e+18,6.475392822265625,-0.0704269409179687,0.0073812790215015,-0.0123598463833332,-0.0007989476434886,0.0011984214652329,-0.0010652635246515
1.7726402367683837e+18,6.4953837890625,-0.0470705032348632,0.0023806951940059,-0.003005526959896,-0.0010652635246515,0.0006657897029072,0.0013315794058144
1.7726402367883748e+18,6.515374755859375,-0.0560550689697265,0.0118904449045658,-0.0027638860046863,-0.0005326317623257,-0.0006657897029072,-0.0002663158811628
1.7726402368083658e+18,6.53536572265625,-0.0518627166748046,0.0119747295975685,0.0021544247865676,-0.0010652635246515,-0.00093210558407,0.0
1.7726402368283569e+18,6.55535693359375,-0.0560550689697265,0.011954978108406,-0.016947578638792,0.0007989476434886,0.0006657897029072,-0.0002663158811628
1.7726402368483476e+18,6.57534765625,-0.0470714569091796,0.0072582475841045,-0.0073749646544456,0.0005326317623257,-0.0003994738217443,-0.0007989476434886
1.7726402368683387e+18,6.595338623046875,-0.0608453750610351,0.0119771212339401,-0.0033052302896976,-0.0005326317623257,0.0017310532275587,0.0
1.7726402368883297e+18,6.615329833984375,-0.0656356811523437,0.0023949667811393,-0.0083124972879886,0.0005326317623257,0.0001331579405814,-0.0005326317623257
1.7726402369083208e+18,6.63532080078125,-0.0518627166748046,-0.0025428533554077,-0.0083195641636848,0.0002663158811628,-0.0003994738217443,-0.0002663158811628
1.7726402369283116e+18,6.6553115234375,-0.0422801971435546,0.0167993642389774,-0.0082757249474525,-0.0002663158811628,0.0003994738217443,-0.0002663158811628
1.7726402369483026e+18,6.675302490234375,-0.0656366348266601,0.0024788528680801,-0.0127508416771888,0.0005326317623257,-0.00093210558407,-0.0005326317623257
1.7726402369682936e+18,6.695293701171875,-0.0560550689697265,0.0071554481983184,0.0057261921465396,0.0,-0.0006657897029072,0.0002663158811628
1.7726402369882847e+18,6.71528466796875,-0.051863670349121,0.0119266882538795,-0.0179547220468521,0.0010652635246515,0.0001331579405814,-0.0005326317623257
1.7726402370082755e+18,6.735275390625,-0.0518617630004882,0.0074898861348629,-0.0083806477487087,0.0,-0.00093210558407,0.0005326317623257
1.7726402370282665e+18,6.7552666015625,-0.0518627166748046,0.0121036060154438,0.0011222623288631,0.0,0.0011984214652329,-0.0010652635246515
1.7726402370482575e+18,6.775257568359375,-0.0656375885009765,0.0262180119752883,-0.0132479332387447,0.0,0.00093210558407,-0.0005326317623257
1.7726402370682486e+18,6.79524853515625,-0.0656375885009765,0.0072527453303337,-0.0160246379673481,0.0,0.0003994738217443,0.0
1.7726402370882396e+18,6.815239501953125,-0.051863670349121,0.00246137753129,-0.0113386772572994,-0.0007989476434886,-0.0006657897029072,0.0007989476434886
1.7726402371082304e+18,6.83523046875,-0.0470714569091796,0.0121779181063175,0.0077309124171733,0.0,-0.0011984214652329,-0.0002663158811628
1.7726402371282214e+18,6.855221435546875,-0.0560560226440429,0.002230878919363,0.0028583481907844,0.0002663158811628,-0.00093210558407,0.0007989476434886
1.7726402371482125e+18,6.87521240234375,-0.0608453750610351,0.0262399762868881,-0.0212335214018821,0.0002663158811628,0.0001331579405814,0.0002663158811628
1.7726402371682035e+18,6.89520361328125,-0.042281150817871,0.0072212517261505,0.0123043470084667,-0.0005326317623257,0.00093210558407,-0.0005326317623257
1.7726402371881943e+18,6.9151943359375,-0.032698631286621,0.0119911916553974,0.0171916261315345,0.0002663158811628,0.00093210558407,0.0002663158811628
1.7726402372081856e+18,6.935185546875,-0.0560550689697265,0.0263142213225364,0.0033870451152324,0.0005326317623257,-0.0001331579405814,0.0013315794058144
1.772640237228177e+18,6.955177001953125,-0.0560541152954101,0.0264724791049957,0.0032517947256565,-0.0013315794058144,0.00093210558407,-0.0005326317623257
1.7726402372481684e+18,6.97516845703125,-0.0470714569091796,-0.0024212040007114,0.0177190229296684,-0.0005326317623257,-0.0003994738217443,-0.0002663158811628
1.7726402372681597e+18,6.99515966796875,-0.0560541152954101,-0.0024117976427078,0.0061463825404644,0.0007989476434886,-0.0006657897029072,0.0005326317623257
1.772640237288151e+18,7.015151123046875,-0.0608444213867187,0.0023793205618858,-0.0179507918655872,0.0002663158811628,0.0001331579405814,-0.0002663158811628
1.7726402373081426e+18,7.035142578125,-0.0470685958862304,0.0025349110364913,0.0010818019509315,-0.0007989476434886,0.00093210558407,0.0010652635246515
1.772640237328134e+18,7.0551337890625,-0.0518608093261718,0.0072624199092388,0.001263290643692,-0.0005326317623257,-0.0006657897029072,-0.0013315794058144
1.7726402373481254e+18,7.07512548828125,-0.0422782897949218,0.0123441293835639,-0.0132115930318832,0.0,-0.0003994738217443,0.0
1.7726402373681167e+18,7.09511669921875,-0.047067642211914,0.0122182667255401,-0.0181450508534908,0.0015978952869772,-0.0003994738217443,0.0005326317623257
1.772640237388108e+18,7.11510791015625,-0.0656328201293945,-0.0020927153527736,0.0009930841624736,-0.0007989476434886,-0.0003994738217443,-0.0007989476434886
1.7726402374080996e+18,7.135099609375,-0.0656337738037109,0.0074777528643608,-0.0036059096455574,-0.0005326317623257,0.0001331579405814,-0.0002663158811628
1.772640237428091e+18,7.1550908203125,-0.0470695495605468,0.0073615200817584,-0.0130283832550048,0.0005326317623257,0.0001331579405814,0.0002663158811628
1.7726402374480822e+18,7.175082275390625,-0.0422782897949218,0.0027260407805442,-0.0035672783851623,-0.0013315794058144,-0.0003994738217443,0.0007989476434886
1.7726402374680737e+18,7.19507373046875,-0.0518598556518554,0.0123377740383148,0.0012482069432735,0.0002663158811628,0.0006657897029072,-0.0005326317623257
1.772640237488065e+18,7.21506494140625,-0.0470685958862304,-0.0068587958812713,0.0061069093644618,0.0002663158811628,-0.0006657897029072,0.0
1.7726402375080563e+18,7.235056396484375,-0.0470685958862304,0.0074933320283889,-0.0130549296736717,0.0005326317623257,-0.0011984214652329,0.0005326317623257
1.7726402375280479e+18,7.2550478515625,-0.0608415603637695,0.0171299874782562,-0.0037008561193943,-0.0005326317623257,-0.0003994738217443,0.0007989476434886
1.7726402375480392e+18,7.2750390625,-0.0374870300292968,0.0027380362153053,0.0107268542051315,-0.0002663158811628,-0.0003994738217443,0.0
1.7726402375680305e+18,7.295030517578125,-0.0422801971435546,-0.0024787746369838,-0.003508735448122,-0.0015978952869772,0.0003994738217443,-0.0007989476434886
1.772640237588022e+18,7.31502197265625,-0.0470705032348632,0.0166882313787937,-0.00846479088068,0.0,-0.0011984214652329,-0.0002663158811628
1.7726402376080133e+18,7.335013427734375,-0.0518617630004882,0.0166917592287063,-0.0037963688373565,-0.0005326317623257,0.0003994738217443,0.0002663158811628
1.7726402376280046e+18,7.355004638671875,-0.0704259872436523,0.0070816539227962,0.0008613765239715,0.0007989476434886,-0.0003994738217443,0.0010652635246515
1.7726402376479962e+18,7.37499609375,-0.0560541152954101,0.0117291659116745,0.0008319951593875,0.0002663158811628,0.0014647373463958,-0.0007989476434886
1.7726402376679875e+18,7.394987548828125,-0.0608444213867187,0.0164708457887172,-0.0088105909526348,-0.0005326317623257,-0.0003994738217443,0.0
1.7726402376879788e+18,7.414978759765625,-0.0608453750610351,0.0066527873277664,-0.018483355641365,-0.0005326317623257,0.0003994738217443,0.0005326317623257
1.7726402377079698e+18,7.4349697265625,-0.0608453750610351,0.0018967911601066,0.0103693604469299,0.0002663158811628,-0.0003994738217443,-0.0002663158811628
1.7726402377279603e+18,7.454960205078125,-0.0560550689697265,0.0016716308891773,0.0197774693369865,0.0,0.0003994738217443,0.0002663158811628
1.7726402377479508e+18,7.474950927734375,-0.0470705032348632,0.0111630745232105,0.0242788158357143,-0.0001331579405814,-0.00093210558407,0.0005326317623257
1.7726402377679416e+18,7.494941650390625,-0.0326976776123046,-0.0031118057668209,0.0051815174520015,0.0006657897029072,-0.0006657897029072,-0.0005326317623257
1.7726402377879322e+18,7.51493212890625,-0.0422801971435546,0.006442479789257,0.0051430575549602,0.0006657897029072,0.00093210558407,0.0005326317623257
1.7726402378079227e+18,7.534922607421875,-0.0470695495605468,0.0208612009882926,-0.0190054289996624,0.0006657897029072,-0.0001331579405814,-0.0002663158811628
1.7726402378279132e+18,7.554913330078125,-0.0656347274780273,0.006617184728384,-0.0236152037978172,0.0001331579405814,-0.0003994738217443,0.0010652635246515
1.772640237847904e+18,7.574904052734375,-0.0470705032348632,0.0065373107790946,0.0140557028353214,-0.0001331579405814,-0.00093210558407,0.0002663158811628
1.7726402378678945e+18,7.59489453125,-0.0374889373779296,0.0064575001597404,-0.0045262575149536,0.0006657897029072,-0.0006657897029072,0.0
1.772640237887885e+18,7.614885009765625,-0.0374889373779296,0.0017020255327224,-0.0045426450669765,-0.0001331579405814,0.0001331579405814,-0.0010652635246515
1.7726402379078758e+18,7.634875732421875,-0.0422801971435546,0.0111417584121227,0.0097819678485393,0.00093210558407,-0.0006657897029072,0.0013315794058144
1.7726402379278664e+18,7.654866455078125,-0.0560550689697265,0.0110522806644439,0.0002252273261547,0.0006657897029072,-0.0003994738217443,-0.0007989476434886
1.772640237947857e+18,7.67485693359375,-0.0518617630004882,-0.0033264681696891,-6.27934932708e-05,0.00093210558407,-0.0003994738217443,0.0005326317623257
1.7726402379678477e+18,7.69484765625,-0.0560531616210937,0.0157885439693927,0.0050790533423423,0.0003994738217443,-0.00093210558407,0.0005326317623257
1.7726402379878382e+18,7.714838134765625,-0.0470695495605468,0.0014517828822135,0.0003652609884738,-0.0003994738217443,0.0003994738217443,-0.0007989476434886
1.7726402380078287e+18,7.734828857421875,-0.0518617630004882,-0.0082295164465904,0.0052741281688213,0.00093210558407,0.0001331579405814,0.0
1.7726402380278195e+18,7.754819580078125,-0.0560541152954101,0.0062201656401157,-0.0042217932641506,-0.00093210558407,-0.0006657897029072,0.0
1.7726402380678006e+18,7.794800537109375,-0.0608472824096679,0.0059256330132484,-0.0038411319255828,0.0001331579405814,0.0001331579405814,0.0005326317623257
1.7726402380877914e+18,7.814791259765625,-0.0374917984008789,0.0012747421860694,-0.0029497817158699,-0.0003994738217443,-0.0006657897029072,-0.0005326317623257
1.772640238107782e+18,7.834781982421875,-0.0374917984008789,0.0107150487601757,0.0207231231033802,0.0003994738217443,0.0003994738217443,0.0002663158811628
1.7726402381277724e+18,7.8547724609375,-0.0374927520751953,0.0106783248484134,0.0065184012055397,-0.0001331579405814,-0.0001331579405814,-0.0002663158811628
1.7726402381477632e+18,7.87476318359375,-0.0518646240234375,0.0058090537786483,0.011100985109806,-0.0001331579405814,-0.0001331579405814,0.0013315794058144
1.7726402381677537e+18,7.894753662109375,-0.0560579299926757,0.0055221132934093,-0.0129043534398078,0.00093210558407,-0.0003994738217443,0.0
1.7726402381877443e+18,7.914744140625,-0.0518646240234375,0.0056005269289016,-0.0035506449639797,-0.0001331579405814,-0.0001331579405814,0.0002663158811628
1.772640238207735e+18,7.934735107421875,-0.0608472824096679,0.0104595944285392,0.0108234323561191,-0.0001331579405814,-0.0017310532275587,-0.0005326317623257
1.7726402382277263e+18,7.954726318359375,-0.0560579299926757,0.0150461122393608,0.0059389844536781,0.0006657897029072,0.0003994738217443,0.0
1.7726402382477174e+18,7.97471728515625,-0.0656404495239257,0.0006063580513,-0.0129617862403392,0.0006657897029072,-0.0011984214652329,0.0005326317623257
1.7726402382677084e+18,7.99470849609375,-0.0608501434326171,0.0148799531161785,-0.0037886016070842,0.0003994738217443,0.0011984214652329,-0.0007989476434886
1.7726402382876997e+18,8.01469970703125,-0.0752248764038086,0.019405324012041,-0.0037545934319496,-0.0006657897029072,0.0006657897029072,-0.0007989476434886
1.7726402383076908e+18,8.034690673828125,-0.0608530044555664,0.0192965157330036,-0.0183977745473384,0.0001331579405814,0.0017310532275587,-0.0002663158811628
1.7726402383276818e+18,8.054681884765625,-0.0518703460693359,0.0001184120774269,0.0007362924516201,0.0001331579405814,0.00093210558407,0.0005326317623257
1.7726402383476728e+18,8.0746728515625,-0.0422887802124023,0.0097176954150199,-0.008851658552885,0.0006657897029072,0.0006657897029072,0.0002663158811628
1.772640238367664e+18,8.0946640625,-0.0470790863037109,-0.0046582333743572,-0.0088068842887878,0.0001331579405814,-0.0006657897029072,0.0010652635246515
1.7726402383876552e+18,8.1146552734375,-0.0656423568725586,-0.0044001303613185,0.000641893595457,0.0011984214652329,-0.0006657897029072,0.0002663158811628
1.7726402384076462e+18,8.134646240234375,-0.0518703460693359,0.0145609192550182,0.005289789289236,-0.0001331579405814,-0.0006657897029072,0.0
1.7726402384276372e+18,8.15463720703125,-0.0470771789550781,0.0099949650466442,0.0005228482186794,-0.0001331579405814,-0.0003994738217443,0.0002663158811628
1.7726402384476283e+18,8.174628173828125,-0.0470771789550781,0.0291316471993923,0.0004433616995811,0.0003994738217443,-0.0006657897029072,-0.0007989476434886
1.7726402384676196e+18,8.19461962890625,-0.0608530044555664,0.0289997570216655,-0.009040430188179,0.0003994738217443,0.0011984214652329,0.0
1.7726402384876106e+18,8.214610595703125,-0.0470790863037109,0.0050201639533042,-0.0136703513562679,0.00093210558407,0.0014647373463958,-0.0010652635246515
1.7726402385076017e+18,8.2346015625,-0.0560626983642578,0.0096714459359645,-0.0043143108487129,0.0001331579405814,0.00093210558407,0.0007989476434886
1.7726402385275927e+18,8.2545927734375,-0.0560646057128906,0.0093226619064807,-0.0378441959619522,0.0011984214652329,-0.0006657897029072,0.0
1.772640238547584e+18,8.274583984375,-0.0470809936523437,0.0092881768941879,-0.018559917807579,-0.0001331579405814,0.0006657897029072,-0.0002663158811628
1.772640238567575e+18,8.294574951171874,-0.0422916412353515,-0.0004109665751457,-0.008880540728569,0.0001331579405814,0.0006657897029072,0.0005326317623257
1.772640238587566e+18,8.314566162109376,-0.0422916412353515,-0.0050990469753742,-0.0376187264919281,0.0006657897029072,-0.0003994738217443,0.0002663158811628
1.7726402386075574e+18,8.334557373046875,-0.0560674667358398,0.0090829394757747,-0.0326227098703384,-0.00093210558407,-0.0001331579405814,-0.0005326317623257
1.7726402386275484e+18,8.35454833984375,-0.0470829010009765,0.0091012045741081,-0.023066159337759,-0.0001331579405814,-0.0011984214652329,0.0002663158811628
1.7726402386475395e+18,8.37453955078125,-0.0470829010009765,0.0091193988919258,-0.0237410329282283,-0.0003994738217443,0.0001331579405814,0.0
1.7726402386675305e+18,8.394530517578126,-0.060856819152832,0.0043572261929512,-0.0129065364599227,0.0001331579405814,-0.0001331579405814,0.0005326317623257
1.7726402386875218e+18,8.414521728515625,-0.060856819152832,0.0090615600347518,-0.0081240572035312,-0.0003994738217443,0.0001331579405814,0.0005326317623257
1.7726402387075123e+18,8.43451220703125,-0.0656499862670898,-0.0006879232823848,-0.022262617945671,-0.0001331579405814,-0.0003994738217443,-0.0002663158811628
1.7726402387275023e+18,8.45450244140625,-0.0752325057983398,0.0088597647845745,-0.0173025913536548,-0.0001331579405814,0.0006657897029072,0.0005326317623257
1.7726402387474929e+18,8.474492919921875,-0.0518770217895507,0.0185057781636714,0.0020833946764469,0.0017310532275587,-0.00093210558407,-0.0005326317623257
1.7726402387674831e+18,8.494483154296875,-0.0560693740844726,-0.0198055692017078,-0.0170094966888427,0.0011984214652329,0.0001331579405814,0.0
1.7726402387874734e+18,8.514473388671876,-0.0470867156982421,-0.005485400557518,-0.0121649056673049,0.00093210558407,0.0003994738217443,-0.0005326317623257
1.7726402388074637e+18,8.534463623046875,-0.0422964096069335,0.0185174085199832,-0.026502575725317,-0.0003994738217443,0.0006657897029072,-0.0002663158811628
1.772640238827454e+18,8.554453857421874,-0.0656518936157226,0.0087973475456237,-0.0120763182640075,0.0003994738217443,-0.0001331579405814,-0.0005326317623257
1.7726402388474442e+18,8.5744443359375,-0.0656538009643554,-0.0057327523827552,-0.0256617814302444,0.0003994738217443,-0.0006657897029072,0.0007989476434886
1.7726402388674345e+18,8.5944345703125,-0.0560731887817382,0.0134382024407386,-0.0117311626672744,-0.0001331579405814,0.0001331579405814,0.0
1.7726402388874248e+18,8.6144248046875,-0.0560731887817382,0.0180692225694656,-0.0166664533317089,-0.0006657897029072,-0.00093210558407,0.0005326317623257
1.772640238907415e+18,8.6344150390625,-0.0470895767211914,0.0180664397776126,-0.0021057352423667,0.00093210558407,0.0006657897029072,0.0
1.7726402389274053e+18,8.6544052734375,-0.0423011779785156,-0.0012121275067329,-0.0258697383105754,0.0003994738217443,-0.0001331579405814,0.0007989476434886
1.7726402389473956e+18,8.6743955078125,-0.0470924377441406,0.022676508873701,-0.0161715298891067,0.00093210558407,0.0003994738217443,-0.0010652635246515
1.772640238967386e+18,8.69438623046875,-0.0656576156616211,0.0083231180906295,-0.0113287381827831,-0.00093210558407,0.0014647373463958,-0.0005326317623257
1.7726402389873764e+18,8.71437646484375,-0.0704479217529296,0.0082908384501934,-0.016264583915472,0.0006657897029072,0.00093210558407,-0.0002663158811628
1.7726402390073667e+18,8.73436669921875,-0.0375099182128906,-0.0108609274029731,0.002865333110094,0.0001331579405814,0.0003994738217443,-0.0002663158811628
1.772640239027357e+18,8.75435693359375,-0.0375070571899414,0.0038553737103939,0.007351379841566,-0.0003994738217443,-0.0003994738217443,0.0
1.7726402390473472e+18,8.77434716796875,-0.0422992706298828,-0.0056217424571514,0.012504082173109,0.0003994738217443,-0.0006657897029072,-0.0005326317623257
1.7726402390673375e+18,8.79433740234375,-0.0422992706298828,0.0040947273373603,-0.0115014165639877,0.00093210558407,0.0003994738217443,-0.0002663158811628
1.7726402390873277e+18,8.81432763671875,-0.0518817901611328,0.0040197260677814,-0.0207477547228336,0.0001331579405814,0.0011984214652329,0.0
1.772640239107318e+18,8.834318115234375,-0.0560741424560546,-0.0009390302002429,0.0029637813568115,-0.0001331579405814,-0.0001331579405814,-0.0005326317623257
1.7726402391273083e+18,8.854308349609376,-0.0656547546386718,-0.0152889192104339,0.0124362036585807,0.0001331579405814,-0.0001331579405814,0.0010652635246515
1.7726402391472986e+18,8.874298583984375,-0.0375080108642578,-0.0056024454534053,-0.0115178860723972,0.0001331579405814,0.00093210558407,0.0
1.7726402391672888e+18,8.894288818359374,-0.0560731887817382,0.0041131526231765,-0.0066337250173091,0.00093210558407,0.0003994738217443,0.0005326317623257
1.772640239187279e+18,8.914279052734376,-0.0375080108642578,0.0232600308954715,0.0126292929053306,0.00093210558407,0.0003994738217443,0.0007989476434886
1.77264023920727e+18,8.934269775390625,-0.0608634948730468,0.0136830322444438,-0.0064958930015563,-0.0017310532275587,-0.0001331579405814,0.0002663158811628
1.772640239227261e+18,8.954260986328125,-0.0560731887817382,-0.0054283887147903,-0.0257813222706317,0.0011984214652329,-0.0003994738217443,-0.0002663158811628
1.772640239247252e+18,8.974251953125,-0.0518798828125,0.0091177932918071,-0.0066294111311435,-0.0006657897029072,-0.00093210558407,0.0
1.7726402392672428e+18,8.99424267578125,-0.047088623046875,-0.000454656779766,-0.0071835070848464,-0.0014647373463958,0.0006657897029072,0.0007989476434886
1.7726402392872338e+18,9.01423388671875,-0.047088623046875,-0.0099530518054962,-0.0021522380411624,-0.0003994738217443,0.0006657897029072,0.0
1.7726402393072248e+18,9.034224853515624,-0.047088623046875,0.00919671356678,0.0073346756398677,-0.0001331579405814,0.0001331579405814,0.0005326317623257
1.7726402393272159e+18,9.0542158203125,-0.0518808364868164,-0.000531617552042,0.0025658011436462,0.0014647373463958,-0.0006657897029072,-0.0005326317623257
1.7726402393472067e+18,9.07420654296875,-0.0560722351074218,-0.0053015388548374,0.0120415166020393,-0.00093210558407,-0.0003994738217443,-0.0007989476434886
1.7726402393671977e+18,9.09419775390625,-0.0327157974243164,0.0044863261282444,0.0073644965887069,0.0001331579405814,0.0003994738217443,0.0007989476434886
1.7726402393871887e+18,9.114188720703124,-0.0518798828125,0.0046921670436859,-0.0020806901156902,-0.0006657897029072,0.0003994738217443,-0.0005326317623257
1.7726402394071795e+18,9.134179443359375,-0.0560722351074218,0.0093645565211772,0.0027311481535434,-0.0003994738217443,0.0003994738217443,-0.0007989476434886
1.7726402394271706e+18,9.154170654296877,-0.0752363204956054,0.0188571177423,-0.0067029856145381,-0.0001331579405814,-0.00093210558407,-0.0018642111681401
1.7726402394471616e+18,9.17416162109375,-0.0518808364868164,0.0139366462826728,-0.0307125076651573,-0.0003994738217443,0.0001331579405814,0.0007989476434886
1.7726402394671526e+18,9.194152587890626,-0.0422992706298828,-0.0051541924476623,-0.0062206834554672,-0.0001331579405814,0.0003994738217443,-0.0005326317623257
1.7726402394871434e+18,9.214143310546875,-0.0518798828125,0.0042170211672782,0.0126267373561859,-0.0005326317623257,0.0003994738217443,0.0002663158811628
1.7726402395071345e+18,9.234134521484377,-0.0608634948730468,0.0041105784475803,0.0031161643564701,0.0002663158811628,-0.0001331579405814,-0.0002663158811628
1.7726402395271255e+18,9.25412548828125,-0.0518808364868164,-0.0101782418787479,0.0029259212315082,0.0,-0.0003994738217443,0.0005326317623257
1.7726402395471165e+18,9.274116455078126,-0.0518798828125,-0.0053660087287425,-0.0065084993839263,0.0005326317623257,0.00093210558407,0.0007989476434886
1.7726402395671076e+18,9.294107666015623,-0.0422983169555664,-0.0054494738578796,0.0076116099953651,0.0,0.0001331579405814,-0.0002663158811628
1.7726402395870984e+18,9.314098388671876,-0.0422983169555664,-0.0055321864783763,0.0026850290596485,-0.0015978952869772,-0.0001331579405814,0.0002663158811628
1.7726402396070894e+18,9.33408935546875,-0.0470905303955078,0.0086189955472946,-0.0018130987882614,-0.0002663158811628,0.0006657897029072,0.0007989476434886
1.7726402396270804e+18,9.35408056640625,-0.0423011779785156,-0.001161228865385,-0.0113405808806419,0.0007989476434886,0.0006657897029072,-0.0002663158811628
1.7726402396470715e+18,9.374071533203123,-0.0656576156616211,0.0132401287555694,-0.001674972474575,-0.0002663158811628,-0.0001331579405814,0.0010652635246515
1.7726402396670623e+18,9.394062255859374,-0.0800304412841796,-0.0059010572731494,0.0032390244305133,0.0,-0.00093210558407,0.0005326317623257
1.7726402396870533e+18,9.41405322265625,-0.0752391815185546,-0.0108146220445632,-0.0016786903142929,0.0013315794058144,-0.00093210558407,0.0002663158811628
1.7726402397070444e+18,9.43404443359375,-0.0470924377441406,-0.0012215301394462,0.0030277036130428,0.0002663158811628,0.0001331579405814,0.0005326317623257
1.7726402397270351e+18,9.45403515625,-0.0375099182128906,0.0037764497101306,0.0030466392636299,0.0007989476434886,-0.00093210558407,-0.0015978952869772
1.7726402397470262e+18,9.474026123046874,-0.0231361389160156,0.0084496773779392,0.0219225101172924,-0.0002663158811628,0.0011984214652329,0.0
1.7726402397670172e+18,9.494017333984376,-0.0518808364868164,0.0084893442690372,-0.0069356560707092,0.0,-0.00093210558407,-0.0002663158811628
1.7726402397870083e+18,9.51400830078125,-0.0752382278442382,0.0133075900375843,-0.0210218876600265,0.0007989476434886,-0.0011984214652329,0.0005326317623257
1.7726402398069993e+18,9.533999267578125,-0.0608654022216796,0.0085558108985424,-0.0112811066210269,0.0007989476434886,0.0003994738217443,0.0
1.77264023982699e+18,9.553989990234374,-0.0560760498046875,0.0082820542156696,0.012669026851654,0.0002663158811628,0.0006657897029072,0.0005326317623257
1.772640239846981e+18,9.573981201171875,-0.0656585693359375,-0.0060682073235511,-0.0159069709479808,0.0005326317623257,0.0003994738217443,-0.0002663158811628
1.7726402398669722e+18,9.59397216796875,-0.0704507827758789,0.0130193717777729,-0.0108537301421165,-0.0002663158811628,0.0003994738217443,0.0005326317623257
1.7726402398869632e+18,9.613963134765624,-0.0752429962158203,0.0177226513624191,-0.0057605877518653,0.0007989476434886,-0.0003994738217443,-0.0005326317623257
1.7726402399069542e+18,9.633954345703126,-0.0608692169189453,0.0080769248306751,-0.0112521387636661,0.0007989476434886,0.0001331579405814,-0.0013315794058144
1.772640239926945e+18,9.653945068359375,-0.0560789108276367,0.003285776823759,0.0077625289559364,-0.0013315794058144,-0.0003994738217443,0.0002663158811628
1.772640239946936e+18,9.67393603515625,-0.0656604766845703,-0.0014927312731742,0.0125500746071338,0.0005326317623257,-0.00093210558407,-0.0002663158811628
1.7726402399869181e+18,9.713918212890626,-0.0608692169189453,-0.0013256222009658,-0.0110985562205314,0.0,-0.0006657897029072,-0.0002663158811628
1.7726402400069092e+18,9.7339091796875,-0.0704536437988281,-0.0015751123428344,-0.015772059559822,-0.0005326317623257,0.00093210558407,0.0
1.7726402400269e+18,9.75389990234375,-0.0560808181762695,-0.0063943490386009,0.0080851688981056,0.0,0.0011984214652329,-0.0015978952869772
1.772640240046891e+18,9.77389111328125,-0.0560808181762695,0.003239843994379,-0.0062972865998744,0.0002663158811628,-0.0003994738217443,0.0002663158811628
1.772640240066882e+18,9.793882080078124,-0.0375146865844726,-0.0062660574913024,0.0037972368299961,0.0010652635246515,0.0003994738217443,-0.0005326317623257
1.772640240086873e+18,9.813873046875,-0.0470943450927734,0.0034194514155387,-0.0060564614832401,-0.0002663158811628,0.0014647373463958,-0.0005326317623257
1.772640240106864e+18,9.833864013671874,-0.0560779571533203,-0.0012559853494167,-0.0106896683573722,0.0005326317623257,0.00093210558407,-0.0002663158811628
1.772640240126855e+18,9.85385498046875,-0.0752410888671875,0.0178193412721157,-0.0108970925211906,0.0,-0.0001331579405814,0.0
1.772640240146846e+18,9.873845947265623,-0.0608692169189453,-0.0014370121061801,-0.0106345191597938,-0.0002663158811628,0.0003994738217443,0.0
1.772640240166837e+18,9.8938369140625,-0.0656604766845703,-0.0014254078269004,-0.0060629360377788,0.0,-0.0006657897029072,0.0002663158811628
1.772640240186828e+18,9.913828125,-0.0327215194702148,0.003470279276371,-0.0156816728413105,0.0,-0.0003994738217443,0.0005326317623257
1.7726402402068183e+18,9.933818359375,-0.0518856048583984,-0.006088551133871,-0.0301093719899654,-0.0007989476434886,0.0011984214652329,-0.0005326317623257
1.7726402402268086e+18,9.95380859375,-0.0518856048583984,-0.0062209032475948,-0.0109424665570259,0.0013315794058144,-0.0001331579405814,-0.0005326317623257
1.7726402402467986e+18,9.973798583984374,-0.0656604766845703,0.0128135606646537,-0.001279704272747,0.0007989476434886,0.00093210558407,-0.0002663158811628
1.7726402402667886e+18,9.99378857421875,-0.0608692169189453,-0.001442901790142,-0.0150411576032638,-0.0005326317623257,-0.00093210558407,0.0002663158811628
1.772640240286779e+18,10.01377880859375,-0.0518865585327148,0.0032952800393104,0.0041909404098987,-0.0005326317623257,-0.0001331579405814,0.0002663158811628
1.772640240306769e+18,10.033768798828126,-0.0327224731445312,-0.0013278387486934,0.0090387053787708,-0.0002663158811628,-0.0006657897029072,0.0
1.772640240326759e+18,10.053759033203123,-0.0327224731445312,0.0129676833748817,-0.0053987018764019,-0.0002663158811628,-0.0001331579405814,-0.0005326317623257
1.7726402403467492e+18,10.073749267578124,-0.0423049926757812,0.0177223645150661,-0.0052537657320499,0.0,-0.0011984214652329,-0.0002663158811628
1.7726402403667392e+18,10.0937392578125,-0.0608711242675781,-0.0063643939793109,0.0140591040253639,0.0002663158811628,0.0003994738217443,0.0002663158811628
1.7726402403867295e+18,10.1137294921875,-0.0470972061157226,-0.0112753622233867,-0.0002334415912628,0.0005326317623257,0.0006657897029072,-0.0005326317623257
1.7726402404067195e+18,10.133719482421874,-0.0518884658813476,0.0032537057995796,-0.0051416456699371,-0.0005326317623257,-0.0011984214652329,0.0010652635246515
1.7726402404267095e+18,10.15370947265625,-0.0752429962158203,0.0032540261745452,0.0093391872942447,0.0002663158811628,-0.0001331579405814,0.0005326317623257
1.7726402404466998e+18,10.17369970703125,-0.0518865585327148,0.0035149045288562,0.0045644640922546,0.0,-0.0006657897029072,0.0007989476434886
1.7726402404666898e+18,10.193689697265626,-0.0423049926757812,-0.0107708647847175,0.0039824396371841,0.0007989476434886,-0.0003994738217443,-0.0007989476434886
1.77264024048668e+18,10.21368017578125,-0.0560789108276367,-0.0060502961277961,-0.0056181214749813,-0.0005326317623257,0.0001331579405814,-0.0005326317623257
1.77264024050667e+18,10.233670166015624,-0.0518875122070312,0.0034148469567298,0.0040389075875282,0.0005326317623257,0.00093210558407,0.0
1.77264024052666e+18,10.25366015625,-0.0518865585327148,-0.0109222158789634,-0.000827170908451,-0.0007989476434886,0.0001331579405814,0.0
1.7726402405466504e+18,10.273650390625,-0.0560789108276367,0.0036586187779903,0.0088119208812713,0.0002663158811628,-0.0001331579405814,-0.0005326317623257
1.7726402405866307e+18,10.313630615234375,-0.0608692169189453,0.0081866905093193,0.0086531452834606,-0.0002663158811628,0.0006657897029072,-0.0002663158811628
1.7726402406066207e+18,10.33362060546875,-0.0518865585327148,-0.0014874674379825,-0.0058862715959548,0.0,0.0003994738217443,0.0005326317623257
1.7726402406266107e+18,10.353610595703126,-0.0518884658813476,-0.0112422965466976,-0.0104677937924861,0.002130527049303,0.0003994738217443,0.0010652635246515
1.772640240646601e+18,10.37360107421875,-0.0608730316162109,0.0029750764369964,-0.0197109654545784,-0.0010652635246515,0.0003994738217443,-0.0002663158811628
1.772640240666591e+18,10.393591064453124,-0.042306900024414,0.0080665536224842,-0.0005192011594772,0.0,-0.0003994738217443,-0.0002663158811628
1.772640240686581e+18,10.4135810546875,-0.0560808181762695,-0.0109568908810615,-0.0004389062523841,-0.0013315794058144,0.0003994738217443,0.0002663158811628
1.7726402407065718e+18,10.43357177734375,-0.0470962524414062,0.0036238841712474,-0.0101245455443859,0.0,-0.0006657897029072,0.0002663158811628
1.7726402407265628e+18,10.453562744140624,-0.0423049926757812,0.0085062123835086,0.0137709118425846,0.0,0.0003994738217443,-0.0005326317623257
1.7726402407465539e+18,10.473553955078126,-0.0608692169189453,0.0083887949585914,-0.0103393569588661,0.0002663158811628,0.0001331579405814,-0.0007989476434886
1.772640240766545e+18,10.493544921875,-0.0608701705932617,0.0033888332545757,0.0039985328912734,0.0007989476434886,0.0006657897029072,-0.0002663158811628
1.772640240786536e+18,10.513535888671877,-0.0423040390014648,-0.0011305026710033,0.0086895339190959,-0.0007989476434886,-0.0003994738217443,0.0002663158811628
1.772640240806527e+18,10.53352685546875,-0.0518865585327148,0.0133727192878723,-0.0054861940443515,-0.0010652635246515,0.0001331579405814,0.0
1.772640240826518e+18,10.55351806640625,-0.0608682632446289,0.0086200051009655,0.0038514360785484,0.0010652635246515,0.0001331579405814,0.0005326317623257
1.772640240846509e+18,10.573509033203123,-0.0470924377441406,-0.0151314996182918,-0.0057410486042499,0.0010652635246515,-0.0017310532275587,-0.0002663158811628
1.7726402408665e+18,10.5935,-0.0470924377441406,-0.0149292573332786,-0.0008172579109668,0.0007989476434886,0.0011984214652329,-0.0007989476434886
1.7726402408864911e+18,10.6134912109375,-0.0560760498046875,-0.0005472041666507,-0.0005804002285003,0.0005326317623257,0.0006657897029072,0.0010652635246515
1.7726402409064822e+18,10.633482177734376,-0.0704498291015625,0.0136941224336624,-0.0006568394601345,-0.0002663158811628,0.0003994738217443,-0.0007989476434886
1.7726402409264732e+18,10.65347314453125,-0.0470943450927734,0.023068793118,0.0129548944532871,-0.0007989476434886,0.0006657897029072,-0.0002663158811628
1.7726402409464643e+18,10.67346435546875,-0.0423049926757812,0.0132522620260715,-0.0062179155647754,-0.0007989476434886,0.0006657897029072,0.0002663158811628
1.7726402409664553e+18,10.693455322265624,-0.0656595230102539,0.0085000060498714,-0.035003799945116,-0.0005326317623257,-0.0006657897029072,0.0005326317623257
1.7726402409864463e+18,10.7134462890625,-0.0470943450927734,0.0036556646227836,-0.0110456757247447,-0.0005326317623257,-0.00093210558407,0.0007989476434886
1.7726402410064374e+18,10.733437255859377,-0.0423040390014648,0.0036037340760231,0.0032401978969573,0.0010652635246515,-0.00093210558407,0.0005326317623257
1.7726402410264284e+18,10.753428466796874,-0.0608692169189453,-0.0061082206666469,0.0128651857376098,0.0,0.0001331579405814,0.0002663158811628
1.7726402410464195e+18,10.77341943359375,-0.0752420425415039,-0.0155881121754646,-0.0061044581234455,-0.0013315794058144,0.0006657897029072,-0.0002663158811628
1.7726402410664105e+18,10.793410400390623,-0.0560817718505859,-0.0109680742025375,0.0086342170834541,-0.0005326317623257,-0.0011984214652329,-0.0010652635246515
1.7726402410864015e+18,10.813401611328125,-0.0560827255249023,0.0033025741577148,-0.0054919309914112,-0.0007989476434886,0.0001331579405814,-0.0005326317623257
1.7726402411063926e+18,10.833392578125,-0.0608730316162109,-0.0014213658869266,0.0039993040263652,-0.0007989476434886,-0.0001331579405814,-0.0005326317623257
1.7726402411263836e+18,10.853383544921876,-0.037515640258789,-0.0014593563973903,0.0084789544343948,0.0,0.0019973691087216,0.0002663158811628
,,,,,0.0002663158811628,0.0001331579405814,-0.0013315794058144
,,,,,0.0007989476434886,-0.0014647373463958,-0.0002663158811628
,,,,,0.0007989476434886,0.0001331579405814,0.0010652635246515
,,,,,0.0,-0.0006657897029072,0.0
,,,,,0.0,-0.0006657897029072,0.0
,,,,,0.0002663158811628,-0.0006657897029072,0.0002663158811628
,,,,,0.0007989476434886,0.0011984214652329,0.0010652635246515
,,,,,0.0005326317623257,0.0001331579405814,-0.0005326317623257
,,,,,0.0007989476434886,0.0011984214652329,-0.0018642111681401
,,,,,0.0007989476434886,0.0017310532275587,0.0
,,,,,-0.0005326317623257,0.0001331579405814,0.0010652635246515
,,,,,-0.0007989476434886,-0.0001331579405814,-0.0002663158811628
