time,seconds_elapsed,accel_z,accel_y,accel_x,gyro_x,gyro_y,gyro_z
1.7726402746711332e+18,0.33013330078125,-0.0561065673828125,0.0074763372540473,0.0096045657992362,-0.0011984214652329,0.0002663158811628,-0.0003994738217443
1.7726402746911237e+18,0.350123779296875,-0.042332649230957,0.007566537708044,0.0193030498921871,-0.0011984214652329,0.0005326317623257,0.00093210558407
1.7726402747111148e+18,0.37011474609375,-0.051915168762207,0.0212215557694435,0.0001514684408903,-0.0006657897029072,0.0018642111681401,0.0003994738217443
1.7726402747311058e+18,0.390105712890625,-0.0608978271484375,0.0027465187013149,0.0002677142620086,-0.0011984214652329,0.0,-0.0003994738217443
1.7726402747510968e+18,0.410096923828125,-0.060896873474121,-0.0066926926374435,0.0049663241952657,0.00093210558407,0.0005326317623257,0.0001331579405814
1.772640274771088e+18,0.430087890625,-0.0704774856567382,-0.0022016130387783,3.04672867059e-05,0.0001331579405814,0.0,0.0003994738217443
1.7726402747910792e+18,0.4500791015625,-0.0656852722167968,-0.0020070746541023,0.0048329718410968,0.0003994738217443,0.0002663158811628,-0.0006657897029072
1.7726402748110702e+18,0.4700703125,-0.0423297882080078,0.0171414464712142,0.0143216606229543,0.0006657897029072,-0.0002663158811628,-0.0011984214652329
1.7726402748310612e+18,0.490061279296875,-0.0519113540649414,-0.0019322596490383,0.0049078799784183,-0.0003994738217443,0.0010652635246515,-0.0001331579405814
1.7726402748510523e+18,0.51005224609375,-0.0471200942993164,-0.0019467175006866,0.0051279626786708,0.0003994738217443,-0.0002663158811628,0.0006657897029072
1.7726402748710433e+18,0.530043212890625,-0.0561037063598632,0.0029345527291297,0.0147736687213182,-0.0003994738217443,0.0,-0.0001331579405814
1.7726402748910344e+18,0.550034423828125,-0.0608940124511718,0.0030765011906623,0.0099413804709911,-0.0011984214652329,-0.0005326317623257,-0.0003994738217443
1.7726402749110254e+18,0.570025390625,-0.0519094467163085,0.0031659230589866,0.0055511090904474,-0.0006657897029072,-0.0002663158811628,-0.0003994738217443
1.7726402749310164e+18,0.590016357421875,-0.060892105102539,0.0127323530614376,0.0054583307355642,-0.0014647373463958,-0.0002663158811628,-0.00093210558407
1.7726402749510075e+18,0.610007568359375,-0.060892105102539,0.0081877224147319,0.0193473901599645,0.0003994738217443,0.0,0.0003994738217443
1.7726402749709985e+18,0.62999853515625,-0.0375356674194335,0.0034866258502006,0.0003002155572175,0.0001331579405814,0.0013315794058144,-0.0006657897029072
1.7726402749909896e+18,0.649989501953125,-0.0423269271850585,0.0132093653082847,0.0051027797162532,-0.0006657897029072,0.0002663158811628,-0.0001331579405814
1.7726402750109809e+18,0.66998095703125,-0.0423269271850585,0.0131933949887752,0.0195374954491853,-0.0003994738217443,0.0005326317623257,0.0006657897029072
1.772640275030972e+18,0.689971923828125,-0.0471162796020507,0.0035969279706478,-0.0040142238140106,-0.0003994738217443,-0.0010652635246515,-0.00093210558407
1.772640275050963e+18,0.709962890625,-0.0656824111938476,-0.0012078434228897,0.0193512104451656,-0.0006657897029072,-0.0005326317623257,-0.0003994738217443
1.772640275070954e+18,0.7299541015625,-0.042327880859375,0.0177300572395324,0.0151689238846302,0.0001331579405814,-0.0002663158811628,-0.0001331579405814
1.772640275090945e+18,0.749945068359375,-0.03753662109375,0.0080806799232959,0.0008609220385551,-0.0011984214652329,0.0007989476434886,0.0006657897029072
1.772640275110936e+18,0.76993603515625,-0.0519084930419921,0.0225913859903812,0.0248745344579219,-0.0001331579405814,-0.0002663158811628,0.0001331579405814
1.772640275130927e+18,0.789927001953125,-0.0327444076538085,-0.0011681579053401,-0.0038577150553464,-0.0006657897029072,0.0005326317623257,0.0001331579405814
1.7726402751509181e+18,0.809918212890625,-0.0519084930419921,-0.010761871933937,0.0104736052453517,0.0003994738217443,0.0,-0.0001331579405814
1.7726402751709092e+18,0.8299091796875,-0.0423269271850585,-0.0060882978141307,0.0054848846048116,-0.0003994738217443,-0.0007989476434886,0.00093210558407
1.7726402751909002e+18,0.849900146484375,-0.03753662109375,-0.0061011873185634,0.0107036791741848,0.0003994738217443,0.0,0.0006657897029072
1.772640275210892e+18,0.86989208984375,-0.0375375747680664,0.008203525096178,-0.0035516638308763,0.0011984214652329,0.0,-0.0001331579405814
1.7726402752508762e+18,0.909876220703125,-0.070474624633789,-0.0108799450099468,0.0013702325522899,0.0001331579405814,0.0,0.0003994738217443
1.7726402752708682e+18,0.9298681640625,-0.065683364868164,0.0082679130136966,0.00112128816545,-0.0001331579405814,0.0002663158811628,-0.00093210558407
1.7726402752908603e+18,0.9498603515625,-0.0519084930419921,-0.0059085711836814,0.0204491596668958,-0.0017310532275587,-0.0005326317623257,0.0006657897029072
1.772640275310852e+18,0.96985205078125,-0.0608911514282226,-0.0059210285544395,0.0155622176826,0.0006657897029072,0.0002663158811628,0.0003994738217443
1.7726402753308442e+18,0.98984423828125,-0.0471172332763671,0.0036984160542488,0.0059916861355304,0.0006657897029072,-0.0007989476434886,0.0003994738217443
1.7726402753508362e+18,1.009836181640625,-0.0471153259277343,-0.0056867450475692,-0.0085747465491294,0.0001331579405814,0.0018642111681401,0.0001331579405814
1.7726402753708283e+18,1.029828369140625,-0.060887336730957,0.004088819026947,0.0055476073175668,-0.0001331579405814,0.0010652635246515,0.0001331579405814
1.7726402753908204e+18,1.0498203125,-0.060887336730957,-0.0102954804897308,0.0054010953754186,0.0003994738217443,0.0002663158811628,0.0003994738217443
1.7726402754108122e+18,1.069812255859375,-0.0327434539794921,-0.0009756609797477,-0.0134482197463512,-0.0001331579405814,-0.0005326317623257,0.0001331579405814
1.7726402754507963e+18,1.10979638671875,-0.0608901977539062,0.0085223577916622,0.0056453123688697,0.0001331579405814,-0.0010652635246515,0.00093210558407
1.7726402754707884e+18,1.129788330078125,-0.0423259735107421,-0.0059144459664821,0.0007430892437696,-0.00093210558407,0.0007989476434886,-0.0001331579405814
1.7726402754907802e+18,1.1497802734375,-0.0375347137451171,0.0037051700055599,0.0103676561266183,0.0001331579405814,-0.0007989476434886,0.00093210558407
1.7726402755107722e+18,1.169772216796875,-0.0327425003051757,0.0084796920418739,0.0150425024330616,-0.0001331579405814,0.0002663158811628,0.0003994738217443
1.7726402755307643e+18,1.189764404296875,-0.0560998916625976,-0.0106945931911468,0.010397033765912,-0.0011984214652329,-0.0018642111681401,0.0006657897029072
1.7726402755507564e+18,1.20975634765625,-0.0608911514282226,-0.0246307179331779,-0.0047373455017805,-0.0003994738217443,-0.0005326317623257,0.0001331579405814
1.7726402755707484e+18,1.22974853515625,-0.0519084930419921,-0.0007421672344207,0.0094675775617361,0.0001331579405814,-0.0005326317623257,-0.0001331579405814
1.7726402755907402e+18,1.249740234375,-0.0608911514282226,0.00403318926692,0.0190348699688911,0.0011984214652329,0.0018642111681401,0.0
1.7726402756107323e+18,1.269732177734375,-0.0519084930419921,0.0039649121463298,0.0095976814627647,0.0003994738217443,-0.0002663158811628,0.0
1.7726402756307244e+18,1.289724365234375,-0.0519084930419921,0.0041061863303184,0.0051110032945871,0.0003994738217443,-0.0005326317623257,0.0013315794058144
1.7726402756507164e+18,1.30971630859375,-0.0561017990112304,0.0088798217475414,0.0292039345949888,-0.0001331579405814,-0.0005326317623257,0.0007989476434886
1.7726402756707082e+18,1.329708251953125,-0.0471181869506835,0.0184406675398349,0.0243963543325662,0.0001331579405814,0.0002663158811628,0.0013315794058144
1.7726402756907003e+18,1.3497001953125,-0.070474624633789,0.0087892636656761,0.0100646819919347,0.0001331579405814,-0.0005326317623257,0.0010652635246515
1.772640275710692e+18,1.369692138671875,-0.0561037063598632,0.0039557479321956,-0.0087909922003746,-0.0001331579405814,0.0007989476434886,-0.0002663158811628
1.7726402757506752e+18,1.40967529296875,-0.056100845336914,0.0082474201917648,0.0153135284781456,0.00093210558407,-0.0007989476434886,-0.0002663158811628
1.7726402757706668e+18,1.429666748046875,-0.070474624633789,-0.0014526732265949,0.0106142237782478,0.0003994738217443,-0.0010652635246515,0.0002663158811628
1.7726402757906586e+18,1.449658447265625,-0.0279560089111328,0.0031660161912441,0.0200229343026876,0.00093210558407,0.0,-0.0002663158811628
1.77264027581065e+18,1.469650146484375,-0.0471200942993164,0.0219930708408355,0.0008523501455783,-0.0003994738217443,0.0018642111681401,-0.0002663158811628
1.7726402758506332e+18,1.50963330078125,-0.0704774856567382,0.0121676735579967,0.0109085384756326,-0.0014647373463958,0.0010652635246515,0.0
1.7726402758706248e+18,1.529624755859375,-0.0519142150878906,0.0024143606424331,0.0111054833978414,0.0011984214652329,0.0005326317623257,0.0010652635246515
1.7726402758906166e+18,1.549616455078125,-0.037541389465332,-0.0072826109826564,0.0063560493290424,0.0003994738217443,0.0,0.0005326317623257
1.7726402759106081e+18,1.569608154296875,-0.032750129699707,-0.0072930268943309,0.0111863613128662,0.0,0.0005326317623257,0.0002663158811628
1.7726402759505912e+18,1.60959130859375,-0.0752725601196289,0.0162540152668952,0.0007061511278152,0.0007989476434886,0.0013315794058144,-0.0013315794058144
1.7726402759705828e+18,1.629582763671875,-0.0471258163452148,0.0074098408222198,-0.0040900819003582,-0.0007989476434886,-0.0013315794058144,0.0013315794058144
1.7726402759905746e+18,1.64957470703125,-0.0423355102539062,0.0122323594987392,0.0104261636734008,-0.0001331579405814,-0.0013315794058144,-0.0002663158811628
1.7726402760105661e+18,1.669566162109375,-0.0561094284057617,0.0122641026973724,0.0151494313031435,0.0003994738217443,0.0005326317623257,-0.0010652635246515
1.7726402760305577e+18,1.6895576171875,-0.0608997344970703,0.0123546198010444,-0.0039150230586528,0.0011984214652329,-0.0002663158811628,0.0007989476434886
1.7726402760505492e+18,1.70954931640625,-0.0608997344970703,0.0124642886221408,0.0294168423861265,0.0017310532275587,-0.0005326317623257,0.0013315794058144
1.7726402760705408e+18,1.729540771484375,-0.0471258163452148,-0.0021045729517936,0.0148187521845102,0.00093210558407,0.0,0.0
1.7726402760905326e+18,1.74953271484375,-0.0752716064453125,0.0075889080762863,0.0194331798702478,0.0003994738217443,0.0002663158811628,0.0010652635246515
1.7726402761105242e+18,1.769524169921875,-0.0656900405883789,0.0028603374958038,0.005258060991764,0.0011984214652329,0.0013315794058144,0.0010652635246515
1.7726402761305157e+18,1.789515625,-0.0561094284057617,-0.0066527873277664,0.0102455466985702,0.0006657897029072,-0.0002663158811628,-0.0002663158811628
1.7726402761704988e+18,1.829498779296875,-0.0608987808227539,-0.0019665658473968,0.0152875427156686,0.0001331579405814,0.0007989476434886,0.0005326317623257
1.7726402761904906e+18,1.84949072265625,-0.0656900405883789,0.0076751634478569,0.0104306358844041,0.0006657897029072,0.0007989476434886,0.0002663158811628
1.7726402762104812e+18,1.869481201171875,-0.0656900405883789,-0.0163105055689811,0.0050810854882001,0.00093210558407,0.0,-0.0002663158811628
1.7726402762304717e+18,1.8894716796875,-0.0608987808227539,0.0030723996460437,0.0100670643150806,-0.0003994738217443,0.0007989476434886,0.0
1.7726402762504622e+18,1.909462158203125,-0.0704803466796875,0.0125020295381546,0.0097401682287454,-0.0001331579405814,0.0,-0.0002663158811628
1.7726402762704527e+18,1.92945263671875,-0.0752716064453125,-0.0162739269435405,0.000201940536499,-0.0001331579405814,0.0002663158811628,0.0007989476434886
1.7726402762904433e+18,1.949443359375,-0.0519161224365234,-0.0067803598940372,0.0288166161626577,-0.0007989476434886,0.0005326317623257,0.0
1.7726402763104338e+18,1.969433837890625,-0.0561084747314453,0.0121787339448928,0.0238980483263731,-0.0002663158811628,0.0015978952869772,0.0005326317623257
1.772640276330424e+18,1.989424072265625,-0.0656900405883789,0.0027114450931549,0.0048798173666,0.0010652635246515,-0.0013315794058144,-0.0007989476434886
1.7726402763504146e+18,2.00941455078125,-0.0656900405883789,-0.0026906095445156,0.0244097206741571,-0.0005326317623257,0.0002663158811628,-0.0015978952869772
1.772640276370405e+18,2.029405029296875,-0.0608987808227539,-0.0028072074055671,0.0148101709783077,0.0,0.0013315794058144,0.0
1.7726402763903956e+18,2.049395751953125,-0.0561084747314453,0.0117000751197338,-0.0090943817049264,-0.0007989476434886,-0.0002663158811628,0.0013315794058144
1.7726402764103862e+18,2.06938623046875,-0.0704813003540039,0.0210449025034904,0.0003756079822778,0.0005326317623257,-0.0002663158811628,-0.0007989476434886
1.7726402764303767e+18,2.089376708984375,-0.0471248626708984,-0.0029226243495941,0.0193605162203311,0.0002663158811628,-0.0005326317623257,-0.0007989476434886
1.772640276450367e+18,2.109366943359375,-0.0561084747314453,0.0114277675747871,0.020093560218811,-0.0002663158811628,-0.0005326317623257,0.0007989476434886
1.7726402764703575e+18,2.129357421875,-0.0561075210571289,0.0067221708595752,0.0198624283075332,-0.0005326317623257,0.0002663158811628,-0.0015978952869772
1.772640276490348e+18,2.14934814453125,-0.0423345565795898,-0.0028713420033454,0.0055830553174018,0.0,0.0007989476434886,0.0
1.7726402765103386e+18,2.169338623046875,-0.0656900405883789,0.0113746933639049,-0.0040560308843851,0.0005326317623257,-0.0018642111681401,0.0
1.772640276530329e+18,2.1893291015625,-0.0656900405883789,0.0018824152648448,0.0102503057569265,0.0002663158811628,0.0005326317623257,-0.0007989476434886
1.7726402765503196e+18,2.209319580078125,-0.0561065673828125,-0.0027115121483802,0.0053956862539052,0.0010652635246515,-0.0005326317623257,0.0
1.7726402765703101e+18,2.22931005859375,-0.0471229553222656,-0.0123507939279079,0.0197978857904672,0.0,0.0,-0.0002663158811628
1.7726402765903007e+18,2.24930078125,-0.0561075210571289,-0.0123033076524734,-0.0040570385754108,-0.0005326317623257,0.0002663158811628,0.0
1.772640276610291e+18,2.269291015625,-0.0519161224365234,0.0019490271806716,0.0103515069931745,0.00093210558407,-0.0010652635246515,-0.0002663158811628
1.7726402766302815e+18,2.289281494140625,-0.0704813003540039,-0.0077978149056434,0.0148095302283763,-0.0001331579405814,0.0,0.0002663158811628
1.772640276650272e+18,2.30927197265625,-0.0608987808227539,-0.0126447491347789,0.0148954149335622,0.0003994738217443,0.0007989476434886,-0.0005326317623257
1.7726402766702625e+18,2.329262451171875,-0.0608987808227539,-0.0174879319965839,0.0197159200906753,0.0003994738217443,-0.0005326317623257,0.0002663158811628
1.772640276690253e+18,2.349253173828125,-0.0608987808227539,-0.012648731470108,-0.004138808697462,0.0001331579405814,-0.0013315794058144,-0.0013315794058144
1.7726402767102428e+18,2.369242919921875,-0.0656900405883789,-0.0029738284647464,-0.0041429717093706,0.0006657897029072,0.0010652635246515,-0.0007989476434886
1.7726402767302328e+18,2.38923291015625,-0.0800638198852539,-0.0030898451805114,-0.0137217845767736,-0.0006657897029072,-0.0010652635246515,-0.0005326317623257
1.7726402767502226e+18,2.40922265625,-0.0848541259765625,-0.0073942728340625,-0.0048992000520229,0.0001331579405814,0.0005326317623257,0.0010652635246515
1.7726402767702124e+18,2.42921240234375,-0.0656909942626953,0.0109910294413566,0.0144017618149518,0.0001331579405814,-0.0002663158811628,-0.0002663158811628
1.772640276790202e+18,2.4492021484375,-0.0471258163452148,-0.0076337531208992,0.0095954239368438,-0.0003994738217443,0.0002663158811628,0.0007989476434886
1.772640276810192e+18,2.46919189453125,-0.0896453857421875,0.0013344287872314,0.0047407280653715,-0.0001331579405814,-0.0007989476434886,0.0002663158811628
1.7726402768301816e+18,2.489181640625,-0.0752744674682617,0.024993360042572,0.0095685459673404,-0.0001331579405814,0.0005326317623257,-0.0007989476434886
1.7726402768501716e+18,2.509171630859375,-0.0561122894287109,0.024801593273878,-0.0287945326417684,0.0001331579405814,0.0002663158811628,0.0002663158811628
1.7726402768701614e+18,2.529161376953125,-0.0656938552856445,0.0055669322609901,-0.0047909375280141,0.0003994738217443,-0.0002663158811628,-0.0007989476434886
1.7726402768901512e+18,2.549151123046875,-0.0752754211425781,-0.0081615783274173,0.019244136288762,0.0011984214652329,-0.0007989476434886,-0.0005326317623257
1.772640276910141e+18,2.569140869140625,-0.0519208908081054,-0.0035902522504329,-3.15941870212e-05,0.0006657897029072,0.0007989476434886,0.0005326317623257
1.7726402769301307e+18,2.589130615234375,-0.0519218444824218,-0.0037056095898151,0.0049559883773326,0.0003994738217443,0.0,0.0010652635246515
1.7726402769501204e+18,2.609120361328125,-0.0471305847167968,-0.0037682391703128,-0.0094679631292819,-0.00093210558407,0.0,-0.0002663158811628
1.7726402769701102e+18,2.629110107421875,-0.0800704956054687,-0.0136128403246402,0.0049451794475317,-0.0001331579405814,0.0005326317623257,0.0
1.7726402769901e+18,2.649099853515625,-0.0752792358398437,-0.0041974522173404,0.0144023466855287,0.0011984214652329,-0.0005326317623257,0.0
1.77264027701009e+18,2.669090087890625,-0.0561170578002929,0.0095544531941413,-0.0236494876444339,0.0003994738217443,-0.0007989476434886,-0.0002663158811628
1.7726402770300797e+18,2.689079833984375,-0.0704898834228515,0.0005046539008617,-0.0093804821372032,0.0011984214652329,0.0015978952869772,0.0
1.7726402770500695e+18,2.709069580078125,-0.0752801895141601,-0.0089785754680633,0.0004019830375909,-0.0001331579405814,-0.0005326317623257,0.0007989476434886
1.7726402770700593e+18,2.729059326171875,-0.0752811431884765,0.0005888938903808,0.0006547328084707,0.0006657897029072,-0.0002663158811628,-0.0005326317623257
1.772640277090049e+18,2.749049072265625,-0.0704898834228515,0.000574555248022,0.0101673658937215,0.0011984214652329,0.0002663158811628,0.0005326317623257
1.7726402771100388e+18,2.769038818359375,-0.051924705505371,0.0144250839948654,0.0150404274463653,0.00093210558407,-0.0010652635246515,0.0007989476434886
1.7726402771300285e+18,2.789028564453125,-0.0471353530883789,0.005213875323534,0.0150701813399791,0.0001331579405814,0.0013315794058144,-0.0002663158811628
1.7726402771500186e+18,2.8090185546875,-0.0519275665283203,0.0051545277237892,0.0011026840656995,0.0003994738217443,0.0,0.0002663158811628
1.7726402771700083e+18,2.82900830078125,-0.0657014846801757,-0.0091761909425258,0.0108085200190544,0.00093210558407,0.0,0.0002663158811628
1.772640277189998e+18,2.848998046875,-0.0519275665283203,0.0142519958317279,-0.0035820249468088,0.0006657897029072,0.0007989476434886,-0.0002663158811628
1.7726402772099889e+18,2.86898876953125,-0.0423460006713867,0.0093803294003009,0.0011329054832458,0.0006657897029072,-0.0002663158811628,0.0005326317623257
1.7726402772299796e+18,2.888979736328125,-0.0519266128540039,-0.0043561346828937,0.0297226086258888,0.0014647373463958,0.0005326317623257,0.0005326317623257
1.7726402772499707e+18,2.908970703125,-0.0561189651489257,0.0052536688745021,0.0153641533106565,0.0003994738217443,-0.0007989476434886,0.0005326317623257
1.7726402772699615e+18,2.92896142578125,-0.0657005310058593,0.0099109075963497,0.0008107759058475,0.0006657897029072,0.0015978952869772,0.0005326317623257
1.7726402772899525e+18,2.948952392578125,-0.0752820968627929,-0.0140484236180782,0.0151984095573425,-0.0001331579405814,-0.0005326317623257,0.0
1.7726402773099436e+18,2.968943603515625,-0.0752820968627929,-0.0043241716921329,-0.0038269907236099,0.0001331579405814,0.0013315794058144,0.0
1.7726402773299343e+18,2.988934326171875,-0.0704917907714843,-0.0043382160365581,-0.0086829476058483,-0.0003994738217443,0.0010652635246515,-0.0002663158811628
1.7726402773499254e+18,3.00892529296875,-0.0656995773315429,-0.0090867839753627,0.0054526291787624,0.0001331579405814,-0.0002663158811628,0.0
1.7726402773699162e+18,3.028916259765625,-0.051924705505371,-0.018459778279066,0.0148399882018566,0.0001331579405814,0.0,-0.0002663158811628
1.7726402773899072e+18,3.0489072265625,-0.0609073638916015,0.0055225305259227,0.0196925271302461,0.00093210558407,0.0013315794058144,-0.0005326317623257
1.7726402774098982e+18,3.068898193359375,-0.0656986236572265,-0.0090168714523315,0.0098161343485116,0.0006657897029072,0.0015978952869772,-0.0002663158811628
1.772640277429889e+18,3.088888916015625,-0.0561161041259765,0.0048375204205513,0.0192509405314922,-0.0006657897029072,0.0003994738217443,0.0001331579405814
1.77264027744988e+18,3.108880126953125,-0.0656967163085937,0.0006255768239498,0.0047457534819841,0.0001331579405814,-0.0006657897029072,0.0011984214652329
1.7726402774698708e+18,3.128870849609375,-0.0896520614624023,0.0143656246364116,0.0048752296715974,0.0003994738217443,0.0001331579405814,-0.0011984214652329
1.772640277489862e+18,3.14886181640625,-0.0752782821655273,-0.0041613243520259,-0.0098225492984056,-0.00093210558407,-0.00093210558407,0.0003994738217443
1.7726402775098527e+18,3.168852783203125,-0.0609045028686523,0.0006623640656471,-0.0146719180047512,0.0003994738217443,0.0006657897029072,-0.0006657897029072
1.7726402775298437e+18,3.18884375,-0.0519218444824218,-0.0136624760925769,-0.0050547868013381,0.00093210558407,-0.00093210558407,-0.0003994738217443
1.7726402775498348e+18,3.208834716796875,-0.0609045028686523,-0.0087495408952236,-0.0056686047464609,-0.00093210558407,-0.0001331579405814,0.0001331579405814
1.7726402775698255e+18,3.228825439453125,-0.0609045028686523,-0.0135186277329921,-0.0056851096451282,-0.0001331579405814,0.0006657897029072,0.0001331579405814
1.7726402775898166e+18,3.248816650390625,-0.0609035491943359,-0.0132351331412792,-0.0055439081043004,0.0003994738217443,-0.0006657897029072,0.0006657897029072
1.7726402776098074e+18,3.268807373046875,-0.0800676345825195,0.001143891364336,-0.0060536786913871,-0.0006657897029072,-0.0017310532275587,-0.00093210558407
1.7726402776297984e+18,3.28879833984375,-0.0609025955200195,0.0060402676463127,-0.0012305844575166,-0.0006657897029072,0.0003994738217443,-0.0003994738217443
1.7726402776497894e+18,3.30878955078125,-0.0561141967773437,0.0156115368008613,-0.0058285221457481,0.0003994738217443,-0.0003994738217443,-0.0003994738217443
1.7726402776697802e+18,3.3287802734375,-0.0609045028686523,0.015705294907093,-0.0057398658245801,0.0006657897029072,-0.0019973691087216,-0.0003994738217443
1.7726402776897713e+18,3.348771240234375,-0.0375499725341796,0.0251607745885849,0.0135945547372102,-0.0001331579405814,-0.0001331579405814,-0.0006657897029072
1.7726402777097623e+18,3.36876220703125,-0.0423402786254882,-0.0131451860070228,0.008822463452816,-0.0003994738217443,-0.0003994738217443,-0.0003994738217443
1.7726402777297533e+18,3.38875341796875,-0.0752782821655273,-0.0084940455853939,0.0231456160545349,0.0003994738217443,-0.0001331579405814,0.0003994738217443
1.7726402777497444e+18,3.408744384765625,-0.0561161041259765,0.0056969970464706,0.0196645110845565,-0.0001331579405814,-0.0006657897029072,0.0001331579405814
1.7726402777697354e+18,3.4287353515625,-0.0561151504516601,-0.0038993954658508,0.0242999512702226,-0.0003994738217443,-0.0003994738217443,0.0003994738217443
1.7726402777897265e+18,3.4487265625,-0.0561151504516601,-0.0039134137332439,0.0098413601517677,-0.0002663158811628,-0.0003994738217443,-0.0001331579405814
1.7726402778097175e+18,3.468717529296875,-0.0656967163085937,-0.0087652094662189,-0.0092296581715345,-0.0002663158811628,-0.0001331579405814,0.0006657897029072
1.7726402778297088e+18,3.488708740234375,-0.0609054565429687,0.0100303217768669,0.0003821421414613,-0.0005326317623257,0.0003994738217443,-0.0006657897029072
1.772640277869691e+18,3.52869091796875,-0.0609054565429687,-0.0133642219007015,0.005030520260334,-0.0007989476434886,0.0003994738217443,0.00093210558407
1.772640277889682e+18,3.548681884765625,-0.0561141967773437,0.0101173408329486,0.00021718069911,-0.0002663158811628,0.0006657897029072,-0.0003994738217443
1.772640277909673e+18,3.5686728515625,-0.0656967163085937,0.0195000357925891,-0.0095319282263517,0.0,-0.0001331579405814,0.0014647373463958
1.7726402779296643e+18,3.588664306640625,-0.0561161041259765,-0.0048337429761886,0.0102474130690097,-0.0005326317623257,0.00093210558407,-0.00093210558407
1.7726402779496553e+18,3.6086552734375,-0.0656986236572265,-0.0186297334730625,0.0144515503197908,0.0,0.00093210558407,0.0003994738217443
1.7726402779696463e+18,3.628646240234375,-0.0704898834228515,0.0053260065615177,0.0097831916064023,0.0,0.0006657897029072,-0.0014647373463958
1.7726402779896374e+18,3.648637451171875,-0.0656986236572265,0.0051181204617023,0.019266715273261,0.0002663158811628,-0.0003994738217443,-0.0006657897029072
1.7726402780096284e+18,3.66862841796875,-0.0561170578002929,-0.0091841109097003,0.0233545154333114,0.0015978952869772,0.0003994738217443,-0.0006657897029072
1.7726402780296195e+18,3.688619384765625,-0.0609064102172851,0.0005088709294795,0.0137329865247011,-0.0001331579405814,0.0003994738217443,0.0011984214652329
1.7726402780496105e+18,3.708610595703125,-0.0656976699829101,0.0005679354071617,-0.0047434791922569,0.0003994738217443,-0.0003994738217443,-0.0001331579405814
1.7726402780696018e+18,3.728601806640625,-0.0704879760742187,-0.0041577778756618,0.0185671169310808,0.0003994738217443,-0.00093210558407,-0.0003994738217443
1.7726402780895928e+18,3.7485927734375,-0.0519218444824218,0.0008483380079269,0.0040103290230035,0.0001331579405814,0.00093210558407,-0.0003994738217443
1.772640278109584e+18,3.768583984375,-0.0471305847167968,-0.0134483091533184,0.0040343776345252,-0.0011984214652329,-0.0001331579405814,0.0003994738217443
1.772640278129575e+18,3.788574951171875,-0.0609045028686523,0.0057673938572406,-0.0055629480630159,0.0001331579405814,-0.0017310532275587,0.0003994738217443
1.772640278149566e+18,3.80856591796875,-0.0609035491943359,0.0057667344808578,0.0080208703875541,-0.0001331579405814,0.00093210558407,0.0006657897029072
1.772640278169557e+18,3.828556884765625,-0.0609035491943359,0.0153883546590805,0.0223427023738622,-0.0006657897029072,-0.0001331579405814,0.0003994738217443
1.7726402781895483e+18,3.84854833984375,-0.0609025955200195,0.0058059357106685,0.0221865642815828,0.0017310532275587,-0.0006657897029072,-0.0003994738217443
1.7726402782095393e+18,3.868539306640625,-0.0609035491943359,0.0008124075829982,-0.0066769495606422,0.0015978952869772,0.0003994738217443,-0.0006657897029072
1.7726402782295304e+18,3.8885302734375,-0.0848588943481445,0.0056036077439785,0.0028790831565856,0.0,-0.0006657897029072,-0.0001331579405814
1.7726402782495214e+18,3.908521484375,-0.0704851150512695,-0.003965713083744,0.012369904667139,0.0,0.00093210558407,0.00093210558407
1.7726402782695124e+18,3.928512451171875,-0.0704841613769531,0.0106613524258136,0.0220044441521167,0.0007989476434886,-0.0001331579405814,-0.0006657897029072
1.7726402782895037e+18,3.948503662109375,-0.0656929016113281,0.0108103640377521,0.0123306531459093,-0.0002663158811628,-0.0006657897029072,-0.0001331579405814
1.7726402783094948e+18,3.968494873046875,-0.0609006881713867,-0.0130675919353961,-0.0022709220647811,-0.0007989476434886,0.0001331579405814,-0.0003994738217443
1.7726402783294858e+18,3.98848583984375,-0.0519170761108398,-0.01293870434165,-0.0023949481546878,0.0002663158811628,-0.0003994738217443,0.00093210558407
1.7726402783494769e+18,4.008476806640625,-0.0561094284057617,0.0254141427576541,0.0077534243464469,-0.0007989476434886,0.0001331579405814,0.0001331579405814
1.7726402783694682e+18,4.02846826171875,-0.0375442504882812,0.0013600289821624,0.0221257768571376,-0.0005326317623257,-0.0006657897029072,0.0003994738217443
1.7726402783894592e+18,4.048459228515625,-0.0423355102539062,0.0060975402593612,0.0222296826541423,-0.0005326317623257,-0.0001331579405814,-0.0011984214652329
1.7726402784094502e+18,4.0684501953125,-0.0471258163452148,0.0061484985053539,0.0125037990510463,0.0,0.0001331579405814,-0.0001331579405814
1.7726402784294413e+18,4.088441162109375,-0.0471267700195312,0.0060422793030738,0.0030510798096656,0.0005326317623257,-0.0014647373463958,-0.00093210558407
1.7726402784694236e+18,4.128423583984375,-0.0608997344970703,0.0059872642159461,0.0221210625022649,-0.0010652635246515,-0.0001331579405814,-0.0003994738217443
1.7726402784894147e+18,4.14841455078125,-0.0519180297851562,0.0058817826211452,0.0130973123013973,0.0005326317623257,-0.0003994738217443,-0.0003994738217443
1.7726402785094057e+18,4.16840576171875,-0.0800647735595703,0.0195764750242233,-0.0014009810984134,0.0005326317623257,-0.0003994738217443,0.0011984214652329
1.772640278529397e+18,4.18839697265625,-0.0704841613769531,0.005775798112154,0.0035718567669391,-0.0002663158811628,0.0001331579405814,-0.0001331579405814
1.772640278569379e+18,4.228379150390625,-0.0609006881713867,-0.0133946053683757,0.0063143372535705,0.0005326317623257,-0.0006657897029072,0.0003994738217443
1.77264027858937e+18,4.2483701171875,-0.0609006881713867,-0.0133682899177074,-0.0031812041997909,-0.0013315794058144,0.0006657897029072,-0.00093210558407
1.7726402786093614e+18,4.268361328125,-0.0800657272338867,0.0057942830026149,-0.0029387604445219,-0.0007989476434886,-0.0014647373463958,-0.0011984214652329
1.7726402786293524e+18,4.2883525390625,-0.0656929016113281,0.0055848993360996,0.015971103683114,-0.0002663158811628,-0.0006657897029072,-0.0001331579405814
1.7726402786493435e+18,4.308343505859375,-0.0656929016113281,0.0150993801653385,0.0060958452522754,-0.0005326317623257,-0.0003994738217443,-0.0003994738217443
1.7726402786693345e+18,4.32833447265625,-0.0519189834594726,0.005412645637989,0.0061172451823949,0.0,-0.0003994738217443,0.0003994738217443
1.7726402786893256e+18,4.34832568359375,-0.0519180297851562,0.0008363239467144,0.0055396948009729,0.0005326317623257,0.0006657897029072,-0.0006657897029072
1.7726402787093166e+18,4.368316650390625,-0.0519170761108398,-0.0038899183273315,0.0149720553308725,-0.0002663158811628,0.0006657897029072,-0.0001331579405814
1.7726402787293076e+18,4.3883076171875,-0.0375432968139648,0.0009592995047569,-0.0091999042779207,0.0,-0.0011984214652329,0.0003994738217443
1.7726402787492987e+18,4.408298583984375,-0.0608978271484375,0.0060094743967056,-0.0081174559891223,0.0005326317623257,0.0006657897029072,-0.0014647373463958
1.7726402787692897e+18,4.428289794921875,-0.0423345565795898,0.0010145232081413,0.0156860686838626,-0.0005326317623257,0.0001331579405814,-0.0006657897029072
1.7726402787892805e+18,4.448280517578125,-0.0519142150878906,-0.0132790692150592,0.0011324267834424,0.0010652635246515,0.0003994738217443,-0.00093210558407
1.7726402788092716e+18,4.468271484375,-0.0656890869140625,0.0058831050992012,-0.0081986784934997,0.0005326317623257,-0.0003994738217443,0.0001331579405814
1.7726402788292626e+18,4.4882626953125,-0.0704793930053711,-0.0034255981445312,-0.0082094650715589,0.0,-0.0014647373463958,-0.0003994738217443
1.7726402788692444e+18,4.528244384765625,-0.0561084747314453,0.0058526806533336,-0.0176422242075204,0.0,0.0011984214652329,-0.0003994738217443
1.7726402788892355e+18,4.5482353515625,-0.0656900405883789,0.010687094181776,-0.0078616347163915,0.0007989476434886,-0.0006657897029072,0.0003994738217443
1.7726402789092265e+18,4.5682265625,-0.0471248626708984,0.006097350269556,-0.0078081060200929,-0.0005326317623257,-0.0006657897029072,-0.0011984214652329
1.7726402789292173e+18,4.58821728515625,-0.0656900405883789,-0.0082651935517787,0.0209088716655969,0.0,0.0011984214652329,0.0001331579405814
1.7726402789492083e+18,4.608208251953125,-0.0800628662109375,0.0060440301895141,0.0065815839916467,0.0002663158811628,0.0006657897029072,-0.0006657897029072
1.7726402789691994e+18,4.628199462890625,-0.0608987808227539,0.0059278793632984,0.0209252797067165,0.0007989476434886,-0.0019973691087216,0.0001331579405814
1.7726402789891904e+18,4.6481904296875,-0.0561084747314453,-0.0083300471305847,0.0072479210793972,0.0005326317623257,-0.0001331579405814,-0.0006657897029072
1.7726402790091812e+18,4.66818115234375,-0.0704803466796875,-0.0033273063600063,-0.0166775714606046,0.0002663158811628,-0.0003994738217443,0.0001331579405814
1.7726402790291722e+18,4.688172119140625,-0.0608978271484375,0.0111305601894855,0.0025905184447765,-0.0015978952869772,0.0003994738217443,-0.00093210558407
1.7726402790491633e+18,4.708163330078125,-0.0656900405883789,0.0015438832342624,-0.0068206675350666,0.0005326317623257,-0.0017310532275587,-0.0003994738217443
1.772640279089145e+18,4.74814501953125,-0.0656881332397461,-0.0078010819852352,0.0170801244676113,-0.0005326317623257,-0.0003994738217443,0.0003994738217443
1.7726402791091361e+18,4.76813623046875,-0.060896873474121,0.006662867963314,-0.0019213240593671,-0.0015978952869772,-0.00093210558407,-0.00093210558407
1.7726402791291272e+18,4.788127197265625,-0.0656881332397461,-0.0078043714165687,0.0028684269636869,0.0010652635246515,-0.0006657897029072,-0.0011984214652329
1.7726402791491182e+18,4.8081181640625,-0.0752696990966796,-0.0029067359864711,0.0022168215364217,0.0002663158811628,-0.00093210558407,-0.0006657897029072
1.772640279169109e+18,4.82810888671875,-0.0608978271484375,0.0067141316831111,-0.0166038740426301,-0.0005326317623257,0.0014647373463958,-0.0001331579405814
1.7726402791891e+18,4.84810009765625,-0.0656900405883789,-0.0029173456132411,-0.011737996712327,-0.0007989476434886,0.0003994738217443,-0.0011984214652329
1.772640279209091e+18,4.868091064453125,-0.0423336029052734,-0.002758715301752,-0.0116114020347595,0.0007989476434886,-0.0003994738217443,-0.0011984214652329
1.7726402792290824e+18,4.888082275390625,-0.0279607772827148,0.0163241066038608,-0.0211554504930973,0.0005326317623257,0.0011984214652329,-0.00093210558407
1.7726402792490737e+18,4.90807373046875,-0.0656900405883789,0.0018414631485939,-0.0212742276489734,-0.0005326317623257,0.0001331579405814,0.0001331579405814
1.7726402792690647e+18,4.928064697265625,-0.0656900405883789,-0.0077820234000682,-0.0124238468706607,-0.0007989476434886,-0.0002663158811628,-0.0014647373463958
1.772640279289056e+18,4.948055908203125,-0.0848531723022461,-0.002832356840372,-0.0170276798307895,0.0,0.0,0.0003994738217443
1.772640279309047e+18,4.968047119140625,-0.0561084747314453,-0.0028825476765632,-0.007534934207797,0.0002663158811628,0.0005326317623257,0.00093210558407
1.7726402793290383e+18,4.988038330078125,-0.0423336029052734,-0.0029845908284187,0.0018906574696302,0.0005326317623257,0.0002663158811628,-0.00093210558407
1.7726402793490294e+18,5.008029296875,-0.0561075210571289,-0.0126004703342914,0.0124961882829666,-0.0007989476434886,0.0,0.0003994738217443
1.7726402793690207e+18,5.028020751953125,-0.0752696990966796,-0.0076942443847656,-0.0116444695740938,-0.0010652635246515,0.0,0.0003994738217443
1.772640279389012e+18,5.048011962890625,-0.0519123077392578,-0.0075800716876983,0.0024658814072608,-0.0005326317623257,0.0013315794058144,0.0001331579405814
1.772640279409003e+18,5.0680029296875,-0.0471229553222656,0.0017353631556034,-0.0023699346929788,0.0002663158811628,0.0005326317623257,0.00093210558407
1.7726402794289943e+18,5.087994384765625,-0.0519142150878906,0.0111915580928325,0.01198610663414,-0.0005326317623257,0.0005326317623257,0.0001331579405814
1.7726402794489853e+18,5.1079853515625,-0.051915168762207,0.0064917728304862,-0.0164675414562225,-0.0005326317623257,-0.0002663158811628,0.0001331579405814
1.7726402794689766e+18,5.1279765625,-0.0704803466796875,-0.0079751498997211,0.0074768308550119,-0.0002663158811628,0.0005326317623257,-0.0001331579405814
1.772640279488968e+18,5.147968017578125,-0.0519142150878906,-0.0125907510519027,0.0028409361839294,0.0002663158811628,0.0,-0.0001331579405814
1.772640279508959e+18,5.167958984375,-0.0519142150878906,-0.0077885873615741,0.012405976653099,-0.0005326317623257,0.0,-0.0001331579405814
1.7726402795489413e+18,5.20794140625,-0.0519161224365234,0.0113246254622936,0.0066427811980247,-0.0002663158811628,0.0013315794058144,0.0001331579405814
1.7726402795689326e+18,5.2279326171875,-0.0471248626708984,0.0111460536718368,0.0018513817340135,0.0,0.0002663158811628,0.0003994738217443
1.772640279588924e+18,5.247923828125,-0.0423345565795898,-0.0319725908339023,0.0016431007534265,-0.0010652635246515,0.0005326317623257,0.0003994738217443
1.772640279608915e+18,5.2679150390625,-0.047123908996582,-0.0080065056681633,0.0062700398266315,0.0007989476434886,-0.0007989476434886,0.0003994738217443
1.7726402796289062e+18,5.28790625,-0.0704813003540039,0.015918418765068,-0.003303125500679,0.0005326317623257,-0.0002663158811628,0.0001331579405814
1.7726402796488973e+18,5.307897216796875,-0.0704813003540039,0.0014886334538459,0.0014887899160385,0.0,-0.0002663158811628,0.0003994738217443
1.7726402796688886e+18,5.327888671875,-0.0471229553222656,0.0111524909734725,-0.0035027600824832,-0.0007989476434886,0.0002663158811628,-0.00093210558407
1.7726402796888799e+18,5.3478798828125,-0.0656881332397461,0.0113913714885711,0.0054738838225603,0.0010652635246515,0.0005326317623257,0.0003994738217443
1.7726402797088707e+18,5.36787060546875,-0.0561065673828125,0.0065342746675014,0.0007370114326477,-0.0002663158811628,-0.0018642111681401,-0.0003994738217443
1.7726402797288617e+18,5.38786181640625,-0.0519132614135742,-0.0028883032500743,0.0006869845092296,0.0,-0.0007989476434886,-0.0003994738217443
1.7726402797488527e+18,5.407852783203125,-0.0752696990966796,0.0113581046462059,-0.0122542157769203,0.0002663158811628,-0.0015978952869772,0.0006657897029072
1.7726402797688435e+18,5.427843505859375,-0.0704784393310546,0.0066576264798641,-0.0316202417016029,-0.0002663158811628,-0.0005326317623257,-0.0003994738217443
1.7726402797888346e+18,5.44783447265625,-0.0752687454223632,-0.0030255988240242,-0.0125875733792781,0.0013315794058144,-0.0002663158811628,-0.0001331579405814
1.7726402798088256e+18,5.46782568359375,-0.0656862258911132,-0.0124311074614524,-0.0077795274555683,0.0,0.0002663158811628,0.0003994738217443
1.7726402798288166e+18,5.487816650390625,-0.0471210479736328,-0.0027420185506343,-0.0221615061163902,-0.0005326317623257,0.0013315794058144,-0.0003994738217443
1.7726402798488074e+18,5.507807373046875,-0.0561037063598632,-0.0074173808097839,-0.0173358935862779,0.0007989476434886,-0.0002663158811628,-0.0006657897029072
1.7726402798887895e+18,5.54778955078125,-0.0656871795654296,0.0115250125527381,-0.0075734909623861,-0.0007989476434886,0.0010652635246515,-0.0001331579405814
1.7726402799087803e+18,5.5677802734375,-0.0471210479736328,0.0069795213639736,-0.0123922582715749,0.0,-0.0002663158811628,0.00093210558407
1.7726402799287713e+18,5.587771240234375,-0.0423297882080078,-0.0071740187704563,-0.0074799824506044,-0.0002663158811628,0.0007989476434886,0.0014647373463958
1.7726402799487624e+18,5.607762451171875,-0.0608940124511718,0.0024530999362468,-0.003122754395008,0.0002663158811628,0.0,0.0003994738217443
1.7726402799687534e+18,5.62775341796875,-0.0561027526855468,0.0074892975389957,-0.0031658932566642,0.0005326317623257,0.0005326317623257,-0.0001331579405814
1.7726402800087352e+18,5.6677353515625,-0.0608940124511718,0.0026667155325412,-0.0125210639089345,0.0002663158811628,-0.002130527049303,-0.0001331579405814
1.7726402800287263e+18,5.687726318359375,-0.0519113540649414,0.0027637705206871,0.0021646358072757,-0.0002663158811628,0.0002663158811628,-0.0003994738217443
1.772640280048717e+18,5.707717041015625,-0.0656852722167968,0.0027558840811252,0.021291933953762,0.0010652635246515,0.0,0.0006657897029072
1.772640280068708e+18,5.7277080078125,-0.0519123077392578,0.0026443637907505,0.0021799448877573,-0.0005326317623257,-0.0002663158811628,-0.0003994738217443
1.7726402800886991e+18,5.74769921875,-0.0561065673828125,0.0119406022131443,0.0022309608757495,-0.0010652635246515,-0.0007989476434886,-0.0011984214652329
1.77264028010869e+18,5.76768994140625,-0.0519142150878906,-0.0120466277003288,0.0117424521595239,-0.0002663158811628,0.0,-0.0001331579405814
1.772640280128681e+18,5.787680908203125,-0.060896873474121,0.0023202523589134,-0.0169677156955003,-0.0005326317623257,0.0002663158811628,0.0003994738217443
1.772640280148672e+18,5.807672119140625,-0.0608987808227539,0.0165039002895355,-0.0256904754787683,0.0,-0.0002663158811628,0.0001331579405814
1.772640280168663e+18,5.8276630859375,-0.0656909942626953,-0.0218375660479068,-0.015658127143979,0.0,0.0005326317623257,0.0001331579405814
1.7726402801886538e+18,5.84765380859375,-0.0752716064453125,-0.0122867189347743,0.0177450105547904,-0.0005326317623257,-0.0013315794058144,0.0001331579405814
1.7726402802086444e+18,5.867644287109375,-0.0471258163452148,0.0115919783711433,0.0083079505711793,0.0007989476434886,-0.0002663158811628,0.0001331579405814
1.7726402802286346e+18,5.887634521484375,-0.0519170761108398,-0.0026736669242382,-0.0107798613607883,-0.0010652635246515,-0.0007989476434886,0.0003994738217443
1.772640280248625e+18,5.907625,-0.0800647735595703,-0.0027744695544242,-0.010053502395749,-0.0010652635246515,0.0002663158811628,0.0006657897029072
1.7726402802686152e+18,5.927615234375,-0.0656919479370117,-0.0028753466904163,0.009097272530198,0.0,0.0,0.0006657897029072
1.7726402802886054e+18,5.94760546875,-0.0327529907226562,0.0115779899060726,-0.0054181609302759,0.0,-0.0005326317623257,-0.0006657897029072
1.7726402803085957e+18,5.967595703125,-0.0609016418457031,0.0163356997072696,-0.0051963496953248,0.0002663158811628,0.0015978952869772,-0.0003994738217443
1.7726402803285862e+18,5.987586181640625,-0.0519170761108398,0.0069471970200538,0.0041200406849384,-0.0007989476434886,-0.0002663158811628,-0.0011984214652329
1.7726402803485765e+18,6.007576416015625,-0.0423345565795898,0.016599278897047,0.0178108159452676,-0.0007989476434886,-0.0002663158811628,0.0001331579405814
1.7726402803685668e+18,6.02756689453125,-0.0375432968139648,0.0071062818169593,0.0132600087672472,-0.0005326317623257,0.0002663158811628,-0.0001331579405814
1.772640280388557e+18,6.04755712890625,-0.0561084747314453,0.0166017524898052,0.0177067928016185,-0.0010652635246515,0.0005326317623257,0.0006657897029072
1.7726402804085473e+18,6.06754736328125,-0.0608987808227539,0.0166716538369655,-0.0056357197463512,-0.0005326317623257,0.0005326317623257,-0.0003994738217443
1.7726402804285376e+18,6.08753759765625,-0.0656900405883789,-0.0073759853839874,-0.0104560498148202,0.0010652635246515,0.0002663158811628,0.0001331579405814
1.772640280448528e+18,6.10752783203125,-0.0423345565795898,0.0164407379925251,0.003808993846178,-0.0010652635246515,0.0015978952869772,0.0006657897029072
1.7726402804685181e+18,6.12751806640625,-0.0423355102539062,-0.0027721524238586,0.0089522525668144,0.0,-0.0005326317623257,-0.00093210558407
1.7726402804885087e+18,6.1475087890625,-0.0561103820800781,-0.0028215497732162,-0.0053030792623758,0.0007989476434886,0.0002663158811628,-0.0001331579405814
1.772640280508499e+18,6.1674990234375,-0.0519170761108398,0.0070057548582553,0.0089516956359148,0.0007989476434886,0.0010652635246515,-0.0003994738217443
1.7726402805284892e+18,6.1874892578125,-0.0471248626708984,-0.0025737136602401,0.0135629381984472,0.0,-0.0005326317623257,0.0003994738217443
1.7726402805484795e+18,6.2074794921875,-0.0423345565795898,0.0069920793175697,-0.0012986958026885,0.0007989476434886,0.0,0.0014647373463958
1.7726402805684698e+18,6.2274697265625,-0.0656909942626953,-0.0122028738260269,-0.010856844484806,0.0010652635246515,0.0018642111681401,0.0006657897029072
1.77264028058846e+18,6.2474599609375,-0.0656909942626953,-0.0121810659766197,0.0084509178996086,0.0,0.0010652635246515,0.0003994738217443
1.7726402806084503e+18,6.2674501953125,-0.0471258163452148,-0.0071694888174533,0.0039692148566246,0.0,0.0,0.0006657897029072
1.7726402806284406e+18,6.287440673828125,-0.0608997344970703,0.002145130187273,0.0038610082119703,0.0002663158811628,0.0005326317623257,0.0001331579405814
1.7726402806484308e+18,6.307430908203125,-0.0423355102539062,-0.0169387869536876,-0.0009814463555812,-0.0007989476434886,0.0005326317623257,0.0014647373463958
1.7726402806684214e+18,6.32742138671875,-0.0704822540283203,-0.0074094459414482,0.013453297317028,0.0005326317623257,0.0002663158811628,0.0006657897029072
1.7726402806884116e+18,6.34741162109375,-0.0561113357543945,0.0019962526857852,0.0038989353924989,0.0007989476434886,-0.0002663158811628,0.00093210558407
1.7726402807084022e+18,6.367402099609375,-0.0561113357543945,0.0019765980541706,-0.0104704480618238,-0.0002663158811628,-0.0002663158811628,0.0003994738217443
1.7726402807283924e+18,6.387392333984375,-0.0656919479370117,0.0116244256496429,-0.0009559635072946,-0.0005326317623257,0.0005326317623257,0.0001331579405814
1.772640280748383e+18,6.407383056640625,-0.0608997344970703,0.0164240039885044,0.022030921652913,-0.0005326317623257,-0.0013315794058144,-0.0001331579405814
1.7726402807683738e+18,6.427373779296875,-0.0656900405883789,-0.0075355321168899,0.0122985690832138,-0.0010652635246515,0.0002663158811628,-0.0003994738217443
1.7726402807883643e+18,6.4473642578125,-0.0519161224365234,-0.0027550272643566,0.0219238940626382,-0.0002663158811628,0.0010652635246515,0.00093210558407
1.7726402808083548e+18,6.467354736328125,-0.0279617309570312,-0.0074424482882022,0.0024773757904767,0.0002663158811628,-0.0013315794058144,-0.0006657897029072
1.7726402808283453e+18,6.487345458984375,-0.0375442504882812,0.0115782096982002,0.002612181007862,-0.0005326317623257,-0.0002663158811628,-0.0003994738217443
1.772640280848336e+18,6.5073359375,-0.0608987808227539,0.0068101286888122,-0.0022959038615226,0.0005326317623257,-0.0005326317623257,-0.0001331579405814
1.7726402808683264e+18,6.527326416015625,-0.0656890869140625,0.0165517702698707,-0.02164295502007,0.0007989476434886,0.0002663158811628,-0.0001331579405814
1.772640280888317e+18,6.54731689453125,-0.0423316955566406,-0.0119767561554908,0.0021339580416679,0.0,0.0018642111681401,0.0011984214652329
1.7726402809083075e+18,6.567307373046875,-0.0423316955566406,-0.0023527294397354,0.0213438086211681,0.0,0.0,-0.0003994738217443
1.772640280928298e+18,6.587298095703125,-0.032750129699707,-0.012030828744173,0.0117732994258403,-0.0013315794058144,-0.0005326317623257,-0.0001331579405814
1.7726402809482885e+18,6.60728857421875,-0.0471229553222656,0.0118321441113948,0.0170073304325342,0.0005326317623257,-0.0005326317623257,0.0003994738217443
1.772640280968279e+18,6.627279052734375,-0.051915168762207,0.0211985297501087,0.0169555302709341,-0.0002663158811628,0.0005326317623257,-0.0006657897029072
1.7726402809882696e+18,6.64726953125,-0.060896873474121,0.0069525055587291,0.0169560369104146,0.0002663158811628,-0.0002663158811628,-0.0001331579405814
1.77264028100826e+18,6.667260009765625,-0.037541389465332,0.0020888857543468,0.0121749676764011,0.0,0.0005326317623257,0.0003994738217443
1.7726402810282506e+18,6.687250732421875,-0.0519132614135742,0.0166217610239982,-0.0023137032985687,-0.0010652635246515,0.0015978952869772,0.0006657897029072
1.7726402810482412e+18,6.7072412109375,-0.056105613708496,-0.0027615241706371,0.0117039643228054,0.0015978952869772,-0.0002663158811628,0.0006657897029072
1.7726402810682317e+18,6.727231689453125,-0.0656871795654296,-0.0075007043778896,0.0118188913911581,-0.0005326317623257,0.0005326317623257,0.0006657897029072
1.7726402810882222e+18,6.74722216796875,-0.0471229553222656,-0.0077091977000236,0.021184254437685,0.0001331579405814,-0.0001331579405814,0.0010652635246515
1.7726402811082127e+18,6.767212646484375,-0.0519132614135742,-0.0076565816998481,0.016291094943881,0.0011984214652329,0.0001331579405814,-0.0002663158811628
1.7726402811282033e+18,6.787203369140625,-0.0561065673828125,-0.0030834674835205,-0.0171745792031288,-0.0001331579405814,-0.0001331579405814,-0.0005326317623257
1.7726402811481938e+18,6.80719384765625,-0.0561046600341796,0.0066784396767616,-0.0078018084168434,-0.0001331579405814,-0.00093210558407,0.0005326317623257
1.7726402811881748e+18,6.8471748046875,-0.0471200942993164,-0.0026328116655349,0.0018238518387079,0.0003994738217443,-0.0025300008710473,0.0007989476434886
1.7726402812081667e+18,6.867166748046875,-0.0519123077392578,0.0021902248263359,0.001959478482604,-0.00093210558407,0.0006657897029072,-0.0010652635246515
1.7726402812281587e+18,6.88715869140625,-0.0519123077392578,0.0021694898605346,0.0067185517400503,0.0006657897029072,-0.0003994738217443,0.0
1.772640281248151e+18,6.907151123046875,-0.0608949661254882,-0.0026839561760425,0.0258111525326967,-0.0001331579405814,-0.0003994738217443,0.0002663158811628
1.7726402812681434e+18,6.927143310546875,-0.0561046600341796,-0.0026943758130073,0.0161256548017263,-0.0001331579405814,0.0001331579405814,0.0
1.7726402813081277e+18,6.967127685546875,-0.0375394821166992,0.0064427480101585,-0.0032884385436773,0.0003994738217443,-0.0006657897029072,-0.0005326317623257
1.7726402813281198e+18,6.987119873046875,-0.0519142150878906,-0.0033576041460037,-0.0081850606948137,-0.0014647373463958,-0.0017310532275587,0.0002663158811628
1.7726402813481121e+18,7.007112060546875,-0.0471229553222656,0.0108720213174819,0.0113796386867761,-0.0006657897029072,0.0001331579405814,-0.0002663158811628
1.7726402813880965e+18,7.047096435546875,-0.0608959197998046,-0.0033410377800464,0.0017887689173221,0.0001331579405814,-0.0003994738217443,0.0013315794058144
1.7726402814080886e+18,7.067088623046875,-0.0471210479736328,-0.0080790296196937,-0.0077946316450834,0.0003994738217443,0.0001331579405814,0.0
1.772640281428081e+18,7.087080810546875,-0.0704793930053711,0.0202426500618457,0.0064949132502079,0.0006657897029072,-0.0001331579405814,-0.0002663158811628
1.7726402814480732e+18,7.1070732421875,-0.0656900405883789,0.0103622637689113,0.0257439631968736,0.0006657897029072,-0.0003994738217443,-0.0005326317623257
1.7726402814680653e+18,7.127065185546875,-0.0656900405883789,0.000867161899805,-0.0029086675494909,-0.0001331579405814,0.0006657897029072,0.0
1.7726402814880576e+18,7.1470576171875,-0.0608987808227539,0.0104113928973674,-0.0028674118220806,-0.0001331579405814,-0.0001331579405814,-0.0010652635246515
1.7726402815080497e+18,7.167049560546875,-0.0608978271484375,0.0058016143739223,0.0064749550074338,-0.0003994738217443,-0.0017310532275587,0.0007989476434886
1.772640281528042e+18,7.1870419921875,-0.051915168762207,-0.0182344056665897,-0.0025197714567184,0.0006657897029072,-0.0006657897029072,-0.0005326317623257
1.772640281548034e+18,7.207033935546875,-0.037541389465332,-0.0132743902504444,0.0152400024235248,0.0001331579405814,0.0006657897029072,-0.0007989476434886
1.7726402815680264e+18,7.2270263671875,-0.0471210479736328,-0.0084284022450447,0.0197113864123821,0.0011984214652329,-0.0019973691087216,0.0010652635246515
1.7726402815880184e+18,7.247018310546875,-0.0519113540649414,0.0060204230248928,-0.0043034646660089,-0.0001331579405814,0.0001331579405814,0.0002663158811628
1.7726402816080108e+18,7.2670107421875,-0.0519113540649414,-0.0082454495131969,0.0004701372236013,0.00093210558407,-0.0001331579405814,0.0007989476434886
1.7726402816280028e+18,7.2870029296875,-0.0656862258911132,0.0203366093337535,0.0148461982607841,-0.0006657897029072,-0.0006657897029072,0.0005326317623257
1.7726402816479951e+18,7.3069951171875,-0.0519113540649414,-0.0034173689782619,0.0245152655988931,-0.0014647373463958,0.0001331579405814,0.0
1.7726402816679872e+18,7.3269873046875,-0.0375394821166992,0.0157493688166141,0.0008555278182029,0.0003994738217443,0.0001331579405814,0.0005326317623257
1.7726402817079706e+18,7.366970458984375,-0.0561046600341796,0.001442827284336,-0.0182851254940032,-0.0001331579405814,0.00093210558407,-0.0005326317623257
1.772640281727961e+18,7.386961181640625,-0.0519123077392578,0.0062048844993114,-0.0091424398124217,0.0001331579405814,-0.0001331579405814,-0.0013315794058144
1.7726402817479516e+18,7.40695166015625,-0.0519123077392578,0.0015522800385951,0.0058527067303657,0.0003994738217443,-0.0003994738217443,0.0
1.772640281767942e+18,7.42694189453125,-0.0519123077392578,0.0063663274049758,0.0060840621590614,0.0003994738217443,-0.0003994738217443,-0.0005326317623257
1.7726402817879324e+18,7.446932373046875,-0.056105613708496,-0.0176175981760025,-0.0081830788403749,0.00093210558407,-0.0003994738217443,-0.0013315794058144
1.772640281807923e+18,7.4669228515625,-0.0519123077392578,-0.0079295746982097,0.0108877420425415,0.0011984214652329,-0.0011984214652329,-0.0002663158811628
1.7726402818279135e+18,7.48691357421875,-0.0561046600341796,-0.0030955038964748,0.0060660187155008,0.00093210558407,-0.00093210558407,-0.0010652635246515
1.772640281847904e+18,7.506904052734375,-0.0279579162597656,0.0112893022596836,0.0252626109868288,0.0006657897029072,-0.0006657897029072,-0.0002663158811628
1.7726402818678945e+18,7.52689453125,-0.0519123077392578,0.0064685754477977,0.0204620696604251,-0.0001331579405814,-0.00093210558407,0.0002663158811628
1.7726402818878848e+18,7.546884765625,-0.0561037063598632,-0.002965722233057,0.00106992572546,-0.0001331579405814,0.0017310532275587,-0.0005326317623257
1.7726402819078753e+18,7.566875244140625,-0.0608940124511718,-0.0029225945472717,0.0011026412248611,0.0006657897029072,-0.0011984214652329,-0.0010652635246515
1.7726402819278659e+18,7.586865966796875,-0.0608940124511718,0.001900590956211,0.001030595973134,0.0011984214652329,0.0003994738217443,-0.0002663158811628
1.7726402819478564e+18,7.6068564453125,-0.0375385284423828,0.0112333074212074,0.0105204600840806,0.0011984214652329,0.0003994738217443,0.0002663158811628
1.772640281967847e+18,7.626846923828125,-0.0519123077392578,-0.0033048726618289,0.0153123997151851,-0.0003994738217443,0.0003994738217443,-0.0002663158811628
1.7726402819878374e+18,7.64683740234375,-0.0375394821166992,-0.008198108524084,0.0104290470480918,-0.0003994738217443,-0.0001331579405814,0.0
1.7726402820078277e+18,7.66682763671875,-0.0561046600341796,0.0013653971254825,0.0006721168756484,-0.0001331579405814,-0.0011984214652329,0.0
1.7726402820278182e+18,7.686818359375,-0.0375385284423828,-0.0034861490130424,-0.0042834542691707,0.0001331579405814,-0.0001331579405814,0.0
1.7726402820478088e+18,7.706808837890625,-0.0519113540649414,0.0060662366449832,0.0052690412849187,-0.00093210558407,-0.0014647373463958,0.0
1.7726402820677993e+18,7.72679931640625,-0.0327472686767578,-0.0321537069976329,-0.0042159967124462,0.0006657897029072,-0.0006657897029072,0.0005326317623257
1.7726402820877898e+18,7.746789794921875,-0.0561046600341796,-0.0081446021795272,-0.004015926271677,-0.0006657897029072,-0.0003994738217443,0.0002663158811628
1.7726402821077804e+18,7.7667802734375,-0.0608940124511718,0.00619862601161,0.0101079531013965,-0.0003994738217443,0.0001331579405814,0.0005326317623257
1.7726402821277706e+18,7.7867705078125,-0.0471200942993164,-0.0080679357051849,0.0149523336440324,0.0003994738217443,-0.0001331579405814,0.0002663158811628
1.7726402821477612e+18,7.80676123046875,-0.0561046600341796,-0.0080653056502342,0.0014194715768098,-0.0006657897029072,0.0014647373463958,0.0002663158811628
1.7726402821677517e+18,7.826751708984375,-0.0471200942993164,-0.0078552514314651,-0.0032257735729217,-0.0001331579405814,0.0003994738217443,0.0007989476434886
1.7726402821877422e+18,7.8467421875,-0.047119140625,-0.0076968297362327,0.0111054815351963,-0.0001331579405814,-0.0001331579405814,-0.0002663158811628
1.7726402822077327e+18,7.866732666015625,-0.0608930587768554,-0.007747009396553,0.0015033241361379,-0.0001331579405814,0.0003994738217443,-0.0013315794058144
1.7726402822277235e+18,7.8867236328125,-0.0561027526855468,0.0115315727889537,-0.0176386628299951,-0.0001331579405814,0.0003994738217443,0.0002663158811628
1.7726402822477143e+18,7.90671435546875,-0.0375385284423828,0.0163230001926422,-0.0174587853252887,-0.0006657897029072,0.0006657897029072,0.0007989476434886
1.772640282267705e+18,7.926705078125,-0.0423297882080078,0.0068134367465972,-0.0076172016561031,0.0001331579405814,0.0003994738217443,0.0005326317623257
1.7726402823076867e+18,7.966686767578125,-0.0423288345336914,0.0070636086165905,0.0068988148123025,0.0003994738217443,0.0006657897029072,0.0
1.7726402823276772e+18,7.98667724609375,-0.0423297882080078,-0.0122970230877399,-0.0122543312609195,-0.0006657897029072,-0.0003994738217443,0.0007989476434886
1.772640282347668e+18,8.00666796875,-0.0519113540649414,0.0020039565861225,0.0067212916910648,0.0003994738217443,0.0001331579405814,-0.0002663158811628
1.7726402823676588e+18,8.02665869140625,-0.0656843185424804,0.00208730250597,-0.0077048670500516,-0.0003994738217443,-0.0003994738217443,-0.0002663158811628
1.7726402824076403e+18,8.066640380859376,-0.0423297882080078,-0.012260653078556,-0.0069481395184993,-0.0003994738217443,0.0003994738217443,-0.0002663158811628
1.7726402824276308e+18,8.086630859375,-0.0519113540649414,0.0020400993525981,0.0122920591384172,-0.0001331579405814,-0.00093210558407,0.0002663158811628
1.7726402824476216e+18,8.10662158203125,-0.0704765319824218,-0.0027073547244071,0.0075361058115959,-0.0006657897029072,0.0001331579405814,-0.0002663158811628
1.7726402824676124e+18,8.1266123046875,-0.0561037063598632,-0.017134204506874,-0.0020927209407091,0.0006657897029072,-0.0003994738217443,0.0002663158811628
1.772640282507594e+18,8.166593994140625,-0.0423297882080078,0.0020540654659271,-0.0067989993840456,0.0017310532275587,-0.0003994738217443,-0.0002663158811628
1.7726402825275848e+18,8.186584716796874,-0.0519113540649414,0.0021645948290824,-0.0066270474344491,0.0001331579405814,-0.0001331579405814,-0.0002663158811628
1.7726402825475756e+18,8.206575439453125,-0.0608940124511718,-0.0027455762028694,0.0069750528782606,0.0003994738217443,-0.0006657897029072,-0.0002663158811628
1.772640282567566e+18,8.226566162109375,-0.0519113540649414,-0.0170420333743095,-0.0071721300482749,0.0006657897029072,-0.00093210558407,0.0002663158811628
1.7726402826075476e+18,8.266547607421876,-0.0561046600341796,-0.007570806890726,0.0113730523735284,0.0001331579405814,-0.0001331579405814,-0.0010652635246515
1.7726402826275384e+18,8.286538330078125,-0.0561046600341796,0.0018874108791351,0.0112429969012737,0.0001331579405814,-0.0006657897029072,-0.0005326317623257
1.7726402826475292e+18,8.306529296875,-0.0656862258911132,-0.0075877793133258,0.0017088949680328,-0.0001331579405814,0.0011984214652329,0.0002663158811628
1.7726402826675197e+18,8.326519775390626,-0.0519113540649414,0.0019746385514736,0.0015489812940359,-0.0001331579405814,-0.0001331579405814,-0.0007989476434886
1.7726402827075013e+18,8.366501220703125,-0.0608949661254882,0.020980879664421,-0.007954804226756,0.0006657897029072,-0.00093210558407,-0.0007989476434886
1.772640282727492e+18,8.3864921875,-0.0519132614135742,0.0015899874269962,-0.0127673782408237,-0.0006657897029072,0.00093210558407,-0.0005326317623257
1.7726402827474831e+18,8.406483154296875,-0.060896873474121,0.0063511840999126,-0.0032301973551511,-0.0001331579405814,0.0006657897029072,0.0002663158811628
1.772640282767474e+18,8.426473876953125,-0.042332649230957,-0.0033427625894546,0.0157403722405433,-0.0014647373463958,0.00093210558407,-0.0013315794058144
1.7726402827874647e+18,8.446464599609374,-0.0423307418823242,-0.0128051936626434,0.0059887170791625,0.0001331579405814,-0.0003994738217443,0.0002663158811628
1.7726402828074555e+18,8.46645556640625,-0.056105613708496,-0.0032824464142322,0.0060797687619924,-0.0003994738217443,0.0001331579405814,-0.0002663158811628
1.7726402828274463e+18,8.4864462890625,-0.060896873474121,0.0109972357749938,-0.0082220844924449,0.0001331579405814,0.0001331579405814,-0.0005326317623257
1.7726402828474373e+18,8.506437255859375,-0.0471220016479492,0.015736199915409,0.0012522991746664,-0.0003994738217443,0.0006657897029072,0.0005326317623257
1.772640282867428e+18,8.526427978515626,-0.056105613708496,0.0013972446322441,0.015588816255331,-0.0006657897029072,0.00093210558407,-0.0013315794058144
1.772640282887419e+18,8.5464189453125,-0.0561046600341796,-0.0129601955413818,-0.0085545238107442,0.0001331579405814,0.0006657897029072,-0.0002663158811628
1.7726402829074097e+18,8.56640966796875,-0.0471200942993164,-0.0128403641283512,0.0057013314217329,-0.00093210558407,0.0001331579405814,-0.0007989476434886
1.7726402829274004e+18,8.586400390625,-0.0561046600341796,-0.0034739486873149,0.0151959117501974,0.00093210558407,-0.0006657897029072,0.0005326317623257
1.7726402829473912e+18,8.60639111328125,-0.0519132614135742,0.0156368538737297,0.0009756609797477,0.0001331579405814,-0.0006657897029072,0.0005326317623257
1.7726402829673823e+18,8.62638232421875,-0.0327482223510742,0.0107537880539894,0.0197809189558029,-0.0001331579405814,0.0001331579405814,-0.0015978952869772
1.772640282987373e+18,8.646373046875,-0.0519142150878906,-0.0036777481436729,-0.0038513801991939,-0.0001331579405814,0.0001331579405814,0.0
1.7726402830073638e+18,8.66636376953125,-0.0519123077392578,0.0062401220202445,-0.0039462186396121,0.0003994738217443,0.0002663158811628,-0.0006657897029072
1.7726402830273546e+18,8.686354736328125,-0.0519123077392578,0.0061065033078193,0.0056751035153865,-0.0001331579405814,0.0005326317623257,-0.0001331579405814
1.7726402830473454e+18,8.706345458984375,-0.0519123077392578,-0.00337790325284,-0.004001522436738,0.0003994738217443,0.0002663158811628,0.0003994738217443
1.7726402830673364e+18,8.72633642578125,-0.0423307418823242,-0.0081128366291522,-0.00851128436625,0.0007989476434886,0.0002663158811628,0.0006657897029072
1.772640283107318e+18,8.766318115234375,-0.0423297882080078,0.001495711505413,0.020058212801814,0.0002663158811628,-0.0002663158811628,0.0001331579405814
1.7726402831273088e+18,8.786308837890624,-0.0561027526855468,-0.003093734383583,0.0245825201272964,-0.0007989476434886,0.0002663158811628,0.0006657897029072
1.7726402831472996e+18,8.806299560546876,-0.0561017990112304,0.0160691514611244,0.0105224922299385,-0.0002663158811628,0.0002663158811628,0.0001331579405814
1.7726402831672904e+18,8.826290283203125,-0.0656843185424804,0.0015728361904621,0.0058216545730829,0.0006657897029072,-0.0005326317623257,0.0006657897029072
1.7726402831872814e+18,8.846281494140625,-0.0704755783081054,0.0016579777002334,0.0010795965790748,0.0001331579405814,0.0010652635246515,-0.0001331579405814
1.7726402832072727e+18,8.866272705078124,-0.0608930587768554,0.0016910396516323,0.0012331195175647,0.0006657897029072,0.0007989476434886,-0.0001331579405814
1.7726402832272645e+18,8.886264404296876,-0.0561037063598632,0.0016200803220272,-0.0128998346626758,-0.0001331579405814,-0.0010652635246515,0.0001331579405814
1.7726402832472563e+18,8.90625634765625,-0.0471200942993164,-0.0079573802649974,0.0157572031021118,0.0006657897029072,0.0002663158811628,-0.00093210558407
1.772640283267248e+18,8.926248046875,-0.0608930587768554,-0.0032260790467262,0.0064451266080141,-0.0003994738217443,-0.0002663158811628,0.0003994738217443
1.7726402833072317e+18,8.966231689453124,-0.032745361328125,0.0016842447221279,0.001543765887618,0.0001331579405814,-0.0013315794058144,-0.0006657897029072
1.7726402833272236e+18,8.9862236328125,-0.042327880859375,-0.0078680887818336,-0.0081232916563749,0.0003994738217443,0.0002663158811628,0.0001331579405814
1.7726402833472154e+18,9.00621533203125,-0.065683364868164,0.0015846043825149,0.009819908067584,0.0006657897029072,0.0,0.0011984214652329
1.7726402833672072e+18,9.026207275390624,-0.060892105102539,-0.0032134614884853,-0.0045939423143863,0.0006657897029072,-0.0002663158811628,-0.0003994738217443
1.772640283387199e+18,9.046198974609377,-0.047119140625,0.0014547482132911,-0.0044260658323764,0.0001331579405814,-0.0013315794058144,-0.0001331579405814
1.7726402834071908e+18,9.066190673828125,-0.0561027526855468,0.0062675103545188,-0.0140268635004758,0.0001331579405814,0.0,0.0006657897029072
1.7726402834271826e+18,9.0861826171875,-0.0561027526855468,0.0013539791107177,-0.0094218887388706,0.0003994738217443,0.0005326317623257,0.0003994738217443
1.7726402834471744e+18,9.10617431640625,-0.03753662109375,0.0061674267053604,0.0144986491650342,0.0001331579405814,0.0002663158811628,-0.0006657897029072
1.7726402834671662e+18,9.126166259765624,-0.047119140625,0.0013582482933998,0.0096846912056207,0.0001331579405814,-0.0007989476434886,-0.0003994738217443
1.772640283487158e+18,9.146157958984375,-0.0608930587768554,0.0060157254338264,0.0095057375729084,-0.0001331579405814,-0.0002663158811628,-0.0003994738217443
1.7726402835071498e+18,9.16614990234375,-0.0561037063598632,-0.0036245323717594,0.0144709385931491,0.0001331579405814,-0.0010652635246515,0.0003994738217443
1.7726402835271416e+18,9.1861416015625,-0.0471181869506835,0.0012529045343399,0.0190073978155851,-0.0001331579405814,0.0,0.0011984214652329
1.7726402835471334e+18,9.206133544921874,-0.0375385284423828,0.0011308118700981,0.0005983300507068,0.0006657897029072,-0.0002663158811628,-0.0001331579405814
1.7726402835671252e+18,9.226125244140626,-0.0561037063598632,0.0058408342301845,0.0053769927471876,0.00093210558407,0.0002663158811628,-0.0022636849898844
1.7726402836071089e+18,9.26610888671875,-0.0519113540649414,-0.0038683824241161,-0.0090908259153366,-0.0001331579405814,-0.0013315794058144,0.0011984214652329
1.7726402836271007e+18,9.2861005859375,-0.0423307418823242,-0.0087577328085899,-0.0186274442821741,-0.0001331579405814,0.0018642111681401,-0.0001331579405814
1.7726402836470925e+18,9.306092529296874,-0.0561027526855468,-0.013374350965023,-0.0141152963042259,-0.0011984214652329,-0.0007989476434886,-0.0001331579405814
1.7726402836670843e+18,9.326084228515626,-0.060892105102539,0.0010365024209022,-0.0045755170285701,0.00093210558407,-0.0002663158811628,0.0003994738217443
1.772640283687076e+18,9.346076171875,-0.0519094467163085,0.0010671503841876,0.0144488643854856,-0.0006657897029072,0.0002663158811628,0.0003994738217443
1.7726402837070676e+18,9.366067626953123,-0.0471181869506835,0.0106082670390605,-0.0047032069414854,0.0001331579405814,0.0010652635246515,-0.0003994738217443
1.772640283727059e+18,9.386058837890625,-0.0561017990112304,0.005788005888462,0.0048145335167646,0.0001331579405814,0.0,-0.0003994738217443
1.7726402837470502e+18,9.40605029296875,-0.0704765319824218,0.0102781392633914,-0.0041580107063055,-0.00093210558407,-0.0005326317623257,0.0006657897029072
1.7726402837670415e+18,9.42604150390625,-0.0423297882080078,0.0055500231683254,-0.0136019270867109,-0.0003994738217443,-0.0018642111681401,0.0003994738217443
1.7726402837870328e+18,9.44603271484375,-0.0519113540649414,0.005599770694971,-0.013360071927309,0.0001331579405814,-0.0005326317623257,-0.0006657897029072
1.7726402838070244e+18,9.4660244140625,-0.0561046600341796,0.0145058445632457,-0.0227821432054042,0.0003994738217443,0.0005326317623257,-0.00093210558407
1.7726402838270157e+18,9.486015625,-0.0752696990966796,0.0095460750162601,-0.0082325488328933,-0.0003994738217443,0.0005326317623257,-0.0001331579405814
1.772640283847007e+18,9.506007080078126,-0.0471229553222656,-0.0042584054172039,0.0155280772596597,0.0001331579405814,0.0010652635246515,-0.0001331579405814
1.7726402838669983e+18,9.525998291015624,-0.0471210479736328,-0.0135869421064853,0.0011005904525518,0.0001331579405814,0.0005326317623257,-0.0003994738217443
1.7726402838869896e+18,9.545989501953123,-0.0561037063598632,-0.0038281790912151,0.0059287846088409,0.0001331579405814,-0.0010652635246515,0.0011984214652329
1.772640283906981e+18,9.565981201171876,-0.0519094467163085,-0.003755509853363,0.0056019220501184,0.0003994738217443,-0.0005326317623257,-0.0006657897029072
1.7726402839269724e+18,9.585972412109374,-0.0471181869506835,-0.0179687589406967,-0.0136327743530273,-0.0002663158811628,-0.0007989476434886,0.0006657897029072
1.7726402839469637e+18,9.605963623046875,-0.0561017990112304,0.0013267807662487,0.0093100517988204,-0.0005326317623257,-0.0002663158811628,0.0003994738217443
1.772640283966955e+18,9.625955078125,-0.0561017990112304,0.0061401389539241,0.0141189265996217,0.0005326317623257,0.0,-0.0003994738217443
1.7726402839869463e+18,9.6459462890625,-0.060892105102539,-0.0036571100354194,-0.0003582388162612,0.0003994738217443,-0.0002663158811628,0.0003994738217443
1.7726402840269292e+18,9.68592919921875,-0.0560998916625976,-0.0082514472305774,0.0280065331608057,0.0006657897029072,-0.0002663158811628,0.0003994738217443
1.7726402840469204e+18,9.70592041015625,-0.0560998916625976,0.0109740234911441,0.0041971281170845,-0.0001331579405814,0.0005326317623257,0.0006657897029072
1.7726402840669117e+18,9.725911865234377,-0.0423269271850585,0.0061526931822299,0.0089660547673702,-0.0001331579405814,-0.0005326317623257,-0.00093210558407
1.7726402841068943e+18,9.765894287109376,-0.0519065856933593,-0.0224149301648139,0.0040543619543313,0.00093210558407,-0.0005326317623257,0.0003994738217443
1.772640284126886e+18,9.785885986328124,-0.0471153259277343,-0.0127639286220073,0.0042011812329292,-0.0001331579405814,0.0002663158811628,0.0001331579405814
1.7726402841468772e+18,9.805877197265623,-0.0519075393676757,0.0015391707420349,6.49653375148e-05,0.0003994738217443,-0.0005326317623257,0.0001331579405814
1.7726402841668685e+18,9.825868408203124,-0.0519065856933593,-0.0031995028257369,0.0239776819944381,0.0003994738217443,-0.0005326317623257,0.00093210558407
1.7726402841868598e+18,9.84585986328125,-0.0656805038452148,0.0014233291149139,0.0333892218768596,0.0003994738217443,0.0007989476434886,-0.0001331579405814
1.772640284226842e+18,9.885842041015623,-0.0560989379882812,0.0015967078506946,-0.0050069391727447,-0.0003994738217443,-0.0010652635246515,0.0006657897029072
1.7726402842468332e+18,9.905833251953124,-0.0608901977539062,0.020752266049385,-0.0285611394792795,0.0003994738217443,0.0015978952869772,0.0001331579405814
1.7726402842668242e+18,9.92582421875,-0.0656814575195312,-0.0030977465212345,-0.0188620388507843,0.00093210558407,-0.0010652635246515,0.0006657897029072
1.7726402842868152e+18,9.945815185546875,-0.0560989379882812,-0.007982064038515,0.0048356428742408,0.0001331579405814,-0.0002663158811628,-0.0001331579405814
1.7726402843068065e+18,9.965806640625,-0.0471172332763671,0.0064706951379776,0.0003739520907402,0.0003994738217443,0.0,-0.0003994738217443
1.7726402843267976e+18,9.985797607421874,-0.0656824111938476,0.0111729279160499,0.0005455128848552,0.0001331579405814,0.0005326317623257,0.0001331579405814
1.7726402843467886e+18,10.00578857421875,-0.0561027526855468,0.0062009654939174,-0.004114618524909,-0.0001331579405814,-0.0018642111681401,-0.0001331579405814
1.7726402843667796e+18,10.025779541015623,-0.047119140625,0.0156831704080104,0.0054707080125808,-0.0001331579405814,-0.0005326317623257,-0.0014647373463958
1.7726402843867707e+18,10.045770751953125,-0.0561027526855468,-0.0082594268023967,0.0007987506687641,-0.0003994738217443,-0.0007989476434886,0.0006657897029072
1.772640284406762e+18,10.065761962890624,-0.047119140625,0.0061416961252689,0.0151503216475248,0.0003994738217443,0.0,-0.0003994738217443
1.772640284426753e+18,10.0857529296875,-0.0519094467163085,-0.0032307654619216,-0.0040897615253925,0.0001331579405814,0.0,-0.0001331579405814
1.772640284446744e+18,10.105744140625,-0.0608911514282226,0.0015999712049961,0.0100133437663316,0.0011984214652329,0.0007989476434886,0.0003994738217443
1.772640284466735e+18,10.125735107421876,-0.0471172332763671,0.0015352927148342,0.0098485518246889,-0.0001331579405814,0.0002663158811628,0.0003994738217443
1.7726402844867264e+18,10.145726318359374,-0.0519084930419921,-0.0127621367573738,0.0098920371383428,0.0,0.0005326317623257,-0.0003994738217443
1.7726402845067174e+18,10.165717529296876,-0.0561017990112304,0.0061690844595432,0.0098841749131679,0.0,0.0010652635246515,-0.0006657897029072
1.7726402845267085e+18,10.18570849609375,-0.0561017990112304,-0.0274116992950439,-0.0044090710580348,0.0007989476434886,0.0002663158811628,0.0003994738217443
1.7726402845466995e+18,10.205699462890625,-0.042327880859375,-0.0034241452813148,-0.0131854135543107,0.0,-0.0005326317623257,0.0001331579405814
1.7726402845666908e+18,10.22569091796875,-0.0519094467163085,-0.0035015493631362,-0.0228488948196172,-0.0010652635246515,-0.0002663158811628,-0.0001331579405814
1.7726402845866819e+18,10.245681884765624,-0.0608930587768554,0.000810794532299,-0.0129043590277433,-0.0005326317623257,0.0002663158811628,-0.0006657897029072
1.772640284606673e+18,10.2656728515625,-0.0471200942993164,0.0102792307734489,-0.0126999486237764,-0.0007989476434886,-0.0015978952869772,0.0001331579405814
1.772640284626664e+18,10.285663818359374,-0.0375394821166992,-0.0133386701345443,-0.0120535027235746,0.0,0.0002663158811628,-0.0001331579405814
1.772640284646655e+18,10.305655029296876,-0.0423307418823242,-0.0043790079653263,0.0070052593946456,-0.0001331579405814,0.0005326317623257,0.0001331579405814
1.7726402846666463e+18,10.325646240234375,-0.0656881332397461,-0.0045062266290187,-0.0168897863477468,-0.0003994738217443,0.0,-0.0001331579405814
1.7726402846866373e+18,10.34563720703125,-0.0656881332397461,-0.0142440348863601,-0.0026515163481235,0.0006657897029072,-0.0010652635246515,-0.0003994738217443
1.772640284706628e+18,10.365628173828124,-0.042332649230957,9.44733619689e-05,0.0165923293679952,0.0006657897029072,-0.0002663158811628,-0.0001331579405814
1.772640284726619e+18,10.385618896484376,-0.037541389465332,0.0048909559845924,-0.0027039181441068,-0.0014647373463958,-0.0010652635246515,-0.0006657897029072
1.7726402847466094e+18,10.405609375,-0.0561037063598632,-0.0086665339767932,-0.0041869580745697,-0.0001331579405814,0.0007989476434886,-0.0006657897029072
1.7726402847666002e+18,10.42560009765625,-0.0375394821166992,-0.008705087006092,0.0150603465735912,0.0001331579405814,0.0002663158811628,-0.0001331579405814
1.772640284786591e+18,10.445591064453126,-0.0375394821166992,0.0152029618620872,-0.0041278917342424,-0.0011984214652329,-0.0005326317623257,-0.0006657897029072
1.7726402848065815e+18,10.46558154296875,-0.0423307418823242,0.0103767029941082,-0.0089322160929441,-0.0001331579405814,0.0010652635246515,0.0001331579405814
1.7726402848265723e+18,10.485572265625,-0.0656852722167968,-0.0131869874894618,0.0198842789977788,0.0003994738217443,-0.0005326317623257,-0.0003994738217443
1.772640284846563e+18,10.50556298828125,-0.0752668380737304,-0.0035009272396564,0.0007336288690567,0.0,0.0003994738217443,0.0006657897029072
1.7726402848665536e+18,10.5255537109375,-0.0423297882080078,0.0060569420456886,0.0002030842006206,-0.0002663158811628,-0.0001331579405814,0.0003994738217443
1.7726402848865444e+18,10.54554443359375,-0.0608940124511718,-0.0131337344646453,0.0003236792981624,-0.0002663158811628,-0.0001331579405814,0.0001331579405814
1.7726402849065352e+18,10.56553515625,-0.0471200942993164,0.0156689248979091,0.0193517785519361,0.0002663158811628,0.0003994738217443,0.00093210558407
1.7726402849265257e+18,10.585525634765624,-0.0519113540649414,0.0158289484679698,0.0100220143795013,-0.0005326317623257,0.0011984214652329,-0.00093210558407
1.7726402849465165e+18,10.6055166015625,-0.0375385284423828,-0.0034912005066871,0.0009490493685007,-0.0002663158811628,0.0001331579405814,0.0011984214652329
1.7726402849665073e+18,10.62550732421875,-0.0561037063598632,0.0061715580523014,0.0057428088039159,0.0,-0.00093210558407,-0.0011984214652329
1.772640284986498e+18,10.645498046875,-0.0704765319824218,0.0013691186904907,-0.0038645565509796,-0.0005326317623257,0.0019973691087216,0.0001331579405814
1.7726402850064886e+18,10.665488525390623,-0.047119140625,0.0109669752418994,0.0006806049495935,0.0002663158811628,0.00093210558407,-0.00093210558407
1.7726402850264794e+18,10.685479248046876,-0.0471200942993164,0.0013208873569965,-0.0087057687342166,0.0010652635246515,0.0011984214652329,-0.0001331579405814
1.7726402850464701e+18,10.70547021484375,-0.0561037063598632,0.0109185986220836,0.0010466985404491,0.0005326317623257,-0.0006657897029072,-0.0003994738217443
1.7726402850664607e+18,10.725460693359375,-0.0423297882080078,0.0108305215835571,-0.0037695094943046,0.0,0.00093210558407,-0.0003994738217443
1.7726402850864515e+18,10.745451416015625,-0.0519113540649414,-0.0083205215632915,0.015423621982336,-0.0007989476434886,-0.0001331579405814,-0.0003994738217443
1.7726402851064422e+18,10.765442138671874,-0.0704784393310546,-0.0133990384638309,0.0059468485414981,-0.0005326317623257,-0.00093210558407,0.00093210558407
1.7726402851264328e+18,10.785432861328124,-0.060896873474121,-0.0085939690470695,0.0015347339212894,-0.0010652635246515,-0.0006657897029072,0.0001331579405814
1.7726402851464236e+18,10.805423583984377,-0.0423336029052734,-0.0039256140589714,0.0069755427539348,0.0005326317623257,-0.00093210558407,-0.0006657897029072
1.7726402851664143e+18,10.825414306640624,-0.0561065673828125,-0.0086763277649879,0.0164278149604797,0.0,0.0003994738217443,-0.0014647373463958
1.7726402851864049e+18,10.84540478515625,-0.0279579162597656,0.0011811777949333,0.0067411549389362,0.0010652635246515,0.0003994738217443,0.0006657897029072
1.7726402852063954e+18,10.8653955078125,-0.0423297882080078,0.0061305314302444,0.0113629046827554,0.0002663158811628,0.0003994738217443,-0.0006657897029072
,,,,,0.0001331579405814,0.0006657897029072,-0.0001331579405814
,,,,,0.0003994738217443,0.0001331579405814,0.0006657897029072
,,,,,-0.00093210558407,0.0017310532275587,-0.0006657897029072
,,,,,0.00093210558407,0.0001331579405814,-0.00093210558407
,,,,,0.0011984214652329,0.00093210558407,0.0003994738217443
,,,,,0.0003994738217443,-0.0006657897029072,0.0003994738217443
,,,,,0.00093210558407,-0.0001331579405814,-0.00093210558407
,,,,,0.0003994738217443,-0.0006657897029072,-0.00093210558407
,,,,,0.0001331579405814,0.0003994738217443,0.0003994738217443
,,,,,-0.0001331579405814,-0.0011984214652329,0.0001331579405814
,,,,,-0.0010652635246515,-0.0003994738217443,0.00093210558407
,,,,,0.0005326317623257,0.0001331579405814,0.0003994738217443
,,,,,-0.0002663158811628,0.00093210558407,-0.0001331579405814
,,,,,-0.0005326317623257,-0.00093210558407,-0.00093210558407
,,,,,-0.0015978952869772,0.0011984214652329,0.0001331579405814
,,,,,0.0,-0.0003994738217443,-0.0019973691087216
,,,,,-0.0002663158811628,0.0006657897029072,0.0001331579405814
,,,,,0.0002663158811628,0.0001331579405814,0.0001331579405814
,,,,,-0.0007989476434886,0.0003994738217443,0.0006657897029072
,,,,,-0.0005326317623257,0.0001331579405814,-0.0006657897029072
,,,,,0.0005326317623257,0.0001331579405814,0.0006657897029072
,,,,,-0.0007989476434886,0.0006657897029072,0.0003994738217443
,,,,,0.0005326317623257,-0.0006657897029072,0.0001331579405814
,,,,,-0.0005326317623257,-0.0006657897029072,0.0003994738217443
,,,,,0.0002663158811628,0.0006657897029072,-0.00093210558407
,,,,,0.0,0.00093210558407,-0.0001331579405814
,,,,,-0.0005326317623257,-0.0003994738217443,0.0001331579405814
,,,,,0.0007989476434886,0.0003994738217443,-0.0003994738217443
,,,,,0.0015978952869772,0.0014647373463958,-0.0006657897029072
,,,,,0.0,0.0017310532275587,0.0003994738217443
,,,,,0.0001331579405814,0.0003994738217443,-0.0001331579405814
,,,,,-0.0006657897029072,-0.00093210558407,-0.0001331579405814
,,,,,-0.0006657897029072,-0.0006657897029072,0.0001331579405814
,,,,,-0.0011984214652329,-0.0001331579405814,-0.0003994738217443
