time,seconds_elapsed,accel_z,accel_y,accel_x,gyro_x,gyro_y,gyro_z
1772808586331695400,0.0826953125,0.0803548086971044,0.0045511604983359,0.0074562388566555,-3.62719874829e-05,0.003441916545853,0.0004505473189055
1772808586351744500,0.10274462890625,0.0922013138353824,0.0036705874046776,-0.0011220765322213,0.0017802596557885,-3.53934301529e-05,0.0005271704867482
1772808586371793200,0.122793212890625,0.0818652132600545,-0.0032710210273042,0.0050597310749813,0.003771228948608,-0.0009246136760339,0.0016564773395657
1772808586391843300,0.14284326171875,0.0742243431180715,0.0052582584549207,0.007583244503499,0.0009832934010773,-0.0008313994039781,8.77706333994e-05
1772808586411892500,0.162892578125,0.0824444744527339,0.0031374943081289,-7.3247899301e-06,0.0001636040396988,-0.0005560223944485,-0.0003793234936892
1772808586431941400,0.18294140625,0.080508537954092,0.0031095925210509,0.0043989884441951,-0.0004998319782316,-0.0003381764399819,0.0013514989987015
1772808586451990300,0.202990234375,0.0867968244433402,0.0037475433647166,0.0004602653223555,0.0008489931933581,-0.0010865210788324,0.0015329008456319
1772808586472039200,0.2230390625,0.0793032538175582,-0.0056982025084551,0.0015619018547469,0.0008968792390078,-0.0010159601224586,0.0016119622159749
1772808586492088300,0.24308837890625,0.0867822113960981,-0.0001915405167266,0.0055363356107845,0.0012989519163966,-0.0013871943810954,-0.0008767787367105
1772808586512137500,0.263137451171875,0.0878238294035196,0.0008835139694157,0.0024467081655282,0.0005627337377518,0.0004527839482761,0.0004697390832006
1772808586532186400,0.283186279296875,0.0929050781905651,-0.0035739586297888,0.0011756150840548,0.002200016984716,-0.0002897235972341,0.0015035660471767
1772808586552236300,0.303236328125,0.0893207899630069,-0.0086752638241741,0.0031515913321403,0.0020585819147527,0.0005502524436451,0.0002543730661273
1772808586572285400,0.323285400390625,0.0846872849434614,0.0004745130434166,0.0020686229676008,0.0020219990983605,0.0005113374209031,0.0023729193489998
1772808586592334300,0.343334228515625,0.0827449187040328,0.0012783311064355,-0.0030177358194021,-0.0002388847060501,-0.0005970365018583,-0.0002091936767101
1772808586612383500,0.363383544921875,0.07316402041018,-0.0040793417355045,0.0115757710386533,-0.0001839383039623,-0.0022889412939548,-0.0010185004211962
1772808586632432000,0.38343212890625,0.080196987786889,0.0115268812624737,0.0061792137913173,-0.0014940439723432,-0.0007331205997616,-0.000793675892055
1772808586652481300,0.403481201171875,0.0801964032649993,0.0009605886604636,0.0019066784381167,-0.0017508782912045,0.0014149720082059,-0.0014256928116083
1772808586672530400,0.423530517578125,0.0887251621574163,-0.0028795374916866,-0.0017218188239261,0.003226607106626,0.0019571997690945,0.0017352108843624
1772808586692579300,0.443579345703125,0.0851379513204097,-0.0034455190776847,-0.00334866654051,0.0028775404207408,-0.0004763918695971,0.0006349403411149
1772808586712629200,0.463629150390625,0.0748112030953168,-0.0021969346555415,0.0046535568603081,0.0008664897177368,-0.000750166887883,0.0006312765181064
1772808586732678400,0.483678466796875,0.0846831932902336,-0.0005893441952764,-0.0026806676184525,-0.0011192578822374,3.27161687891e-05,0.0001821806654334
1772808586752727300,0.503727294921875,0.085135613232851,-0.0056339142337441,-0.0019223326649749,0.0003992628771811,-0.0002109120687237,-0.0001577506773173
1772808586772776400,0.5237763671875,0.0843897633016109,0.0001561678092461,-0.0027617563309147,-0.0005187629722058,-0.0001814475981518,-0.0012919073924422
1772808586792825300,0.543825439453125,0.0870844092130661,0.0001694474159274,-0.0014748309260699,-0.000754366395995,-0.0037603112868964,-0.0005912245251238
1772808586812874200,0.563874267578125,0.0773556268811225,-0.0152086933140642,-0.0018588161418214,-0.0035603751894086,0.0008842311217449,0.0012870219070464
1772808586832924000,0.583923828125,0.0818435859501361,-0.0038920481356326,-0.0007782497969223,4.23660967499e-05,-0.0005537081742659,0.0013846701476722
1772808586852973800,0.603973876953125,0.0819938080757856,-0.0032183135925326,0.0015716058314312,-0.0004111253656446,0.0013913594884797,0.0008568880148231
1772808586873022700,0.624022705078125,0.0749631787866354,-0.0032105504111852,-0.0002132728579221,-0.0007829701062291,0.0004157923103775,0.0003271303139626
1772808586893072000,0.64407177734375,0.0724251847416162,-0.0026105660908855,-0.0041336063731228,0.0006112647242844,-0.0010781453456729,-0.0004131733439862
1772808586913121000,0.66412109375,0.081105334803462,-0.0043092689007055,-0.0073239451133413,-0.0022500059567391,0.0019096182659268,-0.0012415251694619
1772808586933170000,0.684169921875,0.0763181005269289,-0.0087007087926846,-0.0034253028401406,0.0006580664776265,0.0006131706759333,-7.76569359004e-05
1772808586953218800,0.70421875,0.0736217010498046,-0.0004317607470788,-0.0026071594242472,-0.0008332817815244,0.0011571291834115,0.0006639019120484
1772808586973267700,0.724267822265625,0.09052724314332,-0.0005113653219304,0.0033430496504763,0.000564768211916,-0.0006646649562753,-0.0005449373275041
1772808586993316900,0.74431689453125,0.0751151544779539,-0.0026228501837234,-0.0039254024159628,-0.0004633169155567,-0.0004372054536361,-0.0019449652172625
1772808587013367000,0.764366943359375,0.0787093795776367,0.0005286087176762,-0.0039457328179385,-0.0001786099746823,0.0002683982020244,-6.30053691565e-05
1772808587033415700,0.784415771484375,0.0820037449479103,0.0074365614752285,-0.00160431165779,-0.0005742812063544,0.0009228307753801,-0.002019255887717
1772808587053464800,0.80446484375,0.0773608875781297,-0.0043785164783243,0.0003518913107458,0.0008659332524985,-0.0002917260571848,0.0010377534199506
1772808587073514000,0.824513916015625,0.084842767766118,0.0003597458236385,0.0006444490831112,-9.9462922662e-06,-0.0006900065927766,0.0010171527974307
1772808587093563000,0.84456298828125,0.0808025524646043,-0.0090999007107224,0.0037402916400227,0.0019501787610352,-0.0001127772266045,0.0027206824161112
1772808587113612000,0.864612060546875,0.0779617760807275,-0.0015571937135886,0.0065718161383643,-0.0019007790833711,0.0011685974895954,-0.0001170779578387
1772808587133660700,0.88466064453125,0.0730231506347656,-0.0068970021052751,-0.0073647566143423,0.0014611773658543,0.002003748435527,-0.0011254716664552
1772808587153710800,0.9047109375,0.0634480975598096,0.0039624464907217,0.0016592064830707,0.0006579277105629,-0.0004216224479023,-0.0002649114467203
1772808587173760000,0.924760009765625,0.0897889919966459,0.0032394294457975,-0.0045998539116932,0.0006700484082102,0.0019653220660984,0.0003489176742732
1772808587193809000,0.944808837890625,0.082759531751275,-0.0028167196548543,-0.0003958309171721,0.0027792444452643,0.0011241956381127,0.0013553989119827
1772808587213857800,0.96485791015625,0.0803729288756847,-0.0023959552258253,0.0009020360067952,0.0002478940878063,-0.0011692992411553,0.0016859082970768
1772808587233907000,0.984906982421875,0.0697451518774032,-0.0111480836784932,0.0023301143148448,0.0020013540051877,-0.0005384010728448,0.0024395131040364
1772808587253955800,1.004955810546875,0.0866547856241464,-0.0062482558729592,-0.0032019789456622,0.0014245125930756,-0.0008656738791614,0.0001232582144439
1772808587274005000,1.0250048828125,0.0874029736429452,0.0037972459916491,0.0012264867547666,0.0026079416275024,0.0019148109713569,0.0007825240027159
1772808587294055000,1.045054931640625,0.081273092585802,0.001264320847392,0.001031598936906,0.0010154615156352,-0.0011260386090725,-0.0008425712585449
1772808587314103800,1.065103759765625,0.0764829356998205,0.0006398870724253,0.0024994429997634,-0.0007542322855442,-0.0017286097863689,-0.0001837625168263
1772808587334153000,1.085153076171875,0.0823228938996791,-0.0054013567200396,8.35729304933e-05,0.0011630821973085,-0.0021578706800937,-0.0010142759419977
1772808587354201900,1.105201904296875,0.0746907915860414,-0.0031616880344692,0.001419479443063,0.0031959833577275,-6.1908503994e-06,0.001751305302605
1772808587374251000,1.1252509765625,0.0974362918794155,6.68638242874e-05,0.0049464342930819,0.0004135065246373,-0.0007589844753965,-0.0022624372504651
1772808587394300000,1.1452998046875,0.0791816732645034,0.0018716756233945,-0.0036219624899793,-0.0002970192581415,-0.0008363457745872,0.0006013056263327
1772808587414349800,1.165349853515625,0.0781342100381851,0.0082585453826002,0.0025654072083299,0.0005957768298685,-0.0002434626658214,-0.0008515841327607
1772808587434399000,1.18539892578125,0.0968418331176042,-0.0024634675040841,-0.0029409899219172,-0.0006266660057008,-0.0003936073917429,-8.85920599102e-05
1772808587454447900,1.20544775390625,0.0800806679308414,0.0003321362975053,0.0009526793486438,0.0010447718668729,0.0011319727636873,0.0023808679543435
1772808587474496800,1.225496826171875,0.0880102918863296,0.0015911507821176,-0.0035633002384565,-0.0017786654643714,-0.0012972283875569,-0.0023922673426568
1772808587494546000,1.2455458984375,0.0794786103844642,-0.004172892637318,0.0025131518647074,0.0002821367233991,4.24708414357e-05,0.0026306579820811
1772808587514594800,1.2655947265625,0.0737935504853725,0.0089746303632389,-0.0016435750890988,-0.0018985408823937,8.61582520883e-05,-0.0006556594744324
1772808587534644000,1.28564404296875,0.0778314276993274,-0.002025368347764,0.0023966402124147,-0.0021938639692962,0.0011124812299385,0.000926319276914
1772808587554694000,1.30569384765625,0.0782785869449377,-0.0014842837410047,-0.0066524710259865,7.1804970502e-06,-0.0035566412843763,-0.0012413640506565
1772808587574742800,1.32574267578125,0.082914430052042,-0.0067859794788528,0.004455709900381,-0.0011666896753013,-0.0009913926478475,-0.0007363436743617
1772808587594792000,1.3457919921875,0.0772276165872812,-0.0020332959258928,-0.0017688865357777,0.0020043433178216,-0.000753347412683,-0.0013078646734356
1772808587614841000,1.365841064453125,0.0868050077497959,-0.001588191640051,0.0026293438565917,-0.0006701578386127,-0.0002064882719423,-0.001357571221888
1772808587634889700,1.3858896484375,0.0755851100772619,-0.0055242433141916,-0.004820392194041,0.0009744614362716,-0.0009825828019529,-0.0010523432865738
1772808587654939000,1.40593896484375,0.0865086551517248,0.0027485863220877,0.0004865596742369,0.0028197020292282,0.0005607957136817,-0.0029300269670784
1772808587674987800,1.42598779296875,0.0772340463280677,0.0027652634622529,-0.008322221735958,0.0006395592354238,0.0004046120156999,0.001313847489655
1772808587695038000,1.446037841796875,0.0788835671007633,0.0004508490400388,-0.0039514821387128,0.002525488846004,-9.92165878415e-05,-0.0016729775816202
1772808587715086800,1.4660869140625,0.0752946026980876,-0.0049758704501204,0.0009375502781709,0.001387225696817,-0.0004860808840021,0.0014618844725191
1772808587735135700,1.4861357421875,0.0751467186599969,0.0011075593831017,0.0004286691742716,-0.0005941831041127,0.0022246283479034,-0.000445295125246
1772808587755185000,1.506184814453125,0.0869639977037906,0.0012684307669289,-0.0041627228697529,-0.0004764988552778,-0.0009323810809291,0.0012479855213314
1772808587775234000,1.526234130859375,0.0772404760688543,-0.0032590839943382,-0.0049064447759883,-0.0006161942146718,-0.0014540074625983,0.0010066940449178
1772808587795283000,1.546282958984375,0.083375033301115,0.005441378203174,-0.0044781363613205,-0.000575051177293,-8.43361776787e-05,0.0017236734274774
1772808587815332900,1.566332763671875,0.0868166981875896,-0.006606357728783,-0.0054175635027466,-0.0024143541231751,0.0022857901640236,-0.0005367803387343
1772808587835381800,1.5863818359375,0.0823258165091276,-0.0047205439821816,0.0004663434366928,-0.0016831213142722,-0.0029932698234915,0.0020908154547214
1772808587855431000,1.606430908203125,0.0817266815721988,0.0068286130441818,0.000160903349868,-0.0016263942234218,-0.0019277316750958,0.0001603690907359
1772808587875480000,1.62647998046875,0.0778372729182243,0.0015214830793906,-0.0066586587381782,-0.0020711557008326,0.0007639062823727,0.000842512352392
1772808587895528700,1.64652880859375,0.0920522607535123,0.0057307256717234,0.0072062050517648,-0.0008588812779635,0.0004990412271581,0.0001726523041725
1772808587915577900,1.666577880859375,0.0806798028677701,-0.0093713928621727,-0.0014263886744622,-0.0021277859341353,0.0040958388708531,0.0011093774810433
1772808587935628000,1.6866279296875,0.0796340932071208,-0.006542937103752,0.00207423072448,-0.0005336413159966,0.0020198177080601,-0.0008623823523521
1772808587955676700,1.7066767578125,0.0872650264769792,0.0029478808870073,0.0038878971169004,-0.0016172025352716,0.0005454785423353,-0.0024115620180964
1772808587975725800,1.726725830078125,0.0865145003706216,0.0071211753831245,-0.0039343848734395,-0.0019049408147111,0.0011502193519845,-0.0005361246876418
1772808587995774700,1.746774658203125,0.0920545988410711,0.0009120368110015,0.0029288610927062,0.0029311955440789,0.0009291741880588,0.0009462211746722
1772808588015824000,1.766823974609375,0.0863677853763103,0.0009032872489653,0.0023544861376984,-0.0003906043712049,-0.0003061857423745,-0.001396223437041
1772808588035873000,1.786873046875,0.0696101273208856,-0.0007459229964762,-0.0025898246969562,-0.0028344108723104,0.0001970498415175,-0.0012414557859301
1772808588055922000,1.806921875,0.0907061068415641,-0.0014125976111274,-0.0036767385842511,-0.0016395582351833,-1.51604181155e-05,0.001080430811271
1772808588075971800,1.826971923828125,0.0820259567797184,-0.0042503965866286,-0.0074976120466599,0.0013557041529566,0.0024013591464608,-9.11718234419e-05
1772808588096021000,1.84702099609375,0.0743944389879703,0.0014931794335134,-0.0047569213366601,-0.0022672307677567,-0.0013579475926235,0.0006620050407946
1772808588116070000,1.86706982421875,0.0817237589627504,-0.0006020484132226,-0.0027582583327312,0.0018907890189439,-0.0005563314771279,-0.0012998925521969
1772808588136118800,1.887118896484375,0.0766384185224771,-0.0026239461622666,0.0055456331620924,-0.0002614855766296,0.0002073572250083,-0.0005110348574817
1772808588156167700,1.907167724609375,0.079480948472023,0.0033329438149929,0.0033317702046362,-2.1355226635e-06,-0.00057935831137,-0.0016577863134443
1772808588176216800,1.927216796875,0.0865127468049526,0.0008379943272564,-0.0059084248927654,-0.0038591322954744,-0.0005789946299046,-0.0012952433899044
1772808588196267000,1.94726708984375,0.0808224262088537,0.0031145700902678,-0.0068722877891268,-0.0052090575918555,5.41369954589e-05,-0.001391327008605
1772808588216315600,1.967315673828125,0.0788771373599767,-0.0083154266689904,0.0043272475153906,-0.0014249570667743,0.002135700546205,0.0009986327495425
1772808588236364800,1.98736474609375,0.0869581524848937,-0.0052690538435708,-0.0052415402155602,0.0020809441339224,-0.0008656529244035,0.0006110768299549
1772808588256414000,2.0074140625,0.0797743784606456,-0.0027193967602215,-0.0015075458855833,-0.0012745375279337,0.0025850064121186,0.0015027928166091
1772808588276462800,2.027462890625,0.0710959819644689,0.0048794608709402,0.0051992080443305,0.0005106481257826,0.0019801720045506,0.0004559666849672
1772808588296512000,2.047511962890625,0.0910012903958559,-0.004485502250446,0.0004025985846761,-0.0003264036495238,-0.0015517184510827,0.001171933254227
1772808588316562000,2.06756201171875,0.0827758983641862,-0.004695181212062,0.0023465220269514,0.0006332511547952,-0.0008715139119885,0.0013675950467586
1772808588336610800,2.08761083984375,0.0842705208361148,-1.0777122341e-05,0.0006422205934068,-0.0021827314049005,0.0008214875124394,0.0014659331645816
1772808588356660000,2.107659912109375,0.0797813927233219,-0.0060434266163967,-0.0052827444422058,0.0013682292774319,-0.0020939086098223,-0.0008464055135846
1772808588376708900,2.127708984375,0.0797819772452115,0.0007000654275994,0.0058280348666245,-0.0037901401519775,0.0010051348945125,-0.0010700495913624
1772808588396757800,2.1477578125,0.0722995125353336,0.0035559571822173,0.0048090990484692,-0.0012858165428042,-0.0011375461472198,0.0004914905875921
1772808588416807000,2.167806884765625,0.0930968013703823,0.000711701066466,-0.010318144793529,0.0005114516243338,-3.73852963093e-05,0.0009484787005931
1772808588436856800,2.18785693359375,0.0805278271764516,0.0011100253348238,0.0008264637196669,-0.0007863091304898,-0.0003541794139891,-0.0018930356018245
1772808588456905700,2.20790576171875,0.0871089591324329,-0.0017908472058363,-0.0074039469804149,-0.0003763621207326,-0.0015006789471954,0.0006509784143418
1772808588476955000,2.227954833984375,0.082623338150978,0.002146327846311,0.0026372212023707,0.0015952554531395,0.0033336710184812,-0.0017499113455414
1772808588497003800,2.248003662109375,0.0859200416088104,-0.00588669255157,0.0054258198744384,-0.0001737126149237,0.0011542998254299,0.0015199219342321
1772808588517053000,2.268052978515625,0.0808323630809784,-0.0022583003208041,-0.0040920459534507,0.002275965642184,-0.0004587467410601,-8.96248966455e-05
1772808588537101800,2.288101806640625,0.080683894520998,-0.0007379497525747,-0.0072508433445123,-0.0002318129409104,0.000762581359595,-0.0014548948965966
1772808588557151700,2.30815185546875,0.0839741682380437,0.0019485219855792,0.0005278095666551,0.000722758937627,-0.0003799708210863,-0.0004581506364047
1772808588577201000,2.328200927734375,0.0821785169929266,0.0035490159847773,0.0002319318926194,-0.000938594341278,-0.0013101120712235,-0.0025383322499692
1772808588597249800,2.348249755859375,0.0793330644339323,-0.0029202804940287,0.0046639001578092,-0.0001208437606692,0.0003535582218319,0.0035880813375115
1772808588617299000,2.368298828125,0.0748433517992496,0.0046448301311582,-0.0025986655905377,1.77626498043e-05,0.0005449742893688,-0.0011851778253912
1772808588637347800,2.388347900390625,0.0830734200060367,0.0026000629631802,-0.0124701214959146,-0.0020359465852379,-0.0018305128905922,0.0005596857517957
1772808588657396700,2.408396728515625,0.0799310303270816,-0.0014641999342013,-0.0034128406507894,0.0023738634772598,-0.0015723846154287,0.0035300604067742
1772808588677447000,2.428447021484375,0.0755944624274969,0.0079856284590438,-0.0151448799633886,0.0008287145756185,0.0044146650470793,0.000348525121808
1772808588697496000,2.44849609375,0.086672321280837,-0.0019158344255294,-0.004539744055178,0.0011067055165767,0.0012226332910358,-0.0006015347316861
1772808588717544700,2.468544677734375,0.0904074161559343,-0.0007999821381177,-0.0040943383752368,-0.0020827804692089,0.0011568914633244,0.0006746551953256
1772808588737593900,2.48859375,0.0853168150186538,0.0016754863310139,-0.0009024926645215,0.0003357823006808,0.0001873988076113,0.0011332090944051
1772808588757642800,2.508642822265625,0.0847124193847179,0.0035415176649112,-0.0021809562016976,-0.0001188593450933,0.0002969886991195,-0.0023868596181273
1772808588777692000,2.52869189453125,0.0827659614920616,-0.0034824626877438,-0.0051505557301687,0.0008174669928848,0.0007323714089579,-0.0011566956527531
1772808588797741800,2.548741943359375,0.0710924748331308,0.0018525142651982,-0.0060981753112049,-0.0009170796256512,-0.0005904162535443,0.0007749663200229
1772808588817790700,2.568790771484375,0.0838081640213728,0.0038386739805806,-0.000664468957833,-0.0022431693505495,0.0011274565476924,-0.000433677341789
1772808588837839600,2.588839599609375,0.0862017811596393,0.0088148823574185,-0.0079015486384741,4.9560330808e-06,0.001597880385816,-0.0023371404968202
1772808588857888800,2.608888671875,0.095926471838355,-0.0082669387516099,-0.000181795440847,-0.0021088188514113,-0.0011552642099559,0.0017574275843799
1772808588877938000,2.62893798828125,0.0794651663810014,0.0008468443539924,-0.0068460482361726,0.0018126112408936,-0.0009563202038407,0.0020735305733978
1772808588897986600,2.648986572265625,0.0751245068281888,0.0003725505062844,0.000470129129244,0.001646792050451,-0.0005386439152061,-0.0003137970343232
1772808588918036700,2.66903662109375,0.0808083976835012,-0.0041585444515571,0.0027068204064387,-0.0008430003654211,-0.0002348212874494,-0.0005213441327214
1772808588938086000,2.6890859375,0.0869423703938722,0.0018584416824858,-0.0003347620794316,0.0001176325604319,-0.001681541558355,-0.0028425264172255
1772808588958134500,2.709134521484375,0.0858943226456642,0.0029999033351894,0.0020374926103977,0.0030457810498774,0.0004576081119012,-1.2600794434e-06
1772808588978183700,2.72918359375,0.0826005417972803,0.0006511299856472,-0.0085519571049138,0.0001378976739943,-0.0011964234290644,-0.001812060829252
1772808588998232600,2.749232666015625,0.0766150376468896,-0.0034189324648585,-0.005150144738215,-0.0017613118980079,0.0011248803930357,-0.0004532602615654
1772808589018281700,2.76928173828125,0.0833498988598585,0.0019121994300279,-0.004549808791466,-0.0012275823391973,0.001041856361553,0.0012848570477217
1772808589038331600,2.78933154296875,0.087239307513833,0.0015265337138436,-0.0003114314361941,0.0009722434915602,0.0005214857519604,0.0010506666731089
1772808589058380500,2.809380615234375,0.088735099029541,-0.0011685140564106,-0.0104261169463396,-0.0030323853716254,0.0003561025951057,-0.002124314662069
1772808589078429700,2.8294296875,0.0764566322147846,-0.0034231519822496,-0.0040423250602092,-0.0040434426628053,-0.000839987071231,0.0014112119097262
1772808589098478800,2.849478759765625,0.0797474904537201,-0.0027676928813569,-0.0062996755329426,-0.0010867102537304,-0.000865799258463,-0.0005971961654722
1772808589118527700,2.86952783203125,0.0737608172595501,-0.0011878763440065,-0.0093675249712308,0.0011681620962917,0.0008597744163125,0.0010651582852005
1772808589138576600,2.88957666015625,0.0809469293713569,0.0039575785193592,0.0035427780402358,0.0026403944939374,0.0007025441154837,0.0009268175344914
1772808589158626800,2.909626708984375,0.0761591105729341,-0.0034738683893345,-0.011957765226718,-0.001128570176661,0.0020402208901941,0.0003474964760243
1772808589178675700,2.92967578125,0.0842395411759614,-0.0007515946854371,-0.0041146687772125,-0.0009615723975002,-0.0019046212546527,0.0003722619730979
1772808589198724900,2.949724853515625,0.0860328543335199,-0.0050220294130966,-0.0003687465474242,-0.0008593816310167,-0.0010320493020117,0.0008101819548755
1772808589218773500,2.9697734375,0.0836404062390327,0.0032778617600444,-0.0048805933821015,-0.0003519875463098,0.0005042175762355,-0.000113486777991
1772808589238822700,2.98982275390625,0.0822901606738567,-0.0012451046902686,-0.0003661892641568,-0.0007436729501932,-0.0008897493826225,0.0020940266549587
1772808589258872800,3.009872802734375,0.0866290666610002,0.0001526058789808,-0.0100721113103209,-0.0026811056304723,-0.0001760100130923,0.0020251001697033
1772808589278921700,3.029921630859375,0.0816910257369279,0.0029431773124262,-0.0048929825062165,6.14216551184e-05,-0.000458695780253,-6.59669749438e-05
1772808589298970600,3.049970703125,0.0780997232466936,-0.0052435175435151,-0.0071244633187539,0.0005289688706398,0.0006619609775952,0.0004850619006901
1772808589319019800,3.070019775390625,0.0839355897933244,0.0041857429857365,-0.0025581874496769,-0.0021067466586828,-5.6955817854e-05,-0.0030789910815656
1772808589339068700,3.090068603515625,0.0837859521895647,-0.0058294550721533,-0.0036834012204781,-8.51938966661e-05,0.0005902488483116,0.0011587515473365
1772808589359117800,3.110117919921875,0.0734597884863615,-0.0076166490161791,0.0028536175991408,-0.001220429316163,-0.0006892682285979,0.001135561382398
1772808589379167700,3.130167724609375,0.0810907217562198,-0.0029350944706704,0.0023290137697244,-0.0017441783566027,0.0003052311949431,-0.0002357112243771
1772808589399216600,3.150216552734375,0.0873737475484609,-0.0021267006972339,0.000872152325185,0.0014657936990261,-0.0007570284651592,-0.0008186777122318
1772808589419265800,3.170265869140625,0.0779559308618307,-0.0094191135945729,-0.002369802437839,0.0007268947083503,-0.00046949647367,-0.0004689320921897
1772808589439314700,3.190314697265625,0.0849906518042087,-0.0047833435527049,-0.0047913715955335,0.0014989166520535,-0.0018791621550917,-0.0003420407883822
1772808589459363600,3.210363525390625,0.0808048905521631,-0.000146778926393,-0.0003393514895811,0.0021983357146382,0.0024239809717983,0.0007226169109344
1772808589479412700,3.230412841796875,0.0791577078670263,-0.0055760009008925,0.0008865872759139,0.0003374011721462,0.0008999060373753,-0.0009416090324521
1772808589499462700,3.250462646484375,0.087239307513833,-0.0011562847624998,0.0068777128829155,0.0009364145807921,-0.0011850803857669,0.0004236474633216
1772808589519511800,3.27051171875,0.0781084910750389,-0.0011394158260896,-0.004941680486151,0.000599414575845,3.16686928272e-05,-0.0010377983562648
1772808589539560700,3.290560791015625,0.0782587132006883,-0.004079853192158,0.0020206191074103,-0.0006886546034365,0.0003844276652671,-0.0004570810124278
1772808589559609600,3.310609619140625,0.081996730685234,-0.0001064925817772,-0.0048324114253977,0.0011765968520194,0.0006262423703446,-0.0001587439328432
1772808589579658800,3.33065869140625,0.0805009391695261,-0.0026796127391047,0.0012308889352483,0.0022237608209252,-0.0015323890838772,0.0024680355563759
1772808589599708700,3.350708740234375,0.07736030305624,-0.0009405231199692,-0.0054761070232605,-0.0006076490972191,0.000520653091371,-0.001322743948549
1772808589619757600,3.370757568359375,0.0775099406599998,0.0002645509540103,-0.0060020031940424,0.0015685858670622,0.0006935473065823,0.0003800715785473
1772808589639806700,3.390806640625,0.0909820011734962,-0.0054104716082569,-0.0010323843881953,0.0001182670239359,0.0018085776828229,-0.0014567850157618
1772808589659855600,3.410855712890625,0.0757183810681104,-0.0042982908489648,-0.0026157993884291,-0.0020636213012039,0.0011227139038965,6.70622102916e-05
1772808589679904800,3.43090478515625,0.0818541073441505,-0.0111661307918373,0.0039174109057523,-0.0013001428451389,0.0011161682195961,-0.0004293546080589
1772808589699954000,3.450953857421875,0.0784101043701171,-0.0007035177600104,-0.0036996628021122,-0.0021826457232236,-0.0012740314705297,-0.0008535739034414
1772808589720003600,3.471003662109375,0.0812520497977733,0.0022054010897874,-0.007323835515487,0.001420926535502,-0.0006122674094513,-0.0010258834809064
1772808589740052700,3.491052734375,0.0800514418363571,0.0020217972843442,0.0035979696930386,0.0006710337474942,-0.0001885243545984,-0.001014825887978
1772808589760102000,3.511101806640625,0.0817003780871629,0.0057176195949781,-0.009942096289061,0.00070441653952,0.0008492773631587,0.0008886635769158
1772808589780150500,3.531150634765625,0.0805032772570848,-0.0058037361090071,-0.0047346866719657,0.0015305611304938,-0.0008666050853207,-0.0010668518953025
1772808589800199700,3.55119970703125,0.0794563985526561,0.0002631535813678,-0.0023202139753382,0.0015026433393359,-0.0008280204492621,0.0020870419684797
1772808589820248600,3.57124853515625,0.0873877760738134,-0.0045522747431881,0.004454755485733,-3.23776621371e-05,-0.0015140876639634,-0.0002706809900701
1772808589840298500,3.591298583984375,0.0842412947416305,-0.0034786998280789,-0.0001431667637778,0.0003580935299396,-0.0008873300394043,-0.0014101257547736
1772808589860347400,3.611347412109375,0.0809492674589157,0.0022412304549943,0.0004233171457191,-0.0007559126242995,0.0003840222489088,0.0003144401125609
1772808589880396300,3.631396240234375,0.0784071817606687,-0.0022364172825589,0.0079797101749107,2.77450308203e-05,-0.0017569935880601,-0.0012292456813156
1772808589900445400,3.651445556640625,0.0815524940490722,-0.0107022852729074,-0.0002105420447187,0.0016215317882597,-0.000143481825944,0.0002465187571942
1772808589920494300,3.671494384765625,0.0761643712699413,0.0063510312608443,-0.0030605520478216,0.0008916156366467,-0.0006980236503295,-0.0003854478709399
1772808589940544300,3.691544189453125,0.0852910960555076,-0.0013247823303565,0.0001053235379979,-0.0030150047969073,0.0001560213568154,-4.47216443717e-05
1772808589960593400,3.711593505859375,0.0754150142073631,-0.0015823372879996,7.23528501577e-05,-0.0014534976799041,-0.0002569923235569,-0.0015623662620782
1772808589980642300,3.731642333984375,0.0757148739367723,-0.0079814546074252,-0.0049461831313325,0.0007478455081582,-0.0036997862625867,-4.154862836e-05
1772808590000691500,3.75169140625,0.08454056994915,-0.004226632118551,-0.0030154844968114,-0.0007381085306406,0.0010118507780134,-0.0002133552916347
1772808590020740400,3.771740234375,0.0778062932580709,0.0038184166438411,0.0004816323373699,0.0004000971093773,-0.0002994855167344,-0.0004847981035709
1772808590040789200,3.791789306640625,0.0719692576676607,-0.0030222704306244,-0.0026459387983661,-0.0001039276830852,0.0008448870503343,-0.0015441654250025
1772808590060839400,3.81183935546875,0.0730173054158687,-0.0047765119531191,0.0011383061478147,0.0004981369711458,0.0005589124048128,-0.0001955777406692
1772808590080888300,3.831888427734375,0.0805009391695261,-0.0024467538313008,0.0044742182380286,0.0006103967316448,-0.00093646987807,0.0013278960250318
1772808590100937500,3.8519375,0.0881336260050535,0.0055875269419047,-0.0025633294156752,0.0005091028288006,-0.0015484374016523,0.0005235087592154
1772808590120986400,3.871986328125,0.0840945797473192,-0.0061109206283465,0.0029911994389258,-0.0006586480885744,0.0007744526374153,0.0016739512793719
1772808590141035300,3.89203515625,0.0791553697794675,0.0006478603163268,-0.0093105340869864,-0.0021816084627062,-0.0003987599047832,0.0014718587044626
1772808590161085400,3.91208544921875,0.0782563751131296,0.008250489940308,-0.0019853194651659,-0.000313637079671,0.0016877001617103,0.0008335066959261
1772808590181134300,3.93213427734375,0.0816980399996042,0.0017510266521014,-0.0060637250523315,-0.0010773979593068,-0.0011458260705694,0.0010131744202226
1772808590201183200,3.952183349609375,0.0815419726550579,-0.0101870931592304,0.0039046792883425,-0.0030511543154716,-0.0010514172026887,0.0014884008560329
1772808590221232400,3.972232421875,0.0821387695044279,-0.0003263458775356,-0.0025986518908059,-0.0008515289518982,0.0011448841542005,-6.33862800896e-05
1772808590241281300,3.99228125,0.0746551357507705,-0.0009478022441267,0.0033374829927925,0.0011616642586886,9.59987810347e-05,-0.0004755104891955
1772808590261330400,4.012330322265625,0.0858791250765323,-0.003568844063254,0.0027299957860494,-0.000697175739333,0.0018515164265409,-0.0004929252900183
1772808590281380400,4.03238037109375,0.0730108756750822,-0.0027798308437224,0.0002118800518568,0.0037765437737107,-0.0012067358475178,-0.0003646314144134
1772808590301429200,4.05242919921875,0.0824421363651752,-0.0053834466040134,0.006433585844608,0.0004545878618955,-6.19982019998e-05,-0.0015092589892446
1772808590321478400,4.072478515625,0.0869318489998579,-0.0036728706933092,-0.0051669634422753,0.0027177692390978,0.0006745615974068,0.0005660019814968
1772808590341527600,4.092527587890625,0.0854401491373777,-0.0048693048031069,0.0037440818991512,-0.0004988114815205,-0.0026852558366954,-0.0009011812508106
1772808590361576200,4.112576171875,0.07182137362957,0.0014606928028631,-0.0006909551059594,-0.0018622407224029,0.0006528272060677,0.0014598967973142
1772808590381625300,4.132625244140625,0.0805003546476364,-0.0003349127764813,0.0121722253947285,0.0006654490716755,-0.0021399045363068,0.0002872683107852
1772808590401675500,4.152675537109375,0.0905243205338716,-0.005577051213663,0.0002691083981189,-0.0005589991342276,0.0003570194530766,-0.0004481510259211
1772808590421724400,4.172724365234375,0.0803472099125385,-0.0022846586047671,-0.0085467831728747,-0.0009613293223083,0.0039408239535987,0.0003054281696677
1772808590441773300,4.192773193359375,0.0793015002518892,0.0040430009136442,0.0038075573231093,-0.0006471073720604,-0.0004066846158821,0.001505113672465
1772808590461822200,4.212822265625,0.0806476541638374,0.0014960289777256,-0.002633704937878,-0.0011063376441597,-0.0048040552064776,-0.0003000469878315
1772808590481871400,4.232871337890625,0.0824444744527339,-0.0061668703329749,0.0025960626414977,0.0016765161417424,-0.0006197979673743,0.0013227979652583
1772808590501921500,4.252921630859375,0.0770592742830514,0.0039450021655764,0.0069685969036072,-2.6477035135e-05,-0.0004354514239821,-0.0004864959046244
1772808590521970200,4.27297021484375,0.0772059892773628,-0.0054727049231994,0.0059168867604341,0.0007096333429217,0.0004350520321168,-0.0014034886844456
1772808590542019300,4.293019287109375,0.0763069946110248,-0.0034078996141906,0.0067816138309892,0.0016701319254934,-0.0001617905072635,0.0007543845567852
1772808590562068500,4.313068359375,0.0794505533337593,0.0042341852373443,0.0023409051369177,0.0005223965272307,-6.02788641117e-05,-0.0015480117872357
1772808590582117400,4.333117431640625,0.0787011962711811,-0.0003142992467153,-0.0050663937112083,-0.0032929070293903,0.0032033794559538,-0.000963382422924
1772808590602166500,4.35316650390625,0.0673275693416595,-0.00257538517965,0.0054116634849226,0.0004943963140249,0.0008752627763897,-0.001421355176717
1772808590622216400,4.373216552734375,0.0785480515360832,-0.0040958270794246,-0.0022445868892828,0.0004539359360933,0.0012410782510414,-0.0002191653475165
1772808590642265300,4.393265380859375,0.0745078362345695,0.0020971732086502,-0.0071851302976952,0.0013603600673377,-0.0012136988807469,-0.0006198179908096
1772808590662314500,4.413314453125,0.0842360340446233,-0.0089170823565684,-0.0002062220626277,0.0018913829699158,-0.0018654922023415,0.0005321374628692
1772808590682363400,4.43336328125,0.0769049605041742,-0.0048414760812651,0.0004070190314669,-0.0016887981910258,0.0007314875838346,0.0007398624438792
1772808590702412300,4.453412353515625,0.0848345844596624,-0.0022414770501665,-0.0001730869780061,-0.0034103444777429,-0.0018629196565598,0.0021755769848823
1772808590722462500,4.47346240234375,0.0749573335677385,-0.0082271912631113,-0.002343635950121,0.0017384467646479,-0.0026816511526703,2.94535420835e-05
1772808590742511400,4.493511474609375,0.0785509741455316,0.0027516459288541,-0.0016803771352628,0.0021271426230669,0.0014549698680639,0.0001307479105889
1772808590762560300,4.513560302734375,0.0799006351888179,-0.0080664112108293,-0.0010926814743783,0.0001564379781484,0.0022377301938831,-0.0001161335967481
1772808590782609400,4.533609375,0.0766091924279928,-0.0023277122952044,-0.0010128074714681,0.0009581437334418,-0.0008158213458955,-0.0004460564814507
1772808590802658300,4.553658203125,0.0840922416597604,0.0003643215340562,0.0042971035388763,-0.0002848182339221,-0.0006277101347222,-0.0001642787829041
1772808590822708500,4.57370849609375,0.0784060127168893,0.0036279173067305,-0.005729191301763,-0.0026901855599135,-0.0001172232150565,-0.0001242607831954
1772808590842758000,4.5937578125,0.0840899035722017,-0.0022954174607992,0.0020387073199497,-0.0009207092225551,0.0022916942834854,0.000236140564084
1772808590862806800,4.613806884765625,0.0804997701257467,-0.0063123797508887,0.0006462391813984,-0.0016009085811674,0.0001346920616924,-0.0001279786229133
1772808590882856000,4.63385595703125,0.0897767170369625,-0.007107146857772,0.0007474710661685,0.0003650640137493,0.002028873655945,0.0009522479958832
1772808590902905000,4.653905029296875,0.0800491037487983,0.0023343612316995,-0.002100483977166,-0.0011798650957643,0.0030294156167656,-0.0004270365461707
1772808590922953700,4.67395361328125,0.0743599521964788,-0.0004729878066107,-0.0110927778612589,-0.0005428765434771,0.0005312173161655,0.0027308696880936
1772808590943004000,4.69400390625,0.084686115899682,-0.0018755480809137,-0.0001892024291679,0.0011814148165285,0.00025103209191,0.0003092186525464
1772808590963053000,4.714052978515625,0.0715174222469329,-0.0014443079236429,-0.0054819750750437,0.0004784455522894,-0.0009857126278802,0.0002543576993048
1772808590983102000,4.73410205078125,0.081840078818798,0.0001267499185167,0.0057727199162356,0.0035204822197556,-0.0018968798685818,-0.0006813467480242
1772808591003150800,4.75415087890625,0.0739127929508686,0.0031228081956505,-0.0027987273404374,-0.0016941756475716,0.0006298051448538,-0.0001738644205033
1772808591023199700,4.77419970703125,0.074659811925888,0.0064902936010621,0.0027646515408996,-0.0003774615470319,-0.0008752490393817,0.0004452050197869
1772808591043250000,4.79425,0.0815443107426166,-0.0045452604805119,-0.0005681781096616,-0.000511968974024,0.001948979566805,0.0025487605016678
1772808591063298800,4.814298828125,0.0801964032649993,-0.0047717353133019,0.0030940067928517,-0.0014172825030982,0.0007610393804498,0.0010518932249397
1772808591083347700,4.83434765625,0.073162266844511,-0.0037321357330307,-0.0019744692775886,0.0013385512866079,-0.000312743417453,0.0010867030359804
1772808591103396900,4.85439697265625,0.0731628513664007,-0.0071498900209553,0.0060325581625103,0.0006298837251961,0.000128615356516,0.0001902333460748
1772808591123446000,4.874446044921875,0.0810942288875579,-0.0003618099165614,0.0032841636366676,0.0001555900089442,4.92574181407e-05,-0.0005048308521509
1772808591143495000,4.894494873046875,0.0818424169063568,-0.0009842891964595,0.0019602489559911,-0.002240483649075,-0.0007111753802746,0.0024403692223131
1772808591163544800,4.914544921875,0.07316402041018,0.001118930160487,0.0054389579172246,0.001633443403989,0.0018022493459284,0.0003770873881876
1772808591183594000,4.934593994140625,0.0770551826298236,0.001755912889773,0.0003390226960182,0.0001119999215006,-0.0014279945753514,-0.0017607351765036
1772808591203643000,4.954642822265625,0.0707704032719135,-0.0037225002550054,-0.0055167586940573,0.0015016575343906,-0.0005079987458884,-0.0024649184197187
1772808591223692000,4.974692138671875,0.0813970112264156,-0.0051517567399889,0.0079338708723429,-0.0012626834213733,-0.0033985204063355,0.0004897555336356
1772808591243740700,4.99474072265625,0.0751063866496086,0.0051534098409581,-0.0018783017270034,-0.0020280047319829,-9.05347696971e-05,0.0007414002902805
1772808591263790800,5.014790771484375,0.0773474435746669,-0.0064289553352631,-0.0037305511307204,0.0033094221726059,0.0007945710676722,-0.0003012530505657
1772808591283840000,5.034840087890625,0.0863262843221426,-0.0016164952859282,0.010783570348192,-0.0003924977499991,0.0027121144812554,-0.0014312677085399
1772808591303889000,5.054888916015625,0.0837812760144472,-0.0081273750172927,-0.0133743859924143,0.0022640270181,-0.0011451162863522,4.0074810385e-06
1772808591323937800,5.074937744140625,0.0870756413847207,-0.0079919120693579,0.0036819901481037,0.0002074600197374,-0.0013745236210525,0.0010472082067281
1772808591343987000,5.094987060546875,0.085577511781454,-0.0024723083976656,0.0028697604497661,0.0001790607348084,-0.000189011087059,0.0037122468929737
1772808591364036900,5.115036865234375,0.0843804109513759,-0.0019252507078461,-0.0043800508482847,0.0007631490007042,0.0030509582720696,0.0004977751523256
1772808591384086000,5.1350859375,0.0760001206189393,-0.0028725506284739,0.0008238333711633,0.0014908737502992,0.0020798784680664,-0.0009883414022624
1772808591404135000,5.155135009765625,0.0766015936434268,-0.0008246233890298,-0.0002868495507864,0.0028271642513573,-0.0009525733185,0.0002522561699151
1772808591424183800,5.175183837890625,0.0740606769889593,-0.0049625543108209,0.008610244897101,0.0018521388992667,0.0022022167686372,0.0011808415874838
1772808591444233000,5.19523291015625,0.0789981333911418,-0.0088513145108241,-0.0001666252711787,0.0011165691539645,-0.000788532779552,0.0002300920896232
1772808591464281900,5.21528173828125,0.0897702872961759,-0.0010092957735527,0.0007746467674616,-0.001595965353772,-0.0025267915334552,0.0002796305343508
1772808591484331800,5.235331787109375,0.0866284821391105,0.0037578820956405,0.0036718934457749,-0.0008483829442411,-0.0012742071412503,0.0017991273198276
1772808591504381000,5.255380859375,0.0806441470324993,0.0073045965254772,0.0116570013150107,-0.0026628328487277,0.003077560570091,-0.0007825195789337
1772808591524429800,5.275429931640625,0.081243281969428,0.0015224877263884,-0.0023013631443958,0.0008937059901654,-0.0018779950914904,-0.0037412322126328
1772808591544479000,5.29547900390625,0.0819903009444475,-0.0020309030394069,-0.0051683242822997,-0.0014912188053131,0.000852272612974,-0.0003853975795209
1772808591564527900,5.31552783203125,0.0789963798254728,-0.0026709362423047,0.0150005395892541,-0.0012342100962996,-0.0016963940579444,-0.0005018459632992
1772808591584577800,5.335577880859375,0.0813876588761806,0.0014584734463132,-0.0021993138422956,-0.0016762462910264,0.0011576755205169,-0.0013071713037788
1772808591604627000,5.355626953125,0.0821311707198619,-0.0041960725835058,0.0008779473117319,0.0015476457774639,0.0001349772210232,0.0014003964606672
1772808591624676000,5.375676025390625,0.0873702404171228,0.0028494346143677,0.0031456730480073,-5.94793818891e-05,-4.22581215389e-05,0.0003170175477862
1772808591644724700,5.395724853515625,0.0730067840218544,-0.0054940217058639,-0.0056540117402793,-0.0014740913175046,0.0009920665761455,0.0005014215130358
1772808591664774000,5.41577392578125,0.0831833101212978,-0.0050090329342056,-0.0018382345780963,-0.0001132790930569,0.0010919463820755,0.0006757886148989
1772808591684824000,5.435823974609375,0.0812386057943105,-0.0055728225631173,0.0048453211393207,-0.000208401819691,0.0008685195352882,0.0001284820027649
1772808591704873000,5.455873046875,0.0804863261222839,0.0016817608081735,-0.0056010440106038,-0.0004857510793954,-0.002133410423994,0.000617807963863
1772808591724921900,5.475921875,0.0782376704126596,7.33209645375e-05,0.0034427288989769,0.0008448800072073,0.001085664727725,-0.0006174757145345
1772808591744970800,5.495970703125,0.0800333216577768,-0.0111953203537035,-0.0111871461804024,-0.000237944535911,0.0030282577499747,-0.0010676411911845
1772808591765020000,5.51602001953125,0.0824263542741537,-0.0018977325132582,-0.0006627793242456,-0.0019382862374186,0.0006941171595826,-0.0008499100804328
1772808591785069800,5.53606982421875,0.0765875651180744,-0.0027730357767548,0.0017583331757225,-0.0018225915264338,-0.0012551120016723,-0.0002918499521911
1772808591805118700,5.55611865234375,0.0753881262004375,-0.0050051696098409,0.0061805654981872,-0.0012544188648462,-0.0013759480789303,-0.0003882488235831
1772808591825168000,5.57616796875,0.082270871451497,-0.0017322580195497,0.0023625050473725,-0.0022281417623162,-0.0005610242369584,0.0001761778257787
1772808591845216300,5.59621630859375,0.0873579654574394,-0.0026504688430111,-0.0047009533657226,-0.0010863724164664,0.0006386975292116,0.000708736013621
1772808591865265400,5.616265380859375,0.0854144301742315,-0.0043768085784278,-0.0123182462692959,-0.0009345191065222,-0.0002998661366291,-0.0002914131619036
1772808591885314600,5.636314453125,0.0785316849231719,-0.0053155872658826,-0.0062117917535128,0.0004911487922072,-0.0022934905719012,0.0013239614199846
1772808591905364200,5.6563642578125,0.0725444272071123,0.0008900533080566,-0.0020380223333602,0.0009938245639204,0.0005539727862924,0.0010880178306251
1772808591925413400,5.676413330078125,0.0732978759229183,-0.0017037260448094,-0.003929256607173,-0.000777430832386,0.0015459602000191,-0.0004180488176643
1772808591945462500,5.696462646484375,0.0788338827401399,-0.0047609216583427,0.0001025927247945,0.0001253886148333,-7.87854514783e-05,-0.0002813064493238
1772808591965511400,5.716511474609375,0.0828705909103155,-0.0032407263537403,0.0001046568177174,-0.0005846444983035,0.0007358625298365,0.0015343325212597
1772808591985560300,5.736560302734375,0.0798772543132305,-0.0022840466834139,0.0015017463324591,-0.0009101084433495,0.0005168352508917,0.0013032970018684
1772808592005610500,5.756610595703125,0.0791267282068729,-0.0090012535086832,-0.0013025339659303,-0.0008560549467802,0.0009242618107236,0.0001879655756056
1772808592025659400,5.776659423828125,0.0792746122449636,-0.002985737812519,-0.0035810733571648,-0.0011089066974818,-0.0009021292207762,-0.0006829951889812
1772808592045708500,5.79670849609375,0.0788245303899049,-0.0038222434355877,0.0005150140171637,0.0022520679049193,0.0014840688090771,0.0008520954288542
1772808592065757200,5.816757080078125,0.0918424173951149,-0.0032358492492232,-0.005601203840808,-0.0011067383456975,-0.0006967839435674,-0.0001848521642386
1772808592085806300,5.836806396484375,0.0848106190621852,-0.0047495234814938,0.0049449592886259,0.0009946399368345,0.0020418181084096,0.0007194960489869
1772808592105856500,5.8568564453125,0.0816670603394508,-0.0060324211651924,0.0050778558201389,-0.0006399236153811,-0.002134867478162,0.0015755651984363
1772808592125905200,5.8769052734375,0.0827151080876588,-0.00957352783815,-0.0016966250171652,-0.0012462614104151,-0.001246090978384,-0.0007332949899137
1772808592145954300,5.896954345703125,0.0824140793144702,-0.0057450281917117,0.0001215257541276,-0.0018299613147974,0.0011954728979617,0.0020052418112754
1772808592166003500,5.91700341796875,0.0798702400505542,-0.0007123129878193,-0.000346863509179,0.0004165777936577,-0.0009132227860391,-0.0007258942350745
1772808592186052400,5.93705224609375,0.0672942515939474,-0.0034223025988787,-0.0044769855838501,-0.0007757009007036,-0.0008026505820453,0.0004394089337438
1772808592206102300,5.957102294921875,0.0716331575810909,-0.0001817589082289,-0.0081461345166899,-0.0003485269844532,0.0005774884484708,0.00189741095528
1772808592226151400,5.9771513671875,0.0916845964848995,-0.0072996098231058,0.0069410650092875,-0.0001010030973702,-0.0017185466131195,0.0024645198136568
1772808592246200300,5.997200439453125,0.0897393076360225,-0.0065465264334809,-0.0036603719713399,-0.0008027967996895,-0.0002051661431323,0.0004703074228018
1772808592266249500,6.01724951171875,0.08435410746634,-0.0025830570294521,-0.0018318322367733,-0.0022167796269059,0.0015002037398517,-0.0016243392601609
1772808592286298400,6.03729833984375,0.0861485896676778,-0.0002412522768136,-0.0004246414531255,0.0007578618824481,-6.13696756772e-05,-0.0005238456651568
1772808592306348300,6.057348388671875,0.0824064805299043,-0.0013699823121074,-0.0023488281484693,-0.0016306617762893,0.0014613587409257,0.0026194918900728
1772808592326397400,6.0773974609375,0.0864519565284252,-0.0077731456189882,0.000792196123884,0.0028481869958341,0.0003455024852883,-0.0013364381156861
1772808592346446300,6.0974462890625,0.0830091225981712,-0.0072264897879678,0.0023017604366177,-0.0009526214562356,-0.0028521914500743,-0.0012569460086524
1772808592366495500,6.11749560546875,0.0865998405665159,-0.0061781406456604,-0.0059729780289577,0.00221694028005,-0.0017451267922297,0.000467415433377
1772808592386544400,6.13754443359375,0.0791226365536451,0.0006296579393558,-0.0029506482328288,-0.0006167956162244,2.80157546512e-05,-0.0014427616260945
1772808592406594300,6.15759423828125,0.0797217714905738,0.0031051720742601,-0.0016709334534825,0.0030207992531359,-0.0038253767415881,0.0002984418533742
1772808592426643500,6.1776435546875,0.0770259565353393,0.0013729962531011,-0.0034513231973862,-0.0004050626885145,-0.0033658777829259,0.0009343980345875
1772808592446692400,6.1976923828125,0.0860071353703737,-0.0110197537242434,0.0028011156603461,0.0007422999478876,4.58672875538e-05,4.49228100478e-05
1772808592466741200,6.2177412109375,0.0713426502019166,-0.008660148453433,-0.0040801956854527,0.0002628844231367,-0.0015290707815438,-0.0002273223362863
1772808592486790400,6.237790283203125,0.0801724378675222,-0.0063421812341082,0.0003422740990296,0.0018436475656926,0.0002969476045109,0.0005305130034685
1772808592506840600,6.257840576171875,0.0822702869296073,-0.0067529083263129,0.0080137266089441,-0.0029729166999459,0.0008976066019386,-0.0029669040814042
1772808592526889200,6.27788916015625,0.0840676917403936,-0.0016300580203998,0.000995038919337,0.0038781277835369,6.12884177826e-05,0.0008449698798358
1772808592546938400,6.2979384765625,0.0792822110295295,-0.0104871720843482,0.0031990243701729,0.0016035665757954,-0.0006323655834421,0.0006033494137227
1772808592566987300,6.3179873046875,0.0912549728959798,-0.0060605878137517,-0.0012076633232878,-0.0007358845323324,-0.0014117019018158,0.0013816279824823
1772808592587036400,6.338036376953125,0.0730021078467369,-0.0056482715526595,-0.0063267736024223,0.0025558797642588,-0.0013661419507116,0.0020883290562778
1772808592607086300,6.35808642578125,0.0840752905249595,-0.0003644950639922,0.0067408982281107,0.0008129980415105,-0.0029700580053031,-0.0020529762841761
1772808592627135200,6.37813525390625,0.0834744020223617,-0.0038530952315777,0.00046769971014,-0.0011076459195464,0.0009933563414961,-0.0014554602093994
1772808592647184400,6.398184326171875,0.084520111683011,-0.0080881755180656,-0.0023620392564916,-0.001501623308286,0.0005095232627354,8.03540460765e-05
1772808592667233500,6.418233642578125,0.0762900434762239,-0.001929050100129,0.0048791503436863,0.0017465497367084,0.0006599337793886,-0.0003796843811869
1772808592687282400,6.438282470703125,0.076291797041893,-0.0001246766924392,-0.0056364349843934,-0.0009891327936202,-0.0005315209855325,0.0010036875028163
1772808592707332400,6.458332275390625,0.0791308198601007,-0.0083016538719646,-0.0085771463450975,-0.0040053226985037,0.0002201369497925,-2.3306813091e-05
1772808592727381500,6.478381591796875,0.088255791079998,-0.0003288483618758,-0.0014504728029482,9.83490608632e-05,-0.0018655970925465,0.0012333607301115
1772808592747430400,6.498430419921875,0.0860106425017118,-0.0005846954196225,0.0056118896316038,-0.000353664625436,-0.0018697737250477,0.0003412603400647
1772808592767479300,6.518479248046875,0.0840671072185039,-0.0016286606477573,-0.0017977747035445,-0.000582855194807,-0.0008094297954812,0.0005465410649776
1772808592787528200,6.538528076171875,0.0807744954138994,0.0020801216091495,0.0005142605319153,-0.00052594486624,-0.0007567176362499,0.0016447203233838
1772808592807577300,6.558577392578125,0.0786795689612627,-0.0083421959449071,-0.0011291821264429,-0.0022104412782937,-0.0005819498910568,-0.0014225430786609
1772808592827627500,6.57862744140625,0.0831646054208278,-0.0062621017352212,0.0087833729743026,0.0007119737565517,0.0001345246564596,-0.0002755736932158
1772808592847676700,6.5986767578125,0.076284198257327,-0.0050964920219499,0.0005266724889166,9.79695469141e-05,0.0006399819394573,-0.0013604597188532
1772808592867725800,6.618725830078125,0.0794254188925027,-0.0009883717165328,0.000227031955216,0.001786180306226,0.0004990271991118,0.0001018322072923
1772808592887775000,6.63877490234375,0.0704500852763652,-0.0076986008117441,-0.0005378788695205,0.0008695041760802,0.0006686957785859,-0.0009541264735162
1772808592907823900,6.658823974609375,0.0816717365145683,-0.0045316703465767,-0.0037928757772082,-0.001020721392706,0.0002787869307212,0.0028493653517216
1772808592927873800,6.678873779296875,0.0762859518229961,-0.0028621570986229,0.0066069148512091,0.0016438267193734,-0.0010207584127783,0.0014870492741465
1772808592947923000,6.6989228515625,0.0718003308415412,-0.0050150151504203,0.005220785121899,-0.0008498432580381,0.0013139656512066,-0.0014391392469406
1772808592967971800,6.718971923828125,0.0795762255400419,-0.003611651158519,-0.0077825436349958,0.0006974209100008,-0.0006988754030317,-0.0022675185464322
1772808592988021000,6.73902099609375,0.0824187554895877,-0.0051517110742162,-0.0125587496274383,-0.0020247679203748,0.0010754482354968,3.4580938518e-05
1772808593008069600,6.759069580078125,0.079725278621912,-0.0057479416680056,-0.0008011877145152,0.0009370953775942,-0.0019722150173038,0.0021793299820274
1772808593028119800,6.779119873046875,0.0791278972506523,-0.0064597614654805,0.004649373875535,0.0005037104710936,-0.0017707657534629,-0.000539812259376
1772808593048169000,6.7991689453125,0.0819680891126394,-0.0102521942846942,0.0005132010859902,-0.0009442316368222,-0.0009585518855601,0.0014162340667098
1772808593068217900,6.8192177734375,0.0919891323894262,-0.0053760122162289,0.0032510787843959,-0.0020973170176148,0.0004223396535962,-0.0011954712681472
1772808593088266800,6.839266845703125,0.0824129102706909,-0.0079220982361584,-0.0148415724681457,0.0002655801363289,0.0027148849330842,0.0015258581843227
1772808593108317000,6.85931689453125,0.0946849473446607,-0.0067621328123845,0.0067526891306042,-0.0014514955691993,0.0006644210661761,-0.000455732923001
1772808593128365800,6.87936572265625,0.084960256665945,9.48752092197e-05,-0.0035409468427533,-0.0017272897530347,-0.0020003395620733,-0.0004074703902006
1772808593148415000,6.8994150390625,0.0662573097616434,-0.0055620180413126,-0.0030079770437907,-0.0021351808682084,0.0025739001575857,-0.000942233018577
1772808593168464000,6.9194638671875,0.078376786622405,-0.0003819759217556,-0.0121618135985685,0.0016228719614446,-0.0022404233459383,0.001261725090444
1772808593188512800,6.9395126953125,0.0822638571888208,-0.0070480279485229,-0.004413683689828,-0.001837400952354,-0.0012476850533857,0.0006484813056886
1772808593208563000,6.95956298828125,0.0743301415801048,-0.0061195697256829,-0.0033041332790395,0.0024603363126516,-0.0002227077930001,0.0031760279089212
1772808593228611800,6.97961181640625,0.0824099876612424,0.0005944130960386,-0.0013646257169777,-0.0001567238941788,-0.0009452315280213,0.0008173556998372
1772808593248660700,6.99966064453125,0.0738800597250461,-0.0050332357937004,-0.0007874286172213,0.0002433047629892,-0.0004725300241261,0.0012568291276693
1772808593268710000,7.0197099609375,0.082561963352561,-0.0100872951797209,0.0009233071236871,-0.0016759915743023,0.0011144857853651,-0.0024903509765863
1772808593288758800,7.0397587890625,0.0729828186243772,-0.0168155348556581,-0.0027570162237156,0.0011341855861246,0.0008477329974994,0.002148499013856
1772808593308808000,7.059807861328125,0.0913899974524974,-0.005552081169188,-0.0065585410982603,0.0015378859825432,-0.0015154137508943,0.0004734857939183
1772808593328857900,7.07985791015625,0.079717679837346,-0.0061682220398448,0.0044411151194479,0.0006731208413839,0.0015087781939655,0.000404390040785
1772808593348906800,7.09990673828125,0.0771750096172094,-0.0079999766448047,0.0007075865803519,-0.0010518475901335,-0.0019494952866807,0.0003822818398475
1772808593368956000,7.119955810546875,0.0773252317428588,-0.0051049767225049,0.0004818515330785,0.0004489948041737,-0.0003999969630967,0.0010813975241035
1772808593389005000,7.140005126953125,0.0773252317428588,-0.0045319808738306,-0.0004903636330971,-0.001666366122663,0.0028104758821427,0.0016621898394078
1772808593409054700,7.1600546875,0.0812128868311643,-0.0008483695907983,0.0018517927459906,-0.0022075036540627,-0.0019565199036151,0.0015595930162817
1772808593429103900,7.180103759765625,0.083306059718132,-0.0038608858123887,0.0011431147536728,-0.0011140869464725,-3.86423780582e-05,0.0009094185661524
1772808593449153000,7.200153076171875,0.0807610514104366,-0.0071000960624776,-0.000260276637692,0.000995167531073,-0.0005273312563076,-0.0006716954521834
1772808593469202000,7.220201904296875,0.0750742379456758,-0.0095895930569618,0.0059971671887207,0.0014013685286045,0.0014126179739832,-0.0010013883002102
1772808593489250800,7.240250732421875,0.0847977595806121,0.0036469416676089,0.002957662495505,-0.0042112823575735,0.0001095973420888,0.0004701279103755
1772808593509301000,7.260301025390625,0.0795575208395719,-0.0073260503054596,0.0018918187957024,-0.0002897426020354,0.0003249828296247,0.0016024613287299
1772808593529350000,7.280349853515625,0.0770148506194353,-0.008462232994847,-0.0035657387907151,-0.0002124193124473,0.002018169267103,-0.0003900779411196
1772808593549398800,7.300398681640625,0.092129417642951,-0.0065987772105261,-0.0046732205420034,-0.0002868834417313,-0.0023319760803133,0.0014170268550515
1772808593569447700,7.32044775390625,0.0753688369780778,-0.0002692271291278,7.49923318158e-05,0.0017128894105553,0.0010117761557921,0.000473977997899
1772808593589496800,7.340496826171875,0.0961702174663543,0.0001497106689959,0.0040075368746183,-0.0005262587219476,-0.0006416571559384,0.0016684695146977
1772808593609547000,7.360547119140625,0.0831505768954753,-0.0077039985060691,0.005976905285404,0.0018739337101578,0.0002246347139589,0.0001536807976663
1772808593629595600,7.380595703125,0.0852478414356708,-0.0052797761669848,-0.0037098599691409,-8.27158801257e-05,-0.00080619455548,-0.0006754826754331
1772808593649644800,7.400644775390625,0.085098203831911,-0.0027143095931503,0.0024299305606633,-0.0010759555734694,0.0012597499880939,7.57295638322e-05
1772808593669694000,7.42069384765625,0.0810544813990593,-0.007448352377722,-0.0082917809319216,-0.0005325239617377,-0.0013093880843371,-0.0007515316829085
1772808593689742800,7.440742919921875,0.0867418793857097,-0.0067876965119037,0.0005505282885394,0.0027599153108894,0.0011251815594732,0.0014141269493848
1772808593709792800,7.460792724609375,0.0818067610710859,-0.0037512422922998,-0.0027706246239598,-0.002377051860094,0.0018402773421257,-0.0009418237023055
1772808593729842000,7.480842041015625,0.0816553699016571,-0.0167556030956562,-0.0087423696770565,-0.0020610184874385,-0.0005899366806261,0.0014755716547369
1772808593749890800,7.500890869140625,0.0684872607707977,0.0013647124819457,-0.0014561627582181,0.0006722910329699,0.0002543141308706,0.0016034056898206
1772808593769940000,7.52093994140625,0.0773123722612857,-0.003616126404237,-0.0044048473628237,0.0006374837830662,0.0009781895205378,-0.0009465948678553
1772808593789988900,7.54098876953125,0.0683358696013689,-0.0078619564136024,-0.0006816529880743,0.0007196222431957,0.0002824725233949,-0.0002803816460072
1772808593810038800,7.561038818359375,0.0741699825823306,-0.0031640991872642,0.0056635193541413,-0.0031783068552613,0.0004104734689462,3.46801243722e-05
1772808593830091500,7.581091552734375,0.0816501092046499,-0.0053061344509478,-0.0020134906803024,-0.0016589134465903,-0.0009870366193354,0.0004274249076843
1772808593850140700,7.601140625,0.0850917740911245,-0.0065925209996756,-0.0067675442064413,0.0008070808835327,0.0001356397406198,-0.0024779746308922
1772808593870189300,7.621189208984375,0.0768640439718961,-0.0056831693361047,0.0053367853175383,0.0028254855424165,-0.000652530696243,5.59841282665e-05
1772808593890238500,7.641238525390625,0.0765694449394941,-0.0189610041854437,0.0059773847760166,0.0018662484362721,-0.0015512914396822,-0.0011230427771806
1772808593910288600,7.66128857421875,0.086446695831418,-0.0032594493205193,0.0013191791400546,-0.0009270133450627,-0.0004131942696403,0.0013906972017139
1772808593930337500,7.681337646484375,0.0840565858244895,-0.0110410431074444,-0.0078905431872699,-9.5698051154e-06,-0.0010957070626318,-0.0003773160278797
1772808593950386400,7.701386474609375,0.0777729755103588,-0.0142319024374708,0.0047165436604991,0.0004053013399243,-0.0016817811410874,-0.0012168292887508
1772808593970435300,7.721435302734375,0.0815150846481323,-0.0013213847968727,-0.0056798494344344,1.15688890218e-05,0.0017025435809046,0.001111589372158
1772808593990484500,7.741484375,0.0765723675489425,0.0019333244164474,-0.0051162196357268,-0.0007104778196662,0.0003743345441762,-0.0005164393223822
1772808594010534400,7.761534423828125,0.0800157860010862,-0.0034022005257662,-0.0047543046878883,0.0030857934616506,-0.0015625560190528,0.0003299727104604
1772808594030583300,7.781583251953125,0.0840536632150411,-0.0071173394582234,0.0008692479820456,0.0006401878781616,0.0005307950777933,0.0001270123757421
1772808594050632400,7.801632568359375,0.0897381385922432,-0.0143041639560833,0.0058165727576939,-0.000455267028883,0.0005519500700756,-0.0025912164710462
1772808594070681600,7.821681640625,0.0900350757122039,-0.0081906495118513,-0.0048288814611732,0.0018516592681407,0.0016301206778734,-0.0012896852567791
1772808594090730500,7.84173046875,0.0743202047079801,-0.0011821498561184,-0.0018275716201867,0.0005378359928727,-0.0023679703008383,-0.0012806160375475
1772808594110780400,7.861780517578125,0.0892863031715154,-0.0096050920201931,0.0020995067296316,0.0004451186396181,0.0009044669568538,-0.0016062869690358
1772808594130829600,7.88182958984375,0.0849438900530338,-0.0029129009051714,0.0039988466780865,-0.0005184535402804,0.0011257957667112,0.000234083738178
1772808594150878500,7.90187841796875,0.0759638802617788,-0.0123397228821646,0.0074456489639822,-0.0007382736075669,-0.0010062339715659,0.0032671028748154
1772808594170927600,7.921927734375,0.0764075323760509,-0.0065284701869823,-0.0054486253612907,-0.0010902467183768,-0.0007782495813444,-5.14942221343e-05
1772808594190977500,7.9419775390625,0.0767033004522323,-0.0134912036053836,-0.0015219397371169,-0.0008014035411179,-0.0009782469132915,-0.0012200479395687
1772808594211026400,7.9620263671875,0.0770054982692003,0.000564054490393,-0.0016349807906895,0.0031043146736919,0.002701060147956,0.0012291939929127
1772808594231075600,7.98207568359375,0.0820972684502601,0.0019629980355035,-0.0005860516930697,-0.0016222146805375,-0.0004660403938032,0.0020944962743669
1772808594251124500,8.00212451171875,0.0816477711170911,-0.0051465965076815,-0.0044163368712179,0.002858564723283,9.65609215199e-05,-0.0006751646287739
1772808594271173400,8.02217333984375,0.0865881501287221,-0.0074012983656022,0.0019407633708091,-0.0002448065206408,-0.001184404711239,-0.0001251972280442
1772808594291223600,8.0422236328125,0.0859901842355728,-0.0089662095947656,-0.0078663631606614,0.0002209527883678,-3.70367488358e-05,0.002453806111589
1772808594311272400,8.0622724609375,0.0825467657834291,-0.0024772677005734,-0.0017013742575189,-0.0013916336465626,-0.0021053608506917,-0.0001705307513475
1772808594331321600,8.082321533203125,0.0800029265195131,-0.011485398474615,-0.0011806337524671,0.0028991210274398,-9.75128641584e-05,0.0029180832207202
1772808594351370500,8.10237060546875,0.0788087482988834,0.0004101699697785,-0.0035280279956758,-0.0022770729847252,-0.0005040726973675,0.0009588571265339
1772808594371419400,8.12241943359375,0.0786585261732339,-0.0024766649123746,-0.0074547958182403,-0.0010406153742223,0.0011097908718511,-0.0021130186505615
1772808594391469600,8.142469482421875,0.080901921185851,-0.0103267664914019,0.0027316351872868,-0.001025095116347,0.0004471119609661,0.0011987399775534
1772808594411518500,8.1625185546875,0.0821019446253776,-0.0016143215951509,0.0010398964077932,-0.0009429040364921,0.0011992459185421,0.0024701985530555
1772808594431567400,8.1825673828125,0.0741699825823306,-0.0062343460786156,-0.013050665896805,-0.0027469205670058,-8.54234385769e-05,-8.33496451377e-05
1772808594451616500,8.202616455078125,0.0841962865561246,-0.0108268341011833,-0.0009506243888754,0.0019607106223702,0.0007652654312551,0.0008170458022505
1772808594471665400,8.22266552734375,0.0794090522795915,-0.0055336139307357,-0.0047264120339648,-0.0017011440359055,8.98082216735e-05,-0.0001146653667092
1772808594491715300,8.24271533203125,0.081653616335988,-0.0086651260226499,-0.0011500102853402,0.0036800664383918,-0.0014339900808408,0.0003203628584742
1772808594511764500,8.262764404296876,0.08060556858778,0.0031280597595032,-0.0006277810761006,-0.0001623965799808,0.0003588531108107,-7.68098980188e-05
1772808594531813400,8.2828134765625,0.0794154820203781,-0.0032144776676315,-0.0028190577424131,0.0013636865187436,0.0021428228355944,0.0020935204811394
1772808594551862500,8.302862548828125,0.0864525410503149,0.000928302959213,-0.0079330260555492,-0.0006367661990225,-0.0009019944118335,0.0022405800409615
1772808594571911700,8.32291162109375,0.078072835239768,-0.0119754835464991,0.0014123647156869,-0.0001772318501025,0.0004188768507447,0.002619280014187
1772808594591961300,8.34296142578125,0.0849555804908275,-0.0071317059102933,-0.0067904181919526,-0.0001912221778184,-0.0003585722588468,0.0015506253112107
1772808594612010500,8.363010498046876,0.0789694918185472,-0.0112438356705475,-0.0085183105636388,0.0007112496532499,0.0009264582768082,0.0013654516078531
1772808594632059600,8.3830595703125,0.0842056389063596,-0.0060510345341172,-0.0054023568004602,-0.0024692825973033,-0.0019256107043474,-0.0001053316518664
1772808594652108500,8.403108642578125,0.0882411780327558,-0.0012304825098719,-0.0088232985593145,-0.0008255434222519,-0.0005457772058434,0.0004045576788485
1772808594672157400,8.423157470703124,0.0687859514564275,-0.0035770456360187,-0.0076513595699565,1.70164275914e-05,-0.0022211205214262,0.0015814651269465
1772808594692207600,8.44320751953125,0.0804535928964614,-0.0085635288116987,-0.0042229057915043,-0.0014577379915863,-0.000287475209916,0.0019513934385031
1772808594712256500,8.463256591796876,0.080303370770812,-0.0093654654448851,0.0033817239933181,0.0004925283137708,-0.001117656356655,1.87982805073e-05
1772808594732305400,8.483305419921875,0.0815004716008901,-0.0121263084603473,0.0005042231950908,0.0028176107443869,-0.0009748849552124,-0.0007309475913643
1772808594752354300,8.503354248046875,0.0804530083745718,-0.010004320470849,-0.0047845536956796,-0.0001329302322119,0.0002650315582286,-0.0001243911683559
1772808594772403500,8.523403564453124,0.0837456201791763,-0.0056785114272963,0.0003154682904947,0.0002241404727101,-0.0011187820928171,0.0003795179072767
1772808594792453600,8.54345361328125,0.0723731622934341,-0.0045300263787619,0.0066581061823293,-0.0017746095545589,0.0021819616667926,0.0006109501700848
1772808594812502300,8.563502197265626,0.0780582221925258,-0.007815359059209,0.0004400536513887,1.68888363987e-05,4.36521659139e-05,-0.0013914206065237
1772808594832547000,8.583547119140626,0.0870358938962221,-0.0063442087944131,-0.0026064881373895,-0.0016526828985661,0.0011314777657389,0.0003638903144747
1772808594852596200,8.60359619140625,0.0856897399842739,-0.0074278849784284,-0.007436310313479,0.0012957996223121,-0.0001621167175471,-0.0003608809784054
1772808594872646100,8.623646240234375,0.0711772305071353,-0.0039750593771226,-0.0028688014685409,-0.0001864603254944,0.0008715466829016,-0.0005528507754206
1772808594892695300,8.6436953125,0.0855453630775213,-0.0066827291669324,-0.0010609391958219,0.0018427225295454,0.0004080078797414,3.5311095416e-06
1772808594912744200,8.663744140625,0.0810533123552799,-0.0029229565083049,-0.004497389051062,0.0024733373429626,-0.0013094567693769,-0.0004903441295027
1772808594932793000,8.68379296875,0.0828524707317352,0.0013256865126546,0.0077020394444232,0.0033231624402105,0.0005309493280947,-0.00027392571792
1772808594952842200,8.70384228515625,0.0771679953545332,-0.0121791346261277,-0.0067642060384619,0.0005357870832085,-0.0007409442332573,-0.0005281921476125
1772808594972892200,8.72389208984375,0.0785159028321504,-0.0067611464316956,-0.0035900969138368,0.0009789536707103,0.0013569369912147,0.0005037351511418
1772808594992941000,8.743941162109374,0.0777659612476825,-0.0090250453762244,0.0030721009217202,-0.0002636688295751,-0.0003590960986912,-0.0024238754995167
1772808595012990200,8.763990234375,0.0752168612867593,-0.0096675719303078,-3.23359336005e-05,-0.0003570874687284,-0.0003267322608735,-0.0010870937258005
1772808595033039000,8.7840390625,0.0735702631235122,-0.0055114934304729,0.0057605088886339,0.0021144435741007,-0.000473337364383,0.0026805682573467
1772808595053088300,8.804088134765625,0.0880856952100992,-0.0073003952743951,-0.0107947812953731,-0.0007631797343492,0.0007467886898666,-0.0007849680259823
1772808595073138200,8.82413818359375,0.0828454564690589,-0.0080057670647744,-0.0062575305913807,0.0015643441583961,0.0002892345364671,0.0015873701777309
1772808595093187000,8.84418701171875,0.0919721812546253,-0.0087962872548028,-0.0074688928422518,-0.0028937247116118,0.001359665300697,0.0008363500237464
1772808595113236200,8.864236328125,0.0723708242058753,-0.0087331954233348,-0.0055567710440373,0.0004743158351629,-0.0005117561668157,0.0004692068323493
1772808595133285400,8.884285400390626,0.0728197370171546,-0.0048840183150488,-0.0059142427121987,-0.0006562285125255,-2.8727663448e-05,0.0014138664118945
1772808595153334000,8.904333984375,0.0770072518348693,-0.0052011214402038,0.0056183467718539,-0.0009023300372064,0.0011383851524442,0.0010914446320384
1772808595173384200,8.92438427734375,0.0823947900921106,-0.0034996604177169,-0.0014893846078077,0.0002135508693754,0.0012284046970307,-6.61239027976e-05
1772808595193433300,8.944433349609374,0.0828407802939415,-0.0060185753029305,-0.0060846491093514,-0.0002284119836986,5.35798026248e-05,-0.0003573028370738
1772808595213482200,8.964482177734375,0.0811935976088047,-0.012871683467552,-0.0021656033689389,0.0010291168000549,-0.0005467085866257,0.0007388787344098
1772808595233531100,8.98453125,0.0768552761435508,-0.0101927100492641,-0.0052181045410456,-0.0011369043495506,0.0016108497511595,0.0033919098787009
1772808595253581300,9.004581298828125,0.0873299084067344,-0.0100220570569392,0.0023337721432326,-0.000310355098918,0.0010132752358913,-0.0021326458081603
1772808595273630200,9.024630126953124,0.0876285990923643,-0.0077270505880936,-0.0051190235141664,3.90144996345e-05,-0.0022460774052888,0.0011383879464119
1772808595293679400,9.044679443359374,0.0764069478541612,-0.0094730722715146,-0.0046087907033972,0.0002852724865078,0.0014261074829846,1.84196978807e-05
1772808595313728000,9.06472802734375,0.0828384422063827,-0.0023244517590384,0.0011942969516385,0.0020254249684512,-0.0009168701944872,0.0006770431064069
1772808595333777200,9.084777099609376,0.0862783535271883,-0.0082672949446365,-0.0049493340696441,-0.001682432135567,0.0014556538080796,8.35354439914e-05
1772808595353827300,9.104827392578123,0.0744558137863874,-0.0070717832834459,0.0020953054785495,-0.000602863729,0.0014094607904553,0.0023510444443672
1772808595373876000,9.1248759765625,0.0868763194203376,-0.0047872342765331,0.0031963803219376,0.0010029298719018,-0.0026739542372524,0.0005427349824458
1772808595393925000,9.144925048828124,0.0847796394020319,-0.0152671363698784,0.0031624552194494,-0.0026445968542248,0.0001217822427861,-0.0002881404943764
1772808595413974300,9.164974365234375,0.0746031133025884,-0.0104468857397325,0.0048721452141646,-0.0021092372480779,0.000815387815237,0.0015634486917406
1772808595434023200,9.185023193359376,0.0777449184596538,-0.0070308484848588,-0.0027983483145246,-0.0009260338265448,0.0008887217845767,0.0003422838635742
1772808595454073000,9.205072998046877,0.0665180065244436,-0.0080038491023238,-0.0039644786176038,-0.0007655292283743,-0.000309222494252,-0.0001850952394306
1772808595474122200,9.225122314453126,0.0722065735548734,-0.0142835686926264,0.0050562102439114,-0.0009014136157929,3.6966841435e-05,-0.0005789487622678
1772808595494171100,9.245171142578124,0.0834311474025249,-0.0116497404571622,0.0009855084725888,0.0015647411346435,-6.06833782512e-05,0.0017855621408671
1772808595514220300,9.26522021484375,0.0780471162766218,-0.0044145467729307,-0.0038319245793856,0.0020822891965508,-0.0027816225774586,5.57964667677e-05
1772808595534269200,9.285269287109376,0.0852308903008699,-0.0049097464113496,-0.0056340009987121,0.0019901033956557,-0.0018579121679067,0.0005107435863465
1772808595554319000,9.305319091796877,0.0753571465402841,-0.0068239642685279,0.0091395888337166,0.0021433308720588,0.0002010210591834,-0.0003680377267301
1772808595574368300,9.3253681640625,0.0867266818165779,-0.0036306937857065,-0.0039570396632421,0.0007786639034748,-0.0017757362220436,0.0006537432782351
1772808595594417200,9.345417236328124,0.0722094961643219,-0.0164131645998451,-0.0049070840968051,-0.0016768581699579,0.0027029931079596,0.0005183652974665
1772808595614466300,9.36546630859375,0.0888251154005527,-0.0091539507192093,-0.0051199733622372,0.0008956410456448,-0.0008674961864016,0.0003470154479146
1772808595634516200,9.38551611328125,0.069072367182374,-0.0087551423936616,0.0015690805142046,-0.0002117643598467,0.0004968292778357,-0.0005068518221378
1772808595654565000,9.405565185546877,0.0858341168910264,-0.0106958098663482,-0.0046304088801611,0.0012737503275275,-0.0018902411684393,0.0009677035268396
1772808595674614300,9.4256142578125,0.0782066907525062,-0.0101239830614533,-0.0010376953175524,0.0010625862050801,-1.42017379403e-05,-0.0005799508653581
1772808595694663200,9.4456630859375,0.0780564686268567,-0.0080428111395332,-0.0031637475608149,0.0005520682316273,0.0008186120539903,-0.0011919909156858
1772808595714712000,9.465712158203123,0.0758113200485706,-0.0079102799342013,-0.0030074199213646,-0.0002899663522839,-0.0017983911093324,-0.0001007937826216
1772808595734762200,9.48576220703125,0.0626443799614906,-0.0096272581862285,-0.0060366224162746,0.0015125102363526,-0.0003270962333772,0.000247445423156
1772808595754811400,9.505811279296877,0.0828460409909486,-0.005138468000153,0.0005752563044195,-0.0016469701658934,0.0015076685231179,0.0010155760683119
1772808595774860000,9.525860107421876,0.07655833902359,-0.0032080205273814,0.0009485374630661,0.0006922355387359,-0.0018544951453804,-0.0002877037040889
1772808595794909200,9.5459091796875,0.0767097301930189,-8.96327785216e-05,-0.0078553303099935,1.13104470074e-05,0.0017093562055379,0.0002540000714361
1772808595814958000,9.5659580078125,0.077906831023097,-0.0078181994702666,0.0019191497606225,-0.0008585655596107,-0.0006566940573975,-0.0001078806817531
1772808595835009300,9.58600927734375,0.0882329947263002,-0.0059256271893158,0.0017635390738025,-0.0016051863785833,0.0015003598527982,-0.0003585969097912
1772808595855058400,9.606058349609375,0.0759621266961097,-0.0028577823176048,0.00101494006305,-0.0015269760042428,-0.0017881086096167,-0.0006952346302568
1772808595875107300,9.626107421875,0.0719213268727064,-0.0083476301718503,-0.0037864140703808,-0.000807193107903,-0.0002583007153589,0.0004145205020904
1772808595895156500,9.646156494140625,0.0864379280030727,-0.0054299982926342,-0.0075381815190659,0.0001975984778255,0.001143169007264,0.001382757211104
1772808595915206400,9.666206298828126,0.0780599757581949,-0.0104183994307648,-0.0050959942650282,0.0026453984901309,0.0004677982069551,-0.0001095794141292
1772808595935255300,9.68625537109375,0.0852449188262224,-0.0087081888462416,0.0010037884813733,0.0005573970265686,-0.0012417784892022,-0.0008872346952557
1772808595955304400,9.706304443359375,0.0818050075054168,-0.0009911664618179,-0.0062293091438943,0.0035941919777542,-0.0003934131527785,-0.0021587284281849
1772808595975353300,9.726353271484374,0.0831523304611444,-0.0050847559183835,-0.0036559743574354,-0.0014881519600749,0.0016119654756039,0.0016281835269182
1772808595995402200,9.74640234375,0.08495090431571,-0.0078556180043611,0.0049319034442305,0.0014076270163059,4.8891728511e-05,-0.0013861232437193
1772808596015452400,9.766452392578126,0.0771715024858713,-0.0019823877225629,-0.0050664028443628,0.0006066923961043,-0.0018688751151785,-0.000699492637068
1772808596035501300,9.786501220703125,0.0833072287619113,-0.0038606666166801,0.0058135177175048,0.0009314881172031,0.0009629675769247,-0.00034039048478
1772808596055550500,9.806550537109375,0.0801642545610666,-0.0084298468288965,0.0031546783383702,-0.0003590031992644,-0.0016795007977634,-0.0021022814325988
1772808596075599400,9.826599365234374,0.0848024357557296,-0.001257708443515,0.0039760137917706,0.0019039781764149,0.0001161448890343,0.00121606211178
1772808596095648300,9.846648193359377,0.0740308663725853,-0.0146623754097614,-0.0024925703009823,-0.0008123542647808,0.0003192142758052,0.0023703707847744
1772808596115698400,9.866698486328126,0.0765782127678394,-0.0105725944786332,-0.0023954848683672,-0.0003532283008098,-0.0013965460238978,0.0011958200484514
1772808596135747300,9.886747314453125,0.0803197373837232,-0.002771044749068,-0.0035585829641437,0.0006940851453691,0.0009784431895241,-0.0011840490624308
1772808596155796200,9.906796142578123,0.0722352151274681,-0.0008171616017818,-0.0015813600404653,-0.0024982960894703,-0.0021791930776089,-0.0014391932636499
1772808596175845400,9.926845458984374,0.0853998171269893,-0.0035336905514821,0.00067416836794,0.0003512408584356,0.0002177669957745,-0.0017069182358682
1772808596195894300,9.946894287109377,0.0834556973218917,-0.0037285372701473,-0.0010638663718476,0.0002202270552515,0.0001030396961141,0.0008264272473752
1772808596215944200,9.966944091796876,0.0792675979822874,-0.0033048410985153,-0.0003844784060958,-0.0009002261795103,-0.0001815949945012,-0.0027001518756151
1772808596235993300,9.986993408203125,0.0807692347168922,-0.0056687846177257,-0.0007286248018033,0.0020135834347456,0.0002798629575408,-0.0015036240220069
1772808596256042200,10.007042236328124,0.0661059185922145,-0.0077160999358166,0.0011933608032995,-0.0004131763707846,0.0001692670921329,-0.0005037612281739
1772808596276091400,10.02709130859375,0.0705950467050075,-0.0039843295289669,-0.0044586325098294,0.0020512174814939,0.0017206803895533,-1.24382786452e-05
1772808596296141300,10.047141357421877,0.0717944856226444,-0.0076490899810567,-0.0013689365659141,0.0021545304916799,0.0002848633739631,-0.0015089479275047
1772808596316190200,10.067190185546876,0.0807750799357891,-0.007534295361815,0.0021638589364243,-0.0001205552835017,-0.0007690065540373,0.0018765453714877
1772808596336239400,10.0872392578125,0.0804752202063798,-0.0059098176988307,-0.0009879835574654,-0.0004230777267366,0.0003820833808276,0.000428749481216
1772808596356288500,10.10728857421875,0.078229487106204,-0.0042010775521863,-0.0042573743166867,-0.0007231873460114,0.0021769239101558,-0.0004192134365439
1772808596376337400,10.12733740234375,0.0839163005709648,-0.0060354077067226,0.0040356121916323,0.000604924513027,-0.0002474250504747,-0.0001992378383874
1772808596396387300,10.14738720703125,0.0717892249256372,-0.0034700233312789,-0.0075663892668206,-0.0026917876675724,-0.0005860298406332,0.0014787958934903
1772808596416436500,10.1674365234375,0.08196692006886,-0.008044108047476,-0.0048702135519823,-0.0003263200633227,0.001116435858421,0.0005977887194603
1772808596436485400,10.1874853515625,0.1707213083207607,0.0055727768973447,-0.03194627669584,0.0063947457820177,0.0195282083004713,0.0005189299117773
1772808596456534300,10.2075341796875,0.0993634605497121,-0.0008752393314149,-0.0183725778721971,0.0051769977435469,0.0008337761973962,0.0002680160105228
1772808596476583200,10.227583251953124,0.0483346995800733,-0.0120834922319278,0.0101221495806821,-0.0011061190161854,-0.0093788690865039,0.000591091113165
1772808596496633300,10.24763330078125,0.0882832636088132,-0.0086257895261049,-0.0059470878191641,0.0020216156262904,-0.0029456976335495,-0.0004143002443015
1772808596516682500,10.2676826171875,0.0685299308687448,-0.0067363133845385,-0.0020342320742318,-0.0024355517234653,-0.0025976467877626,-0.0018476834520697
1772808596536731100,10.287731201171876,0.0728594845056533,-0.0021876919031608,0.0059694937305059,-0.0032940469682216,-0.007265271153301,-0.0015123174525797
1772808596556780300,10.3077802734375,0.0659662178605794,-0.0047251288257539,-0.0087807471923762,-0.0010881412308663,-0.0059087080880999,0.0001377938315272
1772808596576829400,10.327829345703124,0.0764373429924249,-0.0053254784722346,0.0036602669400628,0.0014351452700793,-0.0015704411780461,0.0016296389512717
