time,seconds_elapsed,accel_z,accel_y,accel_x,gyro_x,gyro_y,gyro_z
1772808563644333300,0.096333251953125,0.0805465318769216,0.0077286854227539,0.0063916737984865,-0.0010077408514916,0.0021223942749202,-0.0004110448062419
1772808563664382200,0.11638232421875,0.0818926857888698,0.0020409403762314,-0.0013627031879499,-0.0018964133923873,-0.0018211986171081,-0.002203996758908
1772808563684432400,0.136432373046875,0.0886263779580593,0.0022047526358161,0.0036342237499309,0.0019919145852327,0.0007633975474163,-0.0010339603759348
1772808563704481300,0.156481201171875,0.0791951172679662,0.0026820056255906,-0.0003858301129657,-0.0023652254603803,-0.0042851576581597,0.0013846000656485
1772808563724530200,0.1765302734375,0.0799357065021991,0.0051741329685784,0.0044955030546523,0.0011983234435319,0.0013540887739509,0.0024063086602836
1772808563744579300,0.196579345703125,0.0844201584398746,-0.0078567870481405,0.0089053873521974,0.0006063191685825,0.0018651459831744,0.0012427815236151
1772808563764628200,0.216628173828125,0.0990828900426626,-0.0036263281378429,0.0038555794496089,0.0008328105323016,-0.0016225384315475,-0.000284178648144
1772808563784677400,0.236677490234375,0.0784358233332633,0.0027455449816305,0.0027121770015684,-0.002489797770977,0.001493364572525,0.0003179926425218
1772808563804726000,0.25672607421875,0.0905786810696125,-0.0084668087052647,0.0041855100902961,-0.0016222100239247,0.0013876440934836,0.0027677488978952
1772808563824776200,0.276776123046875,0.0776782829642295,0.0053018875340931,-0.0046456338487565,0.002612181706354,-0.0009138630703091,0.0002663754858076
1772808563844825000,0.2968251953125,0.0726087246149778,0.006110062111821,-0.0023893473885254,0.0007798667065799,-0.0005042657721787,2.84784473478e-05
1772808563864874200,0.316874267578125,0.0651186611205339,0.0014807035444304,0.0026370065732393,0.0006402018480002,-0.0024576969444751,-0.0003494047559797
1772808563884923100,0.336923095703125,0.0815671070963144,0.0023398045917972,-0.0017868560173083,-0.0012539234012365,0.0008076053927652,0.0006654984317719
1772808563904972000,0.356971923828125,0.0824491506278514,0.0012329210621304,0.0044420238683233,0.003874275367707,-0.0012568989768624,0.0027895383536815
1772808563925021200,0.377021240234375,0.081840078818798,3.66330828052e-05,0.0039968647835543,-0.0002806903794407,0.0006448712665587,0.0006220287177711
1772808563945070000,0.397070068359375,0.0852858353585004,-0.0036117607563734,0.0093561587604228,-0.0001584936399012,0.0014430220471695,-0.0002678013406693
1772808563965120000,0.4171201171875,0.0734586194425821,-0.0013485193989705,-0.0101705027840333,0.0002818084321916,-0.0005572626832872,0.0032996132504194
1772808563985169200,0.437169189453125,0.0798895292729139,-0.0037148192720487,-0.0028354426216334,-0.0017840957734733,-0.0007897591567598,-0.0007089343853294
1772808564005218000,0.457218017578125,0.0894523073881864,0.0003751443221699,0.008899706530082,-7.87298195064e-05,1.579237869e-05,0.0014432407915592
1772808564025267200,0.47726708984375,0.0738946727722883,-0.0066163493998348,0.0046534929282264,-0.000344110187143,0.0002602554741315,0.0010541947558522
1772808564045316000,0.497316162109375,0.0764402656018733,-0.0062853730129543,0.0018438012357801,-0.0017037028446793,-0.0015843380242586,-0.0012238635681569
1772808564065365000,0.517364990234375,0.0822790547579526,-0.0006220500216353,0.0086553992130793,-6.36712647974e-05,-0.0005504795117303,-0.0002972637303173
1772808564085415200,0.537415283203125,0.0939554640263319,-0.0095672350946813,-0.0064156117965001,0.0014628337230533,-0.0004601941036526,-0.0005560051649808
1772808564105464300,0.55746435546875,0.0846820242464542,-0.0125334553559776,4.74193383008e-05,0.003003668738529,-0.0002736721944529,-0.0001189154572784
1772808564125513000,0.577512939453125,0.0810977360188961,-0.0038955461338162,0.0024262133667711,-0.0009813108481466,-0.0005011113244108,0.0027632149867713
1772808564145562000,0.59756201171875,0.0812462045788764,0.0048369917023926,-0.0029306055252207,-0.0018525647465139,-0.0008749668486416,-0.0010711392387747
1772808564165611000,0.617611083984375,0.0837923819303512,0.0010452073371503,0.0043689038331853,0.001854732632637,0.0003275161143392,-0.0001241629943251
1772808564185660200,0.63766015625,0.0833463917285203,0.0029840938447043,0.009156165509182,-0.0001956501509994,0.0009703793330118,0.001092916354537
1772808564205709300,0.657709228515625,0.0824503196716308,-0.0077364394709467,0.0001666572372196,0.0017453555483371,0.0006512215477414,0.0007073613815009
1772808564225759000,0.677759033203125,0.0845429080367088,0.000970936524542,0.0008568862573942,0.0014741150662302,0.0010185035644099,-0.0008635446429252
1772808564245808000,0.69780810546875,0.0851414584517478,0.0003364928122144,-0.0068315356536302,0.0006822699215263,0.000475900771562,0.0007578178774565
1772808564265857300,0.717857177734375,0.0839426040560007,0.0011344565231818,0.0033634759505745,0.00075119943358,-0.0003735617792699,-0.0007740994915366
1772808564285906200,0.73790625,0.072127078577876,-0.0008724811187479,-0.0024994064671453,0.0030848272144794,0.0016014293069019,-0.0022327895276248
1772808564305955000,0.757955078125,0.085596216481924,-0.0004663114706519,0.0001266585869714,0.0008189280051738,0.000886281079147,-2.25189141929e-05
1772808564326004000,0.77800390625,0.0863426509350538,0.0008457575086038,0.0055809099714504,-0.0015127940569072,-0.0018376783700659,0.0027344762347638
1772808564346054100,0.79805419921875,0.0776607473075389,0.0023918818389065,0.0022476784620899,-0.0005050762556493,0.0019681546837091,-0.0007789847441017
1772808564366103300,0.818103271484375,0.0836433288484811,0.0039657070268876,-7.18048608861e-05,-0.0031789308413863,-0.000113088695798,0.000156182795763
1772808564386152000,0.83815185546875,0.0942681832373142,-0.0011673815452493,0.0029009410393191,-0.0031763813458383,-0.0015741742681711,0.0015241459477692
1772808564406201000,0.858201171875,0.085586864131689,-0.0038626850438304,0.0035817400774452,-0.0030101505108177,0.0004982415121048,-0.0012419079430401
1772808564426250200,0.878250244140625,0.0740665222078561,-0.0017463504769839,0.000198244252149,0.003762983251363,-0.0005051371408626,0.0008186600171029
1772808564446299100,0.898299072265625,0.0754138451635837,0.0020464568015653,0.0012068276396486,-0.0004704615566879,-0.0004253534425515,0.0003816559910774
1772808564466348300,0.918348388671875,0.0802028330057859,0.0049738611561246,0.0039603412986034,-0.000554954400286,-0.0004673033545259,0.0018876616377383
1772808564486398200,0.938398193359375,0.0848433522880077,-0.0013797821869142,0.0042234309478895,0.0005654087290167,0.0015533856349065,-0.0013645463623106
1772808564506447000,0.958447021484375,0.0784083508044481,-0.0063372858632821,-0.0041972050946671,0.0007667741738259,-0.0012127476511523,0.0013678013347089
1772808564526496300,0.978496337890625,0.079452891421318,-0.0025913955995347,0.0042244401614647,-0.0003820334095507,-0.0003743923152796,-0.0001099766232073
1772808564546545200,0.998545166015625,0.080948682937026,0.0073614778118673,-0.0008930489827413,-0.0019280622946098,7.75548396632e-05,0.0014457441866397
1772808564566594000,1.018593994140625,0.08978139321208,0.0006179309689439,-0.0038360070994589,0.0033109129872173,-0.0006562599446624,-0.0004149838350713
1772808564586643200,1.038643310546875,0.084098671400547,0.0029379896806553,-0.0037904509246814,-0.0009148411918431,-0.0010982728563249,-0.001529595348984
1772808564606693000,1.058693115234375,0.0838011497586965,-0.0075996796150691,0.0068838731956435,-0.0015039860736578,0.003972852602601,-0.0015094140544533
1772808564626742000,1.078741943359375,0.0779652832120657,0.0008055807618424,-0.003189603521279,-0.0001422632485628,-0.0003542134072631,-0.001132009550929
1772808564646791200,1.098791259765625,0.0832025993436575,0.0038154392354656,0.0023522896140348,0.0008571671787649,0.0019206092692911,0.0014884986449033
1772808564666840000,1.118840087890625,0.0840992559224367,-0.0023566278624348,-0.0044536001416854,-0.0006782826967537,-0.0009038287680596,0.0011860111262649
1772808564686889200,1.13888916015625,0.0848474439412355,-0.003607988763554,0.0031602541292086,0.0001748465001583,-0.000660398567561,0.0002797348424792
1772808564706938000,1.158938232421875,0.088138302180171,-0.0050221298777963,0.0005624333554646,0.0011184019967913,-0.0005335783353075,0.0009158547036349
1772808564726987000,1.178987060546875,0.0833522369474172,0.0074414751123636,0.0071823035863693,0.0020055901259183,-0.0019047516398131,-5.42467460036e-05
1772808564747037200,1.199037109375,0.0797609344571828,-0.0020885697770863,0.0071031830687075,-0.0009739131201058,0.000292363227345,-0.0019976296462118
1772808564767086000,1.219086181640625,0.0814046100109815,0.0028132216566707,0.0050781846137018,0.0003656425978988,0.0007326615159399,-0.0008084429427981
1772808564787135200,1.23913525390625,0.0769166509419679,0.0022519893110264,0.0071683526928303,0.0018838860560208,0.0006729636806994,0.0013444416690617
1772808564807184400,1.259184326171875,0.0731727882385253,-0.0036000977180432,-0.0026095066449604,-0.0019878766033798,-0.0007355928537435,0.0031385736074298
1772808564827233300,1.2792333984375,0.0896300020426511,-1.9910276867e-06,-0.0003299534735735,0.0008642296306788,-0.0019608037546277,0.0001982334069907
1772808564847282400,1.299282470703125,0.0840904880940914,-0.0044985261288005,0.0020807609299663,-0.0025372677482664,0.0006619467167183,-0.0005017486400902
1772808564867332400,1.319332275390625,0.0766091924279928,-0.0023036099004093,-0.0017762889575213,-0.0001754395198076,0.0013021798804402,-0.0007137530483305
1772808564887381200,1.33938134765625,0.0799058958858251,-0.0079866239728871,-0.0035287495148833,0.0007136058993637,0.0010504145175218,0.0001797452569007
1772808564907430400,1.359430419921875,0.086191259765625,-0.0049470005486626,-0.0102242239989573,0.000126895494759,-0.0004401729966048,-0.0010621096007525
1772808564927479600,1.3794794921875,0.0739192226916551,-0.0023380966919008,-0.0021749831186374,0.0010230366606265,0.000486600853037,0.0024444949813187
1772808564947528400,1.399528564453125,0.0757166275024414,0.0008400858196429,-0.0054140563714085,-9.20391175895e-05,-0.0004305024049244,-1.84210948646e-05
1772808564967577300,1.419577392578125,0.0818523537784814,0.0011902144315652,-8.59977830201e-05,0.000579357612878,-0.0020846435800194,0.0012729843147099
1772808564987627300,1.439627197265625,0.0782604667663574,-0.0043126299015711,0.0009744162564165,-0.000525293406099,-0.0015237247571349,6.75376504659e-05
1772808565007676400,1.459676513671875,0.0825970346659421,0.0005546382080763,-0.0031556190532865,0.0006501087918877,-0.0007587388390675,0.0019121067598462
1772808565027725600,1.4797255859375,0.0863397283256053,0.0015314564841333,-0.0018064146677264,0.0015675106551498,0.0007725188042968,-0.0031015402637422
1772808565047774200,1.499774169921875,0.0773614721000194,0.0015406353044323,0.0051721145414281,0.0020645759068429,0.0015725332777947,-0.0008439300581812
1772808565067823400,1.5198232421875,0.0908311945259571,-0.0094054321290925,-0.0023903840015642,0.0006976583972573,0.0002909877803176,-0.0011082934215664
1772808565087872500,1.53987255859375,0.0894832870483398,-0.0086382380157243,0.0002126792028779,-0.0006862960290163,-0.0001082706148736,0.000735827255994
1772808565107921400,1.55992138671875,0.0815507404834032,-0.0048769127208273,0.0035922523383051,-0.0009190279524773,-0.00060819927603,-0.0006849290803074
1772808565127971300,1.579971435546875,0.0782610512882471,0.0019480744610074,0.0047693972257431,0.0009365912992507,0.0017584367888048,-0.0008429759182035
1772808565148020200,1.600020263671875,0.0827525174885988,0.0004393869311083,-6.60555401118e-05,0.0007048107217997,0.0017935190116986,-0.002504289150238
1772808565168069400,1.6200693359375,0.0763163469612598,0.0026001177621074,-0.0060448468219256,0.000111240427941,-0.0025179446674883,-0.0008218684233725
1772808565188118500,1.640118408203125,0.086193013331294,-0.0041869850947521,-0.0029720015481114,0.0016079845372587,-3.32519994117e-05,0.0004705267492681
1772808565208167400,1.66016748046875,0.0836526811987161,0.0036493345540948,-0.0002274840463651,0.000619649188593,-0.002090522320941,0.0013421298936009
1772808565228216300,1.68021630859375,0.0719827016711235,-0.0010819500178098,-0.0039945221294183,-0.0008203925099223,0.0007862417260184,0.0003983888309448
1772808565248266500,1.7002666015625,0.0766202983438968,0.0020295787320006,-0.0029714718251489,0.0007463737856596,-8.84437467902e-05,0.0003359848633408
1772808565268315400,1.7203154296875,0.0806575910359621,-0.0040799719231668,0.0071562284301966,0.0006145408842712,-0.0012658014893531,0.0004452907014638
1772808565288364300,1.7403642578125,0.084697221815586,0.0007535400473512,0.0027227166618919,-0.0007703413721174,-0.0014340924099087,0.0016194977797567
1772808565308413400,1.760413330078125,0.0843973620861768,-0.000635959815979,-5.45751648722e-05,0.0014201621524989,0.0001743827015161,-0.0015514427796006
1772808565328462300,1.78046240234375,0.0845440770804882,0.0080139138386119,-0.0030119864986278,-0.000686228275299,-0.0049976631999015,0.0003238655626773
1772808565348511500,1.800511474609375,0.0890308671057224,0.0025807098087389,-0.0037682482260279,0.001583766657859,-0.0010304410243406,-0.0024616406299173
1772808565368561200,1.82056103515625,0.0739209762573242,-0.0005563917737454,0.0064126298215473,0.0027878894470632,9.83224599622e-05,0.0021164487116038
1772808565388610300,1.8406103515625,0.0834989519417285,-0.0025852307202294,0.0030084748007124,0.0019935097079724,-0.0003849688800983,0.0003473027609288
1772808565408659500,1.860659423828125,0.0793102680802345,0.0016738240968901,0.0032027050314471,-0.0012229741550981,0.00035307824146,-0.002126800827682
1772808565428708400,1.880708251953125,0.0796072052001953,0.0069413435705006,0.0028882048553321,-0.0008447172585874,-0.0010776178678497,-0.0009708907455205
1772808565448757500,1.900757568359375,0.0758650960624218,-0.0031275574360042,0.0024171943766763,-0.0014518909156322,0.0002658311277627,-0.0005959938280284
1772808565468807400,1.920807373046875,0.0814005183577537,-0.0017198369293939,0.0006224655801663,0.000531512312591,-0.0004359497979748,-0.0004354827105998
1772808565488856300,1.940856201171875,0.0912795228153467,-0.0016910674926359,0.0116234278389718,0.0014041634276509,0.0003433090751059,-0.0016114064492285
1772808565508905500,1.960905517578125,0.0872363849043846,-0.0041289438977371,-0.0029634483488975,-0.0002494484651833,-0.0023566321469843,0.0008035919163376
1772808565528954400,1.980954345703125,0.0902297215014696,0.001977373620728,0.0063810930389678,0.0004975842311978,0.0011251030955463,0.0006034397520124
1772808565549003300,2.001003173828125,0.0824444744527339,0.0002047470581717,0.0024668650375679,-0.0006500359158962,-0.0003688012948259,-0.0001391801051795
1772808565569052400,2.021052490234375,0.0861830764591693,0.0020061339243315,-0.0004723302194848,-0.0012939567677676,-0.0004904023371636,0.0012893776874989
1772808565589101300,2.041101318359375,0.0784042591512203,0.0024916067531798,0.0017657812632387,9.59786120802e-05,-0.0025572162121534,6.02742657065e-05
1772808565609151500,2.0611513671875,0.0882756648242473,-0.0051445963468402,0.012526071200543,-0.0009349957108497,0.0011752602877095,-0.0009566498920321
1772808565629200400,2.081200439453125,0.088873046195507,-0.005008329681307,-0.0023251367456279,-0.000391507288441,-0.0016819980228319,0.0026711416430771
1772808565649249300,2.101249267578125,0.0824403827995061,0.0009910751302726,0.0124515263932989,-0.0023848891723901,0.0002030920586548,-1.44653022289e-05
1772808565669298400,2.12129833984375,0.0752612849503755,0.0009064929862041,0.0005384862242965,0.0018565282225608,0.000886985217221,-0.0012443689629435
1772808565689347600,2.14134765625,0.0785550657987594,0.0054789702672045,0.0096790386058157,-0.0027701617218554,0.001036058878526,-0.0031186221167445
1772808565709396500,2.161396484375,0.0840916571378707,-0.0017189966791775,0.0057663130083354,0.001413688994944,0.0030341688543558,0.0004133516922593
1772808565729446400,2.1814462890625,0.0903764364957809,-0.0068571541520766,0.0012148465493228,0.0011625052429735,3.1043891794e-06,0.0022904758807271
1772808565749495300,2.201495361328125,0.0837912128865718,0.0008106131299864,-0.0021498212779173,0.0002407282590866,-0.0025473842397332,0.0007168292067945
1772808565769544400,2.22154443359375,0.085439564615488,-0.0005715619434136,0.0004504654475487,-0.0018088715150952,0.0014571013161912,0.0014444307889789
1772808565789593300,2.24159326171875,0.0810983205407857,-0.0006118848206475,0.0029474059629719,-0.000240662600845,-0.0011103209108114,0.0023043286055326
1772808565809642000,2.26164208984375,0.0755611446797847,-0.0006254018893465,0.0052174423873424,-0.0022900900803506,0.0006664561806246,0.0007207936141639
1772808565829692200,2.281692138671875,0.0760088884472846,-0.0030694888395257,-5.16708217328e-05,0.0029145004227757,-0.0002926999586634,-0.0009589265100657
1772808565849741300,2.3017412109375,0.08454056994915,0.0015187979319598,0.0028581248108996,0.0005584578029811,-0.0024871970526874,0.0008810872677713
1772808565869790000,2.3217900390625,0.0804968475162982,-0.0061982883845455,0.0029338158290367,-0.0017786654643714,-0.0039605372585356,-0.0012659011408686
1772808565889839000,2.341839111328125,0.0836444978922605,0.0006031352586112,0.0053000517700333,0.0013544308021664,0.0020516051445156,0.0004111344460397
1772808565909888300,2.36188818359375,0.0932201354891061,0.0005003964033443,-0.0001436188549268,0.0008652815595269,0.0007571963360533,-0.0022366032935678
1772808565929937200,2.381937255859375,0.0802034175276756,-0.0105598354617599,0.0057177885583369,0.0003412803635001,0.000859014224261,0.0015031227376312
1772808565949987000,2.401987060546875,0.076314008873701,0.0036066279235295,-0.0065877808924764,0.0012385095469653,-0.0029614525847136,-0.0013687149621546
1772808565970036200,2.4220361328125,0.0815524940490722,0.0039345447036437,0.0126232525312807,-0.0018458724953234,-0.0022345355246216,-3.2118987292e-05
1772808565990085000,2.442085205078125,0.089029698061943,0.0028407398512586,0.0030432310202624,-0.0017912394832819,-0.0003355773515067,0.0005322501529008
1772808566010134300,2.46213427734375,0.0903770210176706,0.0042138913679867,0.0078820128209423,0.0019642673432826,-5.64925139769e-05,0.0008295376319438
1772808566030183200,2.48218310546875,0.0790069012194871,0.0019655279193073,-0.0006546736496035,0.0029751313850283,-0.0006904432084411,-0.0001135757192969
1772808566050232000,2.502232177734375,0.0815513250052928,-0.0102906357320956,0.0084774442637106,0.000864659436047,-0.0012933051912114,-0.0008829133585095
1772808566070282200,2.5222822265625,0.08993044629395,0.0008926471239421,0.0040053175180684,0.0002231537364423,0.0007638746174052,-0.0008377437479794
1772808566090331100,2.5423310546875,0.0788566790938377,0.0024683628749102,8.49292039405e-05,0.0001698075793683,0.0023880675435066,-0.000552908051759
1772808566110380300,2.56238037109375,0.077809800389409,0.0019447317264508,0.0068215394160011,-0.001754586584866,-0.0007810348761267,0.0014109241310507
1772808566130429200,2.58242919921875,0.0785556503206491,-0.0065832508478313,0.0034522593457251,-0.0017633778043091,0.0008406754350289,0.000850215787068
1772808566150478000,2.60247802734375,0.0817003780871629,-0.0028398448021151,0.0025774447059957,0.0011397534981369,0.0007323254249058,0.000133431982249
1772808566170527200,2.62252734375,0.0800531954020261,0.000598203355167,0.0014913710689172,-0.0017593435477465,0.002929467940703,-0.0005459217354655
1772808566190577200,2.6425771484375,0.0824444744527339,-0.0054270756831858,0.0085689539054874,0.0002810838632285,-0.0005138762062415,-0.0002628350630402
1772808566210626000,2.6626259765625,0.0875356601119041,0.003695685313316,0.0104158467140747,0.0012228121049702,0.0010025284718722,0.0009696211200207
1772808566230675200,2.68267529296875,0.0793067609488964,0.0043590171934105,0.002942391861137,-0.0018080386798828,-0.0002735877351369,0.000354322604835
1772808566250724000,2.70272412109375,0.0891851808845996,0.0030183979731053,0.0028261496369028,0.001505174441263,-0.0002598558785393,0.0003839833661913
1772808566270773200,2.722773193359375,0.0814022719234228,0.005071037920285,0.006173067178321,-0.0009509152732789,0.0004390332032926,-0.000120410695672
1772808566290822100,2.742822265625,0.0939735842049121,-0.000749302263651,0.0078568509802222,0.0006060535088181,0.0007508846465498,-0.0008449973538517
1772808566310872000,2.7628720703125,0.0864881968855857,-0.0071654163836501,0.0009061778923729,-0.0015146443620324,0.001272639259696,-0.0012492276728153
1772808566330921200,2.782921142578125,0.0788584326595067,-0.0002553173347841,0.0112214137761853,-0.0004495587199926,0.0027527874335646,-0.0024811760522425
1772808566350970400,2.802970458984375,0.0799070649296045,-0.0021235771583858,0.0085904853172833,0.000421748496592,0.0007298220880329,0.0009345202706754
1772808566371019000,2.82301904296875,0.0706289489746093,0.0003800031603779,0.0039193882337072,0.0018978796433657,-0.0021505749318748,-0.0012473813258111
1772808566391068200,2.843068115234375,0.076614453125,0.0001735390691552,-0.0004422136424342,0.0014691958203911,-0.0008817769121378,-0.0006492654792964
1772808566411117000,2.863116943359375,0.0766126995593309,-0.0058799157509114,-0.0005389931143727,-0.0009401941206306,3.63698636647e-05,0.0001031979918479
1772808566431167200,2.883167236328125,0.0791553697794675,-0.0073902472486253,0.0006891239084769,0.0004555052146315,-0.0014181606238707,0.0009182044304907
1772808566451216100,2.903216064453125,0.0884311476469039,-0.0037518633468076,-0.0027236299773445,-0.0005251301918178,-0.0006995484000071,0.0013519190251827
1772808566471265000,2.92326513671875,0.079902388754487,-0.0012534706598147,0.0014007153770886,-0.0008406911510974,0.0010643099667504,0.0027606221847236
1772808566491314200,2.943314208984375,0.0842377876102924,0.0071277877870015,0.0033060786409536,-0.0033285196404904,0.0032804105430841,0.0002090977504849
1772808566511363300,2.96336328125,0.0807949536800384,-0.0071278425859287,0.0058468400317942,-0.0002685857471078,0.0018500215373933,-0.0010943096131086
1772808566531412200,2.983412109375,0.0769037914603948,-0.0015004220250528,-0.0094412980269175,-0.0001177110243588,-0.0015708995051681,-0.0020928210578858
1772808566551462100,3.003462158203125,0.0866302357047796,0.0045851906321011,0.0149386807336471,0.0012828106991946,-0.0008861475507728,0.0002970332279801
1772808566571511300,3.02351123046875,0.0861778157621622,-0.0011882599364966,0.0047853254472371,-0.0030217168387025,0.0034856898710131,-0.0014799684286117
1772808566591560200,3.043560302734375,0.075254855209589,-0.0006494677515234,0.0001079036541515,0.0019709412008523,-0.000383484759368,-0.0012470777146518
1772808566611609300,3.063609375,0.0828875420451164,-0.0130894635372329,-0.0048463714520912,0.0012636315077543,0.0015178380999714,0.0013175285421311
1772808566631658000,3.083657958984375,0.0845353092521429,0.0020136779099702,0.0015911005497677,-5.33815473318e-05,-0.0005613875109702,0.00078806723468
1772808566651707100,3.10370703125,0.074512512409687,0.0011715645300224,0.0005596340436022,3.21748666465e-05,0.0006037823040969,0.0009903584141284
1772808566671757300,3.12375732421875,0.0816916102588176,-0.0032462884448468,0.004330759213306,-0.0024629053659737,-0.0001712253142613,0.0020920895040035
1772808566691806000,3.143805908203125,0.0879793122261762,-0.0016455935162492,0.005489893520018,0.000368506880477,-0.0003975225263275,6.14649616181e-05
1772808566711855000,3.163855224609375,0.0792974085986614,-0.0031791688922327,-0.0007751490909606,-0.0003668542485684,-0.0003353611100465,-0.0021179700270295
1772808566731904300,3.183904296875,0.0821387695044279,-0.0025135445903521,0.0028247659639921,0.001676115207374,-0.0019055646844208,0.0003930041566491
1772808566751953200,3.203953125,0.0837801069706678,0.0004886329003144,0.0063813259344082,-0.0005396015476435,0.0020199031569063,0.0007684994488954
1772808566772002300,3.224002197265625,0.0821352623730897,0.0019979506178759,-0.0020206328071421,0.0015287771821022,-0.0006362905260175,0.0003212424926459
1772808566792052200,3.24405224609375,0.076448448908329,-0.0006558061607647,-0.0037524889678927,-0.0023989048786461,-0.0018513260874897,-0.0002087843604385
1772808566812101600,3.2641015625,0.0791372496008872,-0.0041779798043891,0.0018154701904393,0.0003490091767162,0.0006513749249279,0.0007646703161299
1772808566832150500,3.284150634765625,0.0834790781974792,-0.0097451306785456,0.0062171940144151,-0.0013716260436922,-0.0003225031250622,0.0011277121957391
1772808566852199700,3.30419970703125,0.0810819539278745,-0.005764381346153,0.0043423811524407,-0.0014329254627227,-0.0018134480342268,0.0010043722577393
1772808566872248600,3.32424853515625,0.0813835672229528,0.000419549719477,0.0092897013615118,0.0017745699733495,-0.0011474799830466,0.0004663770087063
1772808566892297500,3.34429736328125,0.0816787507772445,0.0032365981678944,-0.0009885406798915,-0.0003816415555775,0.0003796946839429,-0.0014583910815417
1772808566912347600,3.36434765625,0.0780909554183483,-0.0080376235077623,0.0019803007967537,0.0013222321867942,-0.0005976682878099,0.0025831498205661
1772808566932396500,3.384396484375,0.0911100114673376,-0.0040336759628728,0.0027731636409182,0.0029062994290143,-0.0006765901343896,0.0013350802473723
1772808566952445400,3.404445556640625,0.0857265648633241,0.0039602910662535,-0.001758429073845,-0.0021294262260198,0.0010993951000273,9.99770127236e-05
1772808566972494600,3.42449462890625,0.0719587362736463,-0.0091161759920883,0.0101346779854036,0.0040690852329134,0.0017868056893348,0.0025253063067793
1772808566992543500,3.44454345703125,0.0840863964408636,-0.0021771979086101,0.0058653940352145,0.0014503928832709,0.0009171154815703,-0.0004014121368527
1772808567012592600,3.464592529296875,0.082740827050805,-0.0027154695037752,-0.0031958460323978,-0.0017982407007366,-0.0003635564353317,0.001582546159625
1772808567032642600,3.484642578125,0.0854360574841499,-0.0020325652735307,0.0003464570838026,0.0029002299997955,0.0001894594752229,0.002427258528769
1772808567052691500,3.50469140625,0.0788566790938377,-0.0068077711855527,-0.0022304944318486,0.0019635516218841,-0.0011601087171584,-0.00010328553617
1772808567072740600,3.52474072265625,0.0845429080367088,0.0005704385654069,0.0038614064021967,-0.0007695455569773,-0.003802431281656,-0.0028540324419736
1772808567092789800,3.544789794921875,0.0887345145076513,-0.0017807824695482,0.0058249615601263,0.0029154999647289,0.0021766098216176,0.0010788354557007
1772808567112838400,3.56483837890625,0.0899345379471778,-0.008033212194126,0.0026214756439672,0.0003246639389544,0.0017014280892908,-0.0021750223822891
1772808567132887600,3.584887451171875,0.0784165341109037,0.0032112353977747,-0.0050096037563635,0.0027526719495654,0.0027372790500521,-0.0006764861755073
1772808567152937700,3.604937744140625,0.0839560480594635,-0.007069372130651,0.0088386650918051,2.81510874629e-05,0.0002806053962558,-0.0012796656228601
1772808567172986600,3.624986572265625,0.0857546219140291,-0.0024380042692646,-0.0044619661112315,0.0007439914625138,0.0007350081577897,0.0011017234064638
1772808567193035500,3.645035400390625,0.0871007758259773,-0.00583713605511,-0.0012836055031744,-0.0010321817826479,-0.0030762343667447,-0.0011192569509148
1772808567213084400,3.66508447265625,0.0857522838264703,0.0045430867897346,0.0008818426021374,0.0007431874983012,0.0022901732008904,0.0004512188024818
1772808567233133600,3.685133544921875,0.0830552998274564,-0.0023740265218075,-6.58454775577e-05,-0.0020778777543455,0.0023512919433414,0.0001854165457189
1772808567253182700,3.7051826171875,0.0788619397908449,-0.0072815718429163,0.0035026560924015,-0.0010474035516381,-0.0015267340932041,-0.0011760671623051
1772808567273232400,3.725232421875,0.0799088184952735,-0.0042043837541248,0.0039588160617975,-0.0031758560799062,0.0005951311904937,-0.0008000889793038
1772808567293281500,3.745281494140625,0.091133392342925,0.0039873434699606,-0.0017978112361626,0.0028765737079083,0.001889327308163,0.0003027445636689
1772808567313330700,3.76533056640625,0.0815595083117485,0.0004289568686392,0.0007953333624638,0.0013843853957951,0.0010438403114676,0.0010349701624363
1772808567333379600,3.785379638671875,0.0728781892061233,-0.0001163198560476,0.0043567065053153,-0.0005777252372354,-0.0027217718306928,-0.0004247217439115
1772808567353428500,3.805428466796875,0.0733265174955129,-0.0048910599771887,0.0006169171887915,0.0032111052423715,-4.19214193243e-05,-7.04242847859e-05
1772808567373477400,3.825477294921875,0.0730313339412212,-0.0016415201293304,0.0011543759332038,0.0006699967198073,0.0019214720232412,0.0021605694200843
1772808567393527600,3.845527587890625,0.0779705439090728,-0.0061466769283171,0.0078574263689573,0.0002099308185279,0.0016180961392819,0.0023664936888962
1772808567413576700,3.86557666015625,0.0809638805061578,0.00362725058645,0.0024527862798655,0.000194008462131,-0.0003745660069398,-0.0008171750232577
1772808567433625300,3.885625244140625,0.0875491041153669,-0.0006139123809523,0.008868594439188,-0.0020947197917848,-0.0014503467828035,0.0023693882394582
1772808567453674500,3.905674560546875,0.0790156690478324,0.0030809509484563,0.0022773749140324,-0.0009775825310498,-0.0005830959416925,0.0004524150863289
1772808567473723600,3.9257236328125,0.0797638570666313,0.0016709014874417,-0.00125703259008,0.0017101280391216,0.0006832277867943,-0.0006393729709088
1772808567493772500,3.9457724609375,0.0698883597403764,-0.0005269099509343,0.0036342922485899,-0.0009911234956234,-0.0008557359687983,0.0011704303324222
1772808567513822500,3.965822509765625,0.0887426978141069,-0.0080375504425261,0.0021317102324916,0.0014297384768724,0.0006992178969085,0.0014504755381494
1772808567533871600,3.98587158203125,0.0890402194559574,-0.0027128026226535,0.0035013409181497,-0.0025966030079871,-0.0004901345819234,-0.0001797550357878
1772808567553920500,4.00592041015625,0.0848486129850149,-0.0031980105900205,0.006551335039339,0.0015077628195285,-0.0009360771509818,0.0030647688545286
1772808567573969700,4.0259697265625,0.0782651429414749,-0.0037636907819192,0.0005997377251274,0.0015282034873962,0.0005519047845155,-0.0007655238732695
1772808567594018600,4.0460185546875,0.0809592043310403,0.0028681575811468,0.0065932516520377,-0.0005462695844471,0.0006750270840711,-0.0001385328359901
1772808567614067500,4.0660673828125,0.0770692111551761,0.0024744912215974,-0.0026709088428411,0.0015027211047708,0.0007030998822301,-0.0003353636711835
1772808567634117600,4.08611767578125,0.0769178199857473,-0.0077078435641247,4.10078638233e-05,-0.002052579075098,-0.0007409931859001,0.0030919341370463
1772808567654166500,4.10616650390625,0.078710548621416,-0.003490499863727,0.0008704489918658,-0.001607448561117,-0.0002392167516518,0.0002041743136942
1772808567674215700,4.126215576171875,0.0840951642692089,-0.002797366500413,0.0007601707175374,0.0014439402148127,-0.0010353671386837,-0.0003140745684504
1772808567694264600,4.1462646484375,0.0839478647530078,0.0006951791899278,0.0035581856719218,0.0007224483415484,-0.0008219691226258,-0.0001875814050436
1772808567714313500,4.1663134765625,0.0848439368098974,0.0040544630225747,0.0009158133703982,0.0005986504256725,-0.0001980475208256,-0.0005697505548596
1772808567734363600,4.18636376953125,0.077213003540039,-0.0046143162618856,0.0042430078646168,0.001813652459532,0.002867515431717,-0.0006115608848631
1772808567754412500,4.20641259765625,0.0881377176582813,-0.0057345341971609,-0.0006342199500417,-0.0007885450031608,0.0007099265349097,0.0014896562788635
1772808567774461400,4.22646142578125,0.0829021550923585,-0.0047063053942751,0.0092694988236995,0.0024412455968558,0.0008892255136743,0.0030398666858673
1772808567794510600,4.246510498046875,0.0797603499352932,0.0058733216133434,0.00097926596147,0.0011821645312011,0.0029736564029008,-0.0012576100416481
1772808567814559200,4.266559326171875,0.0734761550992727,0.0035302838848438,0.006626971258549,-0.000980548094958,0.0009651788859628,-0.0035317577421665
1772808567834608400,4.2866083984375,0.0870902544319629,-0.0048908955804072,-0.0009080319227417,-0.0019132404122501,0.0010392037220299,-0.0007857750169932
1772808567854658300,4.306658203125,0.0827507639229297,-0.004047110833181,0.0064658715458586,0.000356366392225,0.0009720975067466,-0.0024399436078965
1772808567874707200,4.326707275390625,0.0769189890295267,0.0001142009641975,0.0009549535041209,-0.000452363397926,0.0014533875510096,0.0001032389700412
1772808567894756400,4.34675634765625,0.0891851808845996,-0.0045003618928603,0.0108945747083052,-0.0010833400301635,-8.4261293523e-05,-0.0021514911204576
1772808567914805500,4.366805419921875,0.0837988116711378,-0.001479881560523,-0.0077188901145244,-1.26068480312e-05,0.0001469913986511,2.30181030929e-05
1772808567934854100,4.386854248046875,0.0716781657665967,0.0028932828892488,0.0033139833861961,-0.0025387867353856,2.2419262677e-06,-0.0004143142141401
1772808567954903300,4.4069033203125,0.0814011028796434,-0.004924103730265,0.0060368827111786,-0.0012530607637017,-0.0028402039315551,-0.0001011863350868
1772808567974953500,4.426953369140625,0.0834960293322801,-0.0007678882331121,0.0023429692298406,-0.0004342554602771,-0.0008203777833841,-0.0004282207228243
1772808567995002400,4.44700244140625,0.0722697019189596,0.0022822748514357,0.0031606103222351,-0.0022821188904345,0.0007859967299737,-2.81427055597e-05
1772808568015051300,4.46705126953125,0.0751110628247261,-0.0036594814887735,0.0115804472137708,-0.0046956702135503,3.00219398923e-05,-0.0005330182611942
1772808568035100200,4.48710009765625,0.0848339999377727,0.0020769341382198,-0.0043936364156426,-0.0005554805975407,-0.0010422790655866,0.0006795804947614
1772808568055149300,4.5071494140625,0.0827396580070257,-0.0018698033267166,0.000194358094898,0.0047983266413211,-0.0012361113913357,-0.0002466333098709
1772808568075198500,4.527198486328125,0.0854331348747015,-0.0054998395252972,-0.0041205824947683,-0.0003914590924978,-0.0037936787120997,-0.0012192772701382
1772808568095248100,4.547248046875,0.0751098937809467,-0.0035236806141212,-0.0068807450902182,0.0006058365106582,-0.0013795075938105,0.0003547053784132
1772808568115297300,4.56729736328125,0.0834895995914936,-0.0066222494176588,0.0034844674151623,0.0006814515218138,-0.0007924230303615,0.0017121452838182
1772808568135346400,4.587346435546875,0.0797445678442716,-0.0017366145342588,0.0046770519003272,-0.0009061240125447,0.0002281092456541,-0.0003582336939871
1772808568155395300,4.607395263671875,0.0842342804789543,3.25779621955e-05,0.0098963117854204,-0.0002123785670846,-0.0009328450541943,0.0003670535515993
1772808568175444500,4.627444580078125,0.070316229763627,-0.0020520006263628,0.0033822308833943,0.0003647226840257,0.0007203465793281,-0.0011456590145826
1772808568195493000,4.6474931640625,0.0789911191284656,-0.0045759844123385,0.0055294309459626,-0.0009865176398307,-0.0016025664517655,0.0003183707594871
1772808568215543300,4.667543212890625,0.0747983436137437,-0.0007874149174895,0.002228211143217,-0.0020545730367302,0.0002094679512083,-0.0016697938553988
1772808568235592400,4.687592529296875,0.075245502859354,-0.0080625570196192,-0.0059579905223799,0.0009559975005686,0.0004605910507962,-0.00235824752599
1772808568255641300,4.707641357421875,0.0818301419466733,-0.004328695120383,0.0066591062627499,0.0004367069341242,-0.0031101242639124,-0.0022981883957982
1772808568275690200,4.727690185546875,0.0741997931987047,-0.0033114443692378,0.0021104756482178,0.0011053523048758,-2.6672380045e-05,-0.0011857384815812
1772808568295739400,4.747739501953125,0.0755488697201013,0.0005741922919172,0.0014716662880266,-0.0021849265322089,0.0004990071756765,0.0003843063022941
1772808568315788300,4.767788330078125,0.0839268219649791,-0.0029903135229367,0.0030053649615962,0.0017994767986238,0.0002877515507861,-0.0010367380455136
1772808568335838200,4.787838134765625,0.0773433519214391,-0.0008247695195022,-0.0002843972987961,-0.0020516524091362,-0.0005862858379259,-0.0006763688288629
1772808568355887400,4.807887451171875,0.0797381381034851,-0.0047834622837137,0.0070117099595488,0.0014398056082427,-0.0019390804227441,-0.0013406318612396
1772808568375936300,4.827936279296875,0.0822831464111805,-0.0016742624883074,-0.0016493152767186,0.0002926085144281,-0.002204842865467,0.0023577669635415
1772808568395985400,4.8479853515625,0.0833294405937194,-0.0036251773603726,0.003322691849037,7.90092162787e-05,-0.0009659126517362,-0.0011237910948693
1772808568416034300,4.868034423828125,0.0712105482548475,0.0015990692270919,0.010839460687316,0.0013902923092246,0.0008112310315482,0.0010253407526761
1772808568436083200,4.888083251953125,0.0801852973490953,-0.0047756899692118,0.0009301113238092,-0.0013827646616846,-0.0013373766560107,0.0011925250291824
1772808568456133400,4.90813330078125,0.0836269622355699,0.0032485443340148,0.0016239662063308,0.0021268734708428,0.0017814956372603,0.0017161429859697
1772808568476182300,4.928182373046875,0.0845242033362388,0.0007384612092282,-0.0063336645675124,0.0005469159223139,0.0028156114276498,0.0012353144120424
1772808568496231400,4.9482314453125,0.0798877757072448,-0.0029329938451293,-0.0025242075482616,0.0017054518684744,-0.0007423963979817,0.0001511266455054
1772808568516280300,4.9682802734375,0.0848269856750965,-0.0056211917494889,0.0048146428732667,0.0009352578781545,0.0011795642785727,0.0014817391056567
1772808568536329200,4.9883291015625,0.0825830061405897,-0.0023227895249146,-0.0022425867284415,-0.0019175317138433,-0.0022111637517809,-0.0010414910502731
1772808568556378400,5.00837841796875,0.0733054747074842,-0.0014074921777471,0.0031955218054121,-0.0005062397103756,0.0021624029614031,-0.0010893293656408
1772808568576428300,5.02842822265625,0.0725590402543544,-0.0022606475415173,-0.0007805148192448,0.0006303787231445,-0.0016187931178137,-0.0004637306556105
1772808568596477200,5.048477294921875,0.0800374133110046,0.0064798818049021,-0.0011644635023782,-0.0008668811060488,-0.0007768291980028,0.0006530887912958
1772808568616526300,5.0685263671875,0.0791390031665563,-0.0008746182769071,0.0003800990585004,0.0012354236096143,-0.0011814880417659,-0.0020972066558897
1772808568636575200,5.0885751953125,0.0791390031665563,-0.0002699760477989,-0.0007918947297846,0.000616910867393,-0.0015578856691718,-0.0013033575378358
1772808568656624400,5.108624267578125,0.0839279910087585,0.0046841757608577,0.0054709650572622,0.000331213697791,-0.0007697856053709,0.0001704324968159
1772808568676673500,5.128673583984375,0.083326517984271,-0.0079523289776407,0.0023071307314792,-0.0013043272774666,0.0004875912563875,-0.0004104692488908
1772808568696723200,5.14872314453125,0.0834773246318101,-0.0004110376194585,0.004928094918793,-0.0022999939974397,0.0035554855130612,-0.0021301330998539
1772808568716772400,5.1687724609375,0.0828764361292123,-0.0028248207629192,0.0117143483922816,0.0011253426782786,-0.0008765581878833,0.0004449670668691
1772808568736821500,5.188821533203125,0.0768868403255939,0.0075628638691734,5.11273990385e-05,-0.0028532070573419,0.0026387074030935,0.0013823295012116
1772808568756870100,5.2088701171875,0.0800280609607696,0.0014655973068438,0.0047562637495342,-0.0023042266257107,0.0040862960740923,0.0004244614392518
1772808568776919300,5.228919189453125,0.0824251852303743,-0.0006263882700353,0.0088333495958708,0.0040823882445693,-0.0012195192975923,-0.0001755952835083
1772808568796968200,5.24896826171875,0.0765969174683093,-0.0011956669248174,-0.0013755763692548,-0.0010399147868156,-0.0004225982411298,-0.0015854863449931
1772808568817017900,5.269017822265625,0.0788391434371471,-0.0007533482511062,-0.0058391727485693,-8.7049556896e-05,0.0011303990613669,0.0009487653151154
1772808568837066800,5.289066650390625,0.0843763192981481,-0.0053152310728561,-0.0010542400269769,0.0007869801484048,-0.0017205795738846,0.0011610228102654
1772808568857115600,5.30911572265625,0.0780892018526792,-0.0034756219550035,0.0065521752895554,-0.0010217046365141,-0.000859799736645,-0.0012463647872209
1772808568877164800,5.329164794921875,0.0777875885576009,-0.0045320996048394,-0.0045197470133425,0.0012849834747612,-9.73439018707e-05,-5.40036708116e-05
1772808568897213700,5.349213623046875,0.0846726718962192,-0.0078617098184302,0.0056707756454125,0.0021978081203997,0.0024962285533547,-0.0006172046996653
1772808568917262800,5.369262939453125,0.0803320123434066,-0.0043807815006468,-0.0004597081999294,-0.0022073762957006,-0.002338959602639,-0.0007431656122207
1772808568937312800,5.389312744140625,0.084070614349842,0.0005160962959751,0.010035432561743,-0.0031959409825503,0.0012368243187665,0.0006240929942578
1772808568957361700,5.409361572265625,0.0821247409790754,-0.0080683109069708,0.0039902204136364,-0.0014291999395936,-0.0002763970696832,-0.0014604614116251
1772808568977410800,5.429410888671875,0.0824251852303743,-0.0045088100607972,0.0014500800773035,-0.0029678512364625,0.0021288539282977,-0.0001079747453331
1772808568997459700,5.449459716796875,0.0809235484957694,-0.0049425435692537,0.0069256162784062,-0.0031979726627469,0.0008243516786023,0.0003456817939877
1772808569017508900,5.4695087890625,0.0839151315271854,0.001103330732556,0.0026995321491267,0.0012969328090548,-0.0002873772755265,0.0032903645187616
1772808569037557800,5.489557861328125,0.0893015007406473,-0.0056172005609609,0.0022416962458752,-0.0002885339781641,-0.0004896181635558,-0.0014020954258739
1772808569057607700,5.509607666015625,0.0812169784843921,0.0005998747224453,-0.0014598434194922,-4.49025537818e-05,-0.0011395904002711,1.94571912288e-05
1772808569077656800,5.52965673828125,0.0698415979892015,-0.0048964942041318,0.0042664435391314,0.0024045896716415,0.0015673816669732,0.0001303851604461
1772808569097705700,5.549705810546875,0.0764250680327415,-0.0104544388585258,0.0037983602365013,-0.0030377109069377,-0.0007468441617675,-0.0024154894053936
1772808569117754600,5.569754638671875,0.0846545517176389,-0.004637505341228,0.0036934476904571,-0.0031007358338683,0.001799535471946,-0.0003952281549572
1772808569137803800,5.5898037109375,0.0774701931715011,-0.0078257982548326,-0.0025915234636981,0.0011498420499265,-0.0011484045535326,-0.0002688351087272
1772808569157852700,5.609852783203125,0.0767231741964817,0.0033436844047158,0.0036350366006838,0.0002071671187877,-0.0010385201312601,0.0007449409458786
1772808569177902600,5.629902587890625,0.0729769734054803,-0.011146275313897,0.0026527155990246,-0.0032990463078022,-0.0032087936997413,0.0001925397664308
1772808569197951700,5.64995166015625,0.0737286685556173,-0.0095864969175774,0.0024131712221074,-0.0009835695382207,0.0003017042472492,0.0017629191279411
1772808569218000600,5.670000732421875,0.0860007056295871,-0.0025112521685659,0.0012115631802706,-6.5111555159e-05,-0.0028910422697663,-0.0006217039190232
1772808569238049800,5.6900498046875,0.0828553933411836,0.0051485510027501,-0.0027275618003681,-0.0007779062725603,-0.001867881277576,0.0009752516634762
1772808569258099000,5.710098876953125,0.0921323402523994,-0.0027882972779683,0.0061880272854352,-0.0019118781201541,-0.0014845766127109,0.0005686844233423
1772808569278147600,5.730147705078125,0.0861474206238985,-0.0115863289652857,0.0058520048306789,-0.001519770361483,0.0007706123869866,0.0002186987549066
1772808569298197800,5.75019775390625,0.0792658444166183,-0.0069719213718548,-0.0017065847221761,-0.001104983035475,-0.0019988145213574,-0.001061875373125
1772808569318247000,5.770246826171875,0.0723836836874484,-0.0058214270293246,0.0001917003469308,0.0013135392218828,-6.92783214617e-05,0.0001394255086779
1772808569338295800,5.7902958984375,0.0821112969756126,0.0020694814841262,0.004359460151405,-0.0012785431463271,-0.0023402450606226,-0.0003578313626348
1772808569358344700,5.8103447265625,0.0910883841574192,-0.0014854801842477,0.0077987001853529,0.0027676911558955,0.000201731279958,0.0011225843336433
1772808569378393600,5.8303935546875,0.0824123257488012,0.0017419574296567,0.0050975560344522,0.0013162835966795,0.0008142035803757,0.0019024389330297
1772808569398443800,5.85044384765625,0.0806172590255737,-0.0049367166166659,-0.0005510260454611,0.0001947227865457,-0.0004959622165188,-0.0005007442086935
1772808569418492700,5.87049267578125,0.0756792181015014,-0.0024487448589876,-0.009190469637583,0.0017647542990744,0.0007072603912092,-0.0003483039326965
1772808569438541600,5.89054150390625,0.0737391899496316,-0.0064638348523993,0.0026839327211957,0.0019645758438855,0.001754228840582,0.0009158584289252
1772808569458590700,5.9105908203125,0.0791290662944316,-0.0027007925244513,0.002429560667905,0.0007631252519786,0.0007719937711954,0.0020218095742166
1772808569478639900,5.930639892578125,0.0934954452991485,-0.0045066181037109,0.0048325392895611,-0.0001506728585809,0.0007652218919247,-0.000185424927622
1772808569498688800,5.950688720703125,0.0792804574638605,-0.0001160823940299,0.0034944362533278,-0.0010528138373047,0.0006004405440762,0.0014307550154626
1772808569518738700,5.97073876953125,0.0840694453060627,0.0035230960922315,0.0016831627473933,-0.000594412209466,-0.0013790004886686,-0.0023113368079066
1772808569538787800,5.990787841796875,0.0728472095459699,-0.0062596814492717,0.0071847238723188,0.0002305612433701,-0.0011335239978507,-0.0025468147359788
1772808569558836700,6.010836669921875,0.0806336256384849,0.0065680350123904,0.0039959195020608,-0.0007448045071214,0.0006501181633211,-0.0014713555574417
1772808569578886000,6.030885986328125,0.0888642783671617,0.0036035957162268,0.0008410950332181,-0.0005326215177774,-0.001594620058313,0.0002534985542297
1772808569598934500,6.0509345703125,0.093802319291234,0.0078109020798001,0.0072155528354225,-0.0005970587953925,0.0017971605993807,-0.0014533111825585
1772808569618983700,6.070983642578125,0.077494743090868,-0.001265535556944,0.0033847607671981,0.0013451529666781,-0.0013573637697845,-0.0001123286783695
1772808569639033900,6.091033935546875,0.0748030197888612,-0.0039768220759462,0.0032778297940036,0.0022459172178059,-0.0003614484448917,0.0012210104614496
1772808569659082800,6.111082763671875,0.0810907217562198,0.0006765566878486,0.0053935981052694,0.0025385846383869,0.0005197159480303,-0.0003138468600809
1772808569679131600,6.131131591796875,0.0816916102588176,9.60168535355e-05,0.0008269706097431,0.0026559114921838,-0.001356346765533,0.0005714066792279
1772808569699180800,6.151180908203125,0.0857347481697797,-0.0004377155638299,0.0028912964281393,0.001464678440243,0.0015226076357066,0.0009097408037632
1772808569719229700,6.171229736328125,0.0819961461633443,0.0004140332941431,0.0040474076607031,-0.0018318970687687,-0.0009485629852861,-0.000229098368436
1772808569739278800,6.19127880859375,0.076457801258564,-0.00204858482657,0.0024104404089041,-0.0006804466247558,-0.0013624860439449,-0.0005159028805792
1772808569759328800,6.211328857421875,0.082142276635766,-0.0022636158167384,0.0027658023183699,0.0014260022435337,0.0012254320317879,0.0008892505429685
1772808569779377700,6.231377685546875,0.0824433054089546,0.0029733167223632,-0.0065110075955279,0.0001281315926462,0.0007755226688459,0.0012494029942899
1772808569799426800,6.2514267578125,0.0836415752828121,-0.0002560205876827,0.0066420363969402,-0.0014815784525126,0.0006200730567798,0.0006288173608481
1772808569819475700,6.271475830078125,0.0884323166906833,-0.0033979170762933,-0.0014794066364876,0.0001053190790116,0.0017995864618569,0.0022237419616431
1772808569839524900,6.29152490234375,0.0793050073832273,0.0018024737115483,0.0020954287761356,0.0007401502225548,0.0036163674667477,-0.0003459122963249
1772808569859573800,6.31157373046875,0.0790039786100387,-0.0045482835546601,0.0127485594113823,-0.0020376150496304,-7.93797953519e-05,-0.0002214033156633
1772808569879623700,6.331623779296875,0.0854383955717086,-0.0042771384630817,0.008415800037235,0.000480166170746,-0.0006354658398777,0.0008615620899945
1772808569899672800,6.3516728515625,0.0758621734529733,-0.0057020019007381,-0.0053193135929293,-0.0023173633962869,0.0009253289317712,-0.0011333739385008
1772808569919721700,6.3717216796875,0.0869347716093063,0.0025562603540718,0.0067355142335174,-0.0016446991357952,-0.0006902719615027,-0.001015530899167
1772808569939770600,6.3917705078125,0.0870779794722795,-0.0019387403770815,0.0086737431539455,-0.0017459609080106,-0.0026510444004088,-0.0024061505682766
1772808569959819800,6.41181982421875,0.0875268922835588,0.0011870634932536,0.0057875019268365,0.0008732348214834,-0.0007075414760038,-0.0021784137934446
1772808569979868700,6.43186865234375,0.0748112030953168,-0.0039765572144649,0.0063235130662564,-0.0009234561584889,0.000872480100952,0.0010313459206372
1772808569999918600,6.451918701171875,0.0772065737992525,-0.0007554671429563,0.0139174205276649,-0.000977799296379,-0.0001699425920378,0.0001115682534873
1772808570019967700,6.4719677734375,0.0906704510062933,0.006925908539351,0.0064822838245425,0.0003017440903931,-0.0007129821460694,0.0007283203303813
1772808570040016600,6.4920166015625,0.0792950705111026,0.000252486056881,0.0022691824744222,-0.0021184426732361,0.0010071626165881,0.0007603329140692
1772808570060065800,6.512065673828125,0.0752560242533683,0.0025782347238622,0.0073404989559203,0.0017236473504453,0.000547497998923,-0.0004740846343338
1772808570080115000,6.532114990234375,0.0870768104285001,-0.0019447591259144,0.0005988655088702,-0.0002575125545263,0.0005531681235879,-0.0026076650246977
1772808570100164600,6.55216455078125,0.0798953744918107,-0.0002298997657373,-0.0054145541283302,-0.0017038362566381,-1.67615653481e-05,0.0002771471627056
1772808570120213800,6.5722138671875,0.0830365951269865,-0.0030335772759281,0.0036209943755995,-0.0007869061082601,-0.0008550179190933,-0.0006805188022553
1772808570140263000,6.592262939453125,0.089322543528676,0.0053490237446036,0.002469244224322,0.0010245814919471,-0.0019788085483014,0.0017705080099403
1772808570160311800,6.612311767578125,0.0725625473856926,-0.0005311294683255,0.0076418108568992,0.0003277556970715,-0.0022239093668758,0.0001331036910414
1772808570180360700,6.632360595703125,0.0804915868192911,-0.0014715247241314,-0.0002411792115774,-0.0008394927717745,2.27763957809e-05,0.0013230396434664
1772808570200409600,6.65240966796875,0.0930617300570011,0.001644671067642,0.0092178325685439,-0.0016379363369196,0.0021540611051023,-0.0025323894806206
1772808570220459800,6.672459716796875,0.0773486126184463,-0.0054968529837671,0.0021336510278284,-0.0020583958830684,7.84417497925e-05,0.0009301814716309
1772808570240508700,6.6925087890625,0.0801911425679922,-0.0032061756301671,-0.0019003217625664,-0.0005680785980075,0.0002832389436662,-0.0006299638189375
1772808570260557600,6.7125576171875,0.0872264480322599,-0.0002105283449869,0.0026515054560499,-0.0003293300978839,0.0014385706745088,0.0004550998564809
1772808570280606700,6.732606689453125,0.0761550189197063,-0.0013440258869435,0.0031562309746397,-0.0013662737328559,-0.0011702709598466,-0.0001639728434383
1772808570300655900,6.75265576171875,0.0746545512288808,-0.0071115216387901,0.0086851915631443,-0.0031120972707867,0.0025629950687289,-0.0011340426281094
1772808570320704800,6.772704833984375,0.086622052398324,-0.0039702918704599,-0.0006131680288584,-0.0019958694465458,-0.0015859400155022,-0.000533852726221
1772808570340754700,6.792754638671875,0.0843798264294862,-0.0039488563567865,-0.0031926265954272,0.0014449816662818,0.0008615825208835,0.0020695871207863
1772808570360803800,6.812803955078125,0.0810889681905508,0.003903610709263,0.0011960276844212,0.0009914301335811,0.0004199529066681,0.0012565541546791
1772808570380852700,6.832852783203125,0.0749538264364004,0.0046364732947666,-0.0041874737185193,-0.0007678240071982,-0.0041368030942976,0.0019744453020393
1772808570400902000,6.85290185546875,0.0709136111348867,-0.0087996482556685,0.0042074798935092,0.0021075098775327,0.000693040434271,0.0011199507862329
1772808570420950500,6.872950439453125,0.0923117884725332,-0.0046639366904273,0.0018879463381832,-0.0007965010590851,-0.000376605981728,-0.0009894017130136
1772808570440999700,6.892999755859375,0.0803396111279726,-0.0060545325323007,0.0029873406811384,-0.0005711184348911,0.0009498187573626,0.0017042644321918
1772808570461049900,6.9130498046875,0.0857289029508829,0.001263955521211,0.0100181754662655,4.76730056107e-05,-0.0040847905911505,0.0002752114087343
1772808570481098800,6.9330986328125,0.0769020378947258,-0.0007677147031761,-0.0012233951819594,0.0005437731742858,-0.0007752689998596,-0.0001411135308444
1772808570501147600,6.953147705078125,0.0828892956107854,-0.001445750962058,0.0021006072747521,-0.0022791274823248,0.0021707459818571,0.0010128037538379
1772808570521196800,6.97319677734375,0.0809422531962394,-0.0063338335308711,-0.001125090473215,-0.0001208852045238,-0.0005801784573122,0.0005949104670435
1772808570541245700,6.99324560546875,0.08737550111413,0.0028138518443331,0.0012164950837148,-0.0031048567034304,-0.0011016398202627,-0.0004684654995799
1772808570561294800,7.013294921875,0.0816869340837001,0.000330656726472,-0.0040392197876702,0.000893170479685,-0.0011179596185684,-0.0009098835289478
1772808570581344800,7.0333447265625,0.0864794290572404,-0.0019126743540633,-0.0067256641263607,0.0005277495365589,-0.0014125646557658,-0.0007508620619773
1772808570601393700,7.0533935546875,0.0792968240767717,-0.0050278746319934,0.0012293682650197,0.0008091079071164,-0.0008881171233952,0.0007536998018622
1772808570621442800,7.07344287109375,0.0778027861267328,-0.0063006527804769,0.0008632429329445,0.0043248841539025,0.0011682080803439,-0.0004413686692714
1772808570641491700,7.09349169921875,0.0797498285412788,-0.0013930983262136,-0.0026820558579405,0.0008551250211894,0.0006317730876617,-0.0021757362410426
1772808570661540900,7.113540771484375,0.0872358003824949,-0.0033114261029288,0.0055323718217201,0.0015974729321897,-0.0009344148566015,0.002206903649494
1772808570681589800,7.13358984375,0.0811024121940136,-0.0069760952234733,0.0034585840552346,0.0010571973398327,-0.0011580975260585,-0.00070471316576
1772808570701639700,7.1536396484375,0.0833493143379688,-0.0011213047806639,7.05947179114e-05,-0.0005834067706018,-0.0019249025499448,0.0015964186750352
1772808570721688800,7.173688720703125,0.0788613552689552,-0.0002376081481575,0.0069717021761462,0.0008577348198741,-0.0004333707911428,0.0004285206086933
1772808570741737700,7.19373779296875,0.0751221687406301,-0.0008519315210636,0.0047468474672175,0.0030797410290688,-0.0004811219696421,0.0023636377882212
1772808570761786600,7.21378662109375,0.0823053582429885,0.0059052328552585,0.0007471696720691,0.0021428649779409,0.0007331079104915,-0.0008599436841905
1772808570781835800,7.233835693359375,0.0815583392679691,-0.0014033183261286,0.0085537198037374,-0.0017010373994708,0.0007410803809762,0.0005987584590911
1772808570801884700,7.253884765625,0.0809632959842681,-0.0018883892961777,-0.0015832917026476,0.0022139973007142,6.20889477431e-05,-0.0013856529258191
1772808570821934300,7.273934326171875,0.0781219350785017,-0.0038224260986782,0.0024499641351168,0.0002052800264209,0.0006974263815209,-0.0004257527180016
1772808570841983500,7.2939833984375,0.085154317933321,-0.0006939279477577,0.0024498591038398,-0.0020231693051755,-0.0015227118274196,5.95818273723e-05
1772808570862032400,7.314032470703125,0.0752758979976177,0.0003591887012124,0.0045693765750387,-0.0011583638843148,0.0014456287026405,0.0020183427259325
1772808570882081500,7.33408154296875,0.069739891180396,-0.0022597068266011,0.0014663233926286,-0.0012567227240651,0.0005114561063237,3.43993306159e-05
1772808570902130700,7.354130615234375,0.0743792414188384,0.0080177223640494,0.0011629930644994,0.0026740978937596,-0.0006710062734782,0.0007531109731644
1772808570922180400,7.374180419921875,0.0803688372224569,-0.0024943375663831,0.0006964030326344,0.0006471418309956,0.0006409205961972,0.000846330774948
1772808570942229500,7.3942294921875,0.0793213739961385,-0.001743975856807,0.0041256605286849,-8.4911007434e-06,0.0015351404435932,-0.0010142615064978
1772808570962278700,7.414278564453125,0.0767792882978916,-0.0007542706997133,0.0012214406868908,-0.0007106554694473,0.000331191055011,-0.0003261072561144
1772808570982327600,7.43432763671875,0.0832137052595615,0.0009188501442782,0.0006724924340844,-0.0008092450443655,-0.0008257515728473,0.0018969445955008
1772808571002376400,7.45437646484375,0.0824631791532039,-0.0028285379568114,0.0109740194529527,-0.0031684283167123,-0.0035521590616554,-0.0002538510598242
1772808571022425300,7.47442529296875,0.0829120919644832,0.0070377896822988,0.002267460874794,0.0012535280548036,0.0017435160698369,-0.000687654595822
1772808571042475500,7.4944755859375,0.0797737939387559,-0.0019849176063667,0.0058052156800404,0.000402512261644,0.0016438836464658,0.0011739311739802
1772808571062524700,7.514524658203125,0.0779763891279697,0.0057801543040201,0.0006084416213911,0.0018653781153261,-0.0022871671244502,-0.0002049952745437
1772808571082573300,7.5345732421875,0.0865051480203867,0.0010820870151277,0.0060495549630839,0.0021682435180991,-0.0008750098058953,0.0003501407336443
1772808571102622500,7.55462255859375,0.0865074861079454,-0.0009574925210792,0.0029094622724922,-0.0009979698807001,0.0001913688902277,-0.0010006418451666
1772808571122671600,7.574671630859375,0.082317633202672,0.0055253301595803,0.0044875252441735,-0.0009771259501576,0.0005643944605253,0.0001952382735908
1772808571142720500,7.594720458984375,0.0772282011091709,0.0028568964016158,-0.001548923642165,0.002095595235005,-0.0010366353671997,-0.0020136293023824
1772808571162770400,7.6147705078125,0.073934420260787,0.0027877401555422,0.002540386931505,-0.0001460677012801,0.0019231939222663,0.0003238024655729
1772808571182819600,7.634819580078125,0.0785761085867881,-0.0020420180884655,-0.0011174460228765,0.0013924320228397,0.0003547352098394,0.0005564675666391
1772808571202868500,7.654868408203125,0.0760363609760999,-0.0050022013346198,0.0062853227806044,-0.000939896563068,0.0008768786792643,0.0022546728141605
1772808571222917600,7.674917724609375,0.0824678553283214,0.0008934508415404,-0.0065576232162304,-0.0031435093842446,0.0003763767599593,0.0010002227500081
1772808571242966500,7.694966552734375,0.0833639273852109,-0.0020237883120309,-0.0001404313839972,-0.0014864618424326,0.0008594982209615,0.0002708886750042
1772808571263015400,7.715015380859375,0.0757335786372423,-0.0049391186363063,0.0028900177865056,0.0003759372048079,-0.0003136970626655,-0.0001761047169566
1772808571283065600,7.735065673828125,0.0692974081099033,0.0051158360432367,0.0088770517402794,-0.0009246184490621,0.0012882705777883,0.0012923339381814
1772808571303114500,7.755114501953125,0.0909936916112899,-0.0027714192084036,-0.0019837394294328,-0.0006256666965782,-0.0027383456472307,0.0017532443162053
1772808571323163400,7.775163330078125,0.0782744952917098,0.0063805404831189,0.006509742653626,0.0020243511535227,-0.0008207464707084,-0.0010541011579334
1772808571343212500,7.795212646484375,0.078278002423048,-0.0021604385700542,-0.001068245719443,-0.001176404999569,-0.0017315560253337,-0.0005190121009945
1772808571363261400,7.815261474609375,0.0808235952526331,0.0013009265307337,0.0043263844322878,0.0005966208409518,0.0003632833249866,-0.0008541028946638
1772808571383310600,7.835310546875,0.0829202752709388,-0.0044584955125115,-0.0044147157362895,-0.0013471529819071,0.0016185673885047,-0.0013108127750456
1772808571403360500,7.855360595703125,0.0868120220124721,0.0020645221812184,0.0007765418970258,-0.0017816100735217,-5.89092087466e-05,-4.2947940528e-06
1772808571423409400,7.875409423828125,0.0766354959130287,0.000795214631455,-0.0047127534013707,0.000538969412446,-0.0014138648984953,-0.0004147440195083
1772808571443458600,7.89545849609375,0.0742418787747621,-0.0006790683053433,0.0010927180069964,0.0002173299435526,0.0006593613652512,0.0013528221752494
1772808571463507500,7.915507568359375,0.078132456472516,0.0016584621309768,0.0041013754707993,0.0008109104819595,-0.0020816738251596,4.70047816634e-05
1772808571483556600,7.935556640625,0.0800789143651723,0.0039131183231249,-0.0003102806587237,0.002698830096051,-0.0013782987371087,-0.0005192281678318
1772808571503605500,7.95560546875,0.0929500863760709,-0.0029202074287924,0.0044084549588616,0.001811112742871,0.0002790156868286,-0.0001107365824282
1772808571523655400,7.975655517578125,0.0779863260000944,-0.0077140723755117,-0.0021566300446167,-0.0002903272397816,-0.0009391359053552,0.0001160823740065
1772808571543704600,7.99570458984375,0.084423081049323,0.0035706067620776,-0.0002902653505792,0.0010075718164443,0.0022666249424219,0.000511014368385
1772808571563753700,8.015753662109375,0.0769429544270038,0.0047170916497707,-0.0026376732935197,-0.0010192103218287,-0.0016282428987324,-0.001622010488063
1772808571583802400,8.03580224609375,0.0808352856904268,0.0074290722885169,0.0035881835179636,0.0013699918054044,8.886563591659069e-07,0.0014562655705958
1772808571603851500,8.0558515625,0.0836772311180829,0.0012291673356201,-0.0018449154806323,-0.0001795354764908,-0.0002608275099191,0.0002549472264945
1772808571623900400,8.075900390625,0.0821820241242647,0.0026503044462297,0.000520745071629,-0.0027060410939157,0.0014546471647918,-0.0038006864488124
1772808571643950300,8.095950439453125,0.0794885472565889,-0.0005155209072399,0.0045632071291562,-0.0008571296930313,0.0009265287662856,-0.0010587312281131
1772808571663999500,8.11599951171875,0.0769452925145626,0.0023971882016863,0.0084890662028454,0.0003771507181227,0.000366856373148,-0.0018982137553393
1772808571684048400,8.13604833984375,0.0827852507144212,0.0028789621029514,-0.0022460573271615,0.0049167252145707,-0.0018295984482392,0.0008429440204054
1772808571704097500,8.15609765625,0.0769487996459007,0.0050503878579009,-0.0017467066700104,0.0008802078664302,-0.0011849219445139,0.0002509066835045
1772808571724146700,8.176146728515626,0.0777010793179273,-0.0052827718416694,0.0027808583236066,-0.00079623516649,-1.08465901575e-05,-0.0003848886117339
1772808571744195600,8.196195556640625,0.0756061528652906,0.0058112983609549,0.004091721726465,-0.0003146599046885,0.0003563044883776,0.0008271476253867
1772808571764245500,8.21624560546875,0.0712643242686986,0.0017728914240375,-0.0052371243353467,-0.0005823888350278,0.0011517005041241,0.0001800740137696
1772808571784294700,8.236294677734374,0.0717120680361986,0.0066777881303336,-0.0011262777833035,0.0011884414125233,-0.0004403350176289,0.0001839441247284
1772808571804343600,8.256343505859375,0.071862290161848,-0.0009328421370126,-0.0033954739574575,-0.0004679192788898,-0.0011837184429168,-0.0008174092508852
1772808571824393000,8.27639306640625,0.0833832166075706,-0.0012782306417357,-0.0040306665884563,0.0014852043241262,-0.0018554967828094,0.001218618126586
1772808571844442000,8.296442138671875,0.0721609808474779,0.0003451784421689,0.0013931668248726,0.0018985026981681,-0.0043299156241118,-0.0027896501123905
1772808571864491000,8.316490966796875,0.0865244372427463,0.0049254645702894,0.0061954662397969,0.0004106960259377,-0.0004738770076073,0.0002160500735044
1772808571884541000,8.336541015625,0.0759001673758029,0.0014723193085752,0.0004597173330839,-0.0007685355376452,0.0013806606875732,0.0012336592189967
1772808571904590000,8.356590087890625,0.0762011961489915,0.0089564279862679,-0.0030787681245245,-0.0001226863823831,0.0002852645411621,0.0003039694856852
1772808571924639000,8.376638916015626,0.0875759921222925,-0.0011909724833909,-0.00370640763673,0.0004362631589174,0.0005704057402908,-0.0007153381593525
1772808571944688000,8.396688232421875,0.0750087714940309,0.0033927568439859,-0.0048117430967045,0.0007314039394259,0.0010020273039117,-0.0004755458794534
1772808571964737000,8.416737060546875,0.0847381383478641,0.0039965862223412,-0.0030036250956589,-0.0007472857832908,-0.0015992934349924,-0.0010028951801359
1772808571984786000,8.436785888671874,0.0625911884695291,0.0039371385195292,2.11934850784e-05,0.0002965691965073,-0.000452299544122,0.0006631496362388
1772808572004835000,8.4568349609375,0.0820458305239677,0.009020926323533,0.0084378748717252,0.0001509715802967,0.0018600394250825,0.0005882931873202
1772808572024885000,8.476885009765626,0.0792015470087528,0.0079239796659909,0.0046279063958209,0.001368140336126,-0.001817351905629,0.0003128766547888
1772808572044934100,8.49693408203125,0.0769563984304666,-0.0001297455932013,-0.0031629758092574,0.000853813951835,-0.0016839967574924,-0.0011833463795483
1772808572064983000,8.516983154296875,0.0748608874559402,0.0038547848651651,0.0104259297166718,-0.0019026413792744,2.37493659369e-05,-0.0015678722411394
1772808572085032000,8.537031982421874,0.0898240633100271,0.0080604746603872,-0.0015651578243356,0.0006849041674286,0.0004925192333757,-0.0015293871983885
1772808572105081000,8.5570810546875,0.0793476774811744,0.0055315498378127,0.0011086279621813,-7.91533384472e-05,0.0010295781539753,-0.0011590272188186
1772808572125130000,8.5771298828125,0.0786000739842653,0.0070673445703461,0.0031653001970844,0.0006627603434026,0.0006251625018194,0.0018756864592432
1772808572145180000,8.597179931640625,0.0821884538650512,0.0039085608790162,-0.0066528546184767,-0.0015948319341987,-0.0006925598718225,0.0003170028794556
1772808572165229000,8.61722900390625,0.0788929194509983,0.0032683084804099,0.0033912864061072,0.00121490820311,0.0014714744174852,-0.0029228683561086
1772808572185278000,8.63727783203125,0.0712608171373605,-0.0039198129253927,0.0041984563368372,-0.0024576131254434,-7.05077691236e-05,0.0015496406704187
1772808572205327000,8.6573271484375,0.0729044926911592,0.0052888179899659,-0.0030903626641957,0.0010141744278371,0.0028508510440587,-0.0002921563573181
1772808572225376300,8.677376220703126,0.0754489164769649,0.0063648314573336,-0.0006335897623794,-0.0001611069310456,0.0012329650344327,-0.0011467593722045
1772808572245425000,8.6974248046875,0.07799450930655,0.0021187091870233,0.0003815923292655,0.0030560134910047,-0.001837579999119,-0.0002003409899771
1772808572265475000,8.71747509765625,0.0826321059793233,-0.0056594322674907,0.0014537379056913,-0.001712629571557,0.0005352045409381,7.73472711443e-05
1772808572285524200,8.737524169921874,0.0880155525833368,-0.005019243800966,-0.0066425204541301,0.0020172921940684,0.0001429012336302,-0.0036363643594086
1772808572305572900,8.75757275390625,0.0682645579308271,0.0044087928855791,0.0044562259236117,0.0032513129990547,-0.0022223675623536,-0.0003415085375308
1772808572325622000,8.7776220703125,0.0820306329548358,-0.0065518784620333,-0.0005496743385912,0.0013733929954469,-0.000296108162729,0.0003813561052083
1772808572345671000,8.7976708984375,0.0784375768989324,0.0036306298536248,-0.0028134180194931,-0.0018610316328704,-0.0002531356876716,-0.0007121618837118
1772808572365720000,8.817719970703125,0.0838221925467252,0.0031331560597289,4.78485965635e-05,-0.0026397104375064,0.0014089331962168,0.0014930353499948
1772808572385769200,8.837769287109374,0.0709527741014957,0.0052563770250882,-0.0044397131802281,-0.0020258806180208,0.0002917235251516,0.0013805590569972
1772808572405819000,8.85781884765625,0.0781336255162954,-0.0008452186524868,-0.0019027877142885,-0.0024438621476292,0.0013650809414684,-0.0023765307851135
1772808572425868000,8.877867919921876,0.0856114140510559,-0.0012347750924993,-0.0008435290188994,-0.0020277884323149,-0.0003115651488769,-0.0004449849948287
1772808572445917200,8.897917236328125,0.0752834967821836,0.0003314878435339,0.0092541003251681,-0.0014976782258599,0.0021136521827429,-0.002385573927313
1772808572465966000,8.917966064453125,0.0839636468440294,-0.0020504845227114,-0.0002348727683769,0.0010869135148823,0.0009213798330165,-0.0002431725151836
1772808572486015000,8.938014892578124,0.079326050171256,0.0024892777987755,-0.0063177774452138,-0.0004751426167786,0.000997424358502,-0.0016946312971413
1772808572506064000,8.95806396484375,0.0797743784606456,-0.0071043521124869,0.0071669279207242,-0.0010955699253827,0.0016182700637727,-0.0010012947022914
1772808572526113000,8.978113037109376,0.0860603268623352,0.0007749116289429,0.0027106882973806,0.0007847789674997,-0.0001353915868094,-6.06696121394e-05
1772808572546163200,8.9981630859375,0.0697504125744104,0.0039251375544816,-0.0050479173396015,-0.000518723623827,-0.0008250017999671,-0.0007914970628917
1772808572566211800,9.0182119140625,0.0824684398502111,0.0032827023319434,0.0019910505196312,-0.001980033237487,0.0016293872613459,0.0010466673411428
1772808572586261000,9.038260986328124,0.0814227301895618,0.0002356171204708,0.0013943130357656,-0.0002578687854111,0.0013745420146733,-0.0003676144406199
1772808572606310100,9.05831005859375,0.0832177969127893,-0.0042079822170082,0.0033661291319644,-0.0009156623855233,0.0005008187144994,-0.0013814740814268
1772808572626359000,9.078359130859376,0.0812765997171402,-0.0023075371568556,-0.0001969519107835,0.0020827571861445,-0.0006135092116892,-0.0004983069375157
1772808572646408200,9.098408203125,0.0826221691071987,-0.0031943847276736,0.0018362755164504,0.0016668778844177,-0.0010869889520108,0.0008893916383385
1772808572666456800,9.118456787109375,0.0755950469493866,0.0037130565732251,-0.0008094303864752,0.0039021174889057,0.001244735205546,-0.0011384533718228
1772808572686507000,9.138507080078124,0.0787421128034591,-0.0014823749117087,0.0075146316801197,0.0014002369716763,-0.0019480210030451,0.0014343559741973
1772808572706556200,9.15855615234375,0.0808358702123165,-0.0031379600990097,-1.52934672543e-05,0.0001857096794992,-0.0014845670666545,4.41572628915e-05
1772808572726605000,9.17860498046875,0.0811368989855051,-0.0002864248591009,0.0052560756309889,0.0003780385013669,-0.000250579585554,0.0001864493824541
1772808572746654000,9.198654052734376,0.0748532886713743,-0.0024212449307087,0.0056937774950871,0.0001318803988397,0.0001092221064027,-0.0015711267478764
1772808572766703000,9.218703125,0.0805365950047969,0.0028287297530565,-0.002058909857762,0.0013610119931399,-0.0028370649088174,0.0004966442938894
1772808572786752000,9.238751953125,0.0853249983251094,0.0055922213833313,-0.0145887073853518,-0.0018356402870267,0.0014868716243654,-0.0006326609291136
1772808572806801200,9.25880126953125,0.0766448482632637,0.0051391986525151,-0.004812428083294,0.0001194437500089,-0.0003563294594641,0.0013051251880824
1772808572826850600,9.2788505859375,0.0678168141633272,0.001911002986785,0.0014456230978947,-0.001458840444684,-5.74582372792e-05,0.0014979268889874
1772808572846899700,9.298899658203124,0.0880143835395574,-0.0008539134155958,-0.0039856401366414,0.0005598375573754,-0.0007943642558529,-0.0002979701384902
1772808572866948600,9.318948486328123,0.0790343737483024,-0.0010903433868195,-0.0008049916733754,-0.0007583538535982,-0.000896205427125,-0.0007070396095514
1772808572886997800,9.338997802734376,0.0832242266535758,0.0051492633888032,0.0075999307768186,0.0004612528719007,-0.000401240424253,-9.27420333027e-05
1772808572907046700,9.359046630859376,0.0836760620743036,0.0019465035584289,-0.0009186720477649,0.0013168468140065,0.0020981945563107,-0.001234158873558
1772808572927095600,9.379095458984375,0.0727513479560613,-0.0007016819959506,-0.0013654705337714,0.0014972928911447,-0.0004951764713041,-0.0023532849736511
1772808572947144700,9.399144775390624,0.0829272895336151,-0.0022252200351096,0.0013315773973241,0.0006027005147188,-0.0017774048028513,0.0002228980883955
1772808572967194600,9.419194580078123,0.0711076724022626,-0.004461783448141,-0.0026515693881316,4.65230550616e-05,-0.0001285742182517,-0.0010906569659709
1772808572987243800,9.439243896484374,0.0787391901940107,0.0040498599126935,0.0051476057212566,0.001380025409162,0.000368552195141,0.0008379165083169
1772808573007292700,9.459292724609377,0.0785895525902509,-8.61256471835e-05,0.0042397564616054,-0.0010118247009813,0.002178969560191,6.0049816966e-05
1772808573027341600,9.479341552734375,0.0784381614208221,0.0032251269258093,-0.0083666590993059,0.0019991442095488,-0.0002486555604264,0.0014263242483139
1772808573047390700,9.499390625,0.0761959354519844,-0.0027805797623936,-0.0030243756227428,0.0002696129959076,0.0005250426474958,-0.002113408409059
1772808573067439600,9.519439697265623,0.0758943221569061,-0.0026021727218758,0.0041645860332762,-0.0008778118062764,-0.0001867418613983,0.0007226453162729
1772808573087488800,9.53948876953125,0.0734989514529705,0.0036224100145511,0.0044985900608822,0.000195511849597,-0.0015607982641085,-0.000540894921869
1772808573107538700,9.55953857421875,0.0788847361445427,0.0007027597081847,-0.0025536528384545,-0.001671252772212,0.0004916213219985,-0.0016379985027015
1772808573127587600,9.579587646484375,0.0782850166857242,0.0026714020331855,0.000814563219319,-0.0017017254140228,-0.0018199479673057,-0.0001124627888202
1772808573147636700,9.59963671875,0.0758896459817886,-0.0054714080152567,0.0025184810603735,-0.0004236774984747,-0.0018346365541219,-0.0002768249250948
1772808573167685600,9.619685546875,0.0769347711205482,-0.0032143954692408,0.0052717755236197,0.0019427568186074,0.0006932443939149,0.0009149785619229
1772808573187734500,9.639734619140626,0.0809744019001722,-0.0070747880912851,0.0027481479306705,0.0008144280873239,-4.6841771109e-05,-0.0034709498286247
1772808573207783700,9.65978369140625,0.0737923814415931,-0.000451771488646,0.0012305921077262,0.001543880905956,-0.0005090782651677,0.0003787777386605
1772808573227832600,9.67983251953125,0.083220135000348,-0.0005659541865345,0.0051635887416778,0.0021724901162087,0.0078144697472453,7.9665333032e-06
1772808573247881700,9.6998818359375,0.168422968250513,0.0019178163200616,-0.0262900821316288,0.0063151968643069,0.0076230275444686,0.0023515275679528
1772808573267931600,9.719931640625,0.0701239220619201,-0.0005499072340317,-0.0070521972335642,0.0017288504168391,-0.0029896758496761,-0.0004794485867023
1772808573287980500,9.73998046875,0.0822416453570127,0.0011178524482529,-0.0070323143561603,-0.0007391970138996,0.0062680086120963,0.0013859369792044
1772808573308029700,9.76002978515625,0.0723655635088682,0.005611355342064,0.0144368504250422,-0.0005535557866096,-0.0020940478425472,-0.0022329553030431
1772808573328078800,9.780078857421875,0.0678659140020608,0.0057012438489124,0.0043196624305564,-0.0026903564576059,-0.0030807547736912,-0.0011552558280527
1772808573348127500,9.80012744140625,0.0847708715736866,-0.0062339350866619,0.0008973872311413,-0.0013184580020606,-0.0023425205145031,-0.001934518571943
1772808573368176600,9.8201767578125,0.085663436499238,0.0037485297454055,0.0008369348813313,-0.0013434255961328,-0.0064259483478963,-0.0004656175151467
1772808573388225500,9.8402255859375,0.0723363374143838,-0.0027555275195278,-0.001729330843524,-0.0002783241216093,-0.0055084875784814,-0.0009387037716805
1772808573408275700,9.860275634765625,0.0730710814297199,-0.0016036540706641,-0.0020900539146969,-0.0036776440683752,-0.0102252131327986,-0.0001870011910796
1772808573428324600,9.88032470703125,0.0859305630028247,0.0028785328446887,-0.00040724736033,-0.0020457012578845,-0.0045145973563194,0.00083216605708
1772808573448373500,9.90037353515625,0.0904161839842796,-0.0015036916943732,-0.0096260434766765,-0.0017742400523275,-0.0024213518481701,-0.0023948070593178
1772808573468422700,9.920422607421877,0.077095514640212,-0.0025019546172581,-0.010220853864937,-0.0033000926487147,-0.0008546160534024,-8.03624279797e-05
