time,seconds_elapsed,accel_z,accel_y,accel_x,gyro_x,gyro_y,gyro_z
1.772640197926161e+18,0.348160888671875,-0.0471315383911132,0.0026025101542472,-0.0011298917233943,0.0017310532275587,0.00093210558407,0.0001331579405814
1.7726401979461524e+18,0.36815234375,-0.0513229370117187,0.003364834934473,-0.0212474353611469,0.0001331579405814,-0.0003994738217443,-0.0006657897029072
1.7726401979661437e+18,0.388143798828125,-0.0609054565429687,0.0033720843493938,-0.0169668942689895,0.0013315794058144,-0.0017310532275587,0.0001331579405814
1.7726401979861353e+18,0.40813525390625,-0.0848598480224609,-0.0157647207379341,-0.0081571452319622,-0.0007989476434886,0.0003994738217443,-0.0003994738217443
1.7726401980061268e+18,0.428126953125,-0.0561132431030273,0.0071558356285095,0.0043499954044818,-0.0002663158811628,0.0003994738217443,0.0001331579405814
1.7726401980261181e+18,0.4481181640625,-0.047128677368164,-0.0023402124643325,0.0137586221098899,-0.0005326317623257,-0.0006657897029072,-0.0011984214652329
1.7726401980461097e+18,0.468109619140625,-0.0327577590942382,-0.0023590289056301,0.009264051914215,0.0007989476434886,0.00093210558407,-0.0011984214652329
1.772640198066101e+18,0.48810107421875,-0.0519227981567382,-0.0025871098041534,-0.0048124473541975,-0.0002663158811628,0.0003994738217443,-0.0001331579405814
1.7726401980860925e+18,0.508092529296875,-0.0561161041259765,0.0069231986999511,0.0144383870065212,-0.0002663158811628,0.00093210558407,-0.0006657897029072
1.7726401981060838e+18,0.528083740234375,-0.0561151504516601,0.0021131411194801,0.0046829022467136,-0.0001331579405814,-0.0001331579405814,-0.0003994738217443
1.7726401981260754e+18,0.548075439453125,-0.0561151504516601,-0.002487625926733,-0.0049151666462421,-0.0011984214652329,-0.00093210558407,0.0001331579405814
1.772640198146067e+18,0.56806689453125,-0.0609045028686523,0.0070746056735515,-0.0051926225423812,0.0003994738217443,-0.0003994738217443,0.0006657897029072
1.7726401981660582e+18,0.588058349609375,-0.0656967163085937,0.0020037703216075,0.0235872659832239,-0.0006657897029072,0.0001331579405814,0.0001331579405814
1.7726401981860498e+18,0.6080498046875,-0.0471315383911132,0.006931647658348,0.0139348730444908,0.0003994738217443,0.0011984214652329,-0.0003994738217443
1.77264019820604e+18,0.6280400390625,-0.0471315383911132,0.0212830752134323,0.0001440402120351,0.00093210558407,0.0011984214652329,-0.0001331579405814
1.7726401982260296e+18,0.648029541015625,-0.0656967163085937,-0.0122190900146961,0.0049696024507284,0.0003994738217443,-0.0001331579405814,0.00093210558407
1.772640198246019e+18,0.66801904296875,-0.0279664993286132,-0.0072376206517219,0.0048994943499565,-0.0003994738217443,-0.0003994738217443,-0.0011984214652329
1.7726401982660088e+18,0.6880087890625,-0.0279674530029296,0.016643613576889,-0.0094888117164373,-0.0003994738217443,-0.0006657897029072,0.0006657897029072
1.7726401982859983e+18,0.707998291015625,-0.0375490188598632,-0.002643447369337,0.0047618672251701,0.0011984214652329,-0.0006657897029072,0.0003994738217443
1.7726401983059878e+18,0.72798779296875,-0.0423412322998046,-0.0027665197849273,0.0048487931489944,-0.0001331579405814,-0.0006657897029072,0.0003994738217443
1.7726401983259773e+18,0.747977294921875,-0.0375499725341796,0.0115855745971202,0.0239922478795051,-0.0006657897029072,0.0001331579405814,0.0003994738217443
1.772640198345967e+18,0.767967041015625,-0.0519218444824218,0.0115647204220294,0.0142869185656309,0.0006657897029072,-0.0003994738217443,-0.0001331579405814
1.7726401983659566e+18,0.78795654296875,-0.0471305847167968,0.0069099217653274,-5.1001086831e-05,-0.0006657897029072,-0.0003994738217443,-0.0014647373463958
1.772640198385946e+18,0.807946044921875,-0.0471305847167968,-0.0025863498449325,-0.0048583336174488,-0.00093210558407,0.0003994738217443,-0.0001331579405814
1.7726401984059359e+18,0.827935791015625,-0.0519218444824218,0.0020816177129745,-0.0001869108527898,0.0011984214652329,-0.0006657897029072,-0.0001331579405814
1.7726401984259254e+18,0.84792529296875,-0.0561141967773437,0.0066955387592315,-0.0010634548962116,0.0006657897029072,-0.0001331579405814,-0.0003994738217443
1.772640198445915e+18,0.867914794921875,-0.0656957626342773,0.0065181106328964,0.0132891479879617,0.0001331579405814,0.0001331579405814,-0.0001331579405814
1.7726401984659046e+18,0.887904541015625,-0.0561151504516601,0.0016032084822654,0.0036893840879201,0.0003994738217443,-0.0006657897029072,-0.0001331579405814
1.7726401984858941e+18,0.90789404296875,-0.0519218444824218,-0.0077349878847599,0.0131990853697061,-0.0003994738217443,-0.0001331579405814,-0.0011984214652329
1.7726401985058836e+18,0.927883544921875,-0.0561122894287109,-0.0075434930622577,-0.0012949835509061,-0.0001331579405814,-0.0003994738217443,0.0006657897029072
1.7726401985258732e+18,0.947873046875,-0.0656957626342773,0.0163359977304935,0.0036869402974843,0.0011984214652329,-0.0011984214652329,0.0011984214652329
1.772640198545863e+18,0.96786279296875,-0.0609025955200195,0.0019960962235927,0.0082506351172924,0.0003994738217443,-0.0006657897029072,-0.0006657897029072
1.7726401985658524e+18,0.987852294921875,-0.051919937133789,-0.0028653442859649,0.0223920755088329,0.0006657897029072,0.0001331579405814,-0.0011984214652329
1.772640198585842e+18,1.007842041015625,-0.0609025955200195,0.0020102448761463,0.0128416921943426,-0.0003994738217443,-0.0001331579405814,0.0001331579405814
1.7726401986058317e+18,1.027831787109375,-0.037546157836914,0.0117270052433013,0.003893706947565,-0.0011984214652329,-0.0011984214652329,0.0001331579405814
1.7726401986258212e+18,1.0478212890625,-0.051919937133789,-0.0075107030570507,0.0182926543056964,-0.0001331579405814,0.0014647373463958,-0.0006657897029072
1.7726401986658004e+18,1.087800537109375,-0.051919937133789,0.0069899186491966,0.0231481287628412,0.0001331579405814,-0.00093210558407,-0.0001331579405814
1.77264019868579e+18,1.1077900390625,-0.0561132431030273,-0.0075567029416561,0.0089638866484165,0.0006657897029072,-0.0001331579405814,0.0003994738217443
1.77264019870578e+18,1.127780029296875,-0.0423402786254882,-0.0125197060406208,-0.0151078775525093,-0.0001331579405814,-0.0019973691087216,-0.0003994738217443
1.7726401987257702e+18,1.147770263671875,-0.0519218444824218,-0.0175328105688095,-0.0200656540691852,-0.0001331579405814,0.0001331579405814,-0.0001331579405814
1.7726401987457603e+18,1.16776025390625,-0.0471296310424804,0.0019249804317951,-0.005655076354742,-0.0001331579405814,0.0001331579405814,-0.0003994738217443
1.7726401987657505e+18,1.18775048828125,-0.0519208908081054,0.0113800317049026,-0.0009843353182077,-0.0006657897029072,0.0001331579405814,0.0003994738217443
1.7726401987857408e+18,1.20774072265625,-0.051919937133789,0.0018305741250514,-0.0154211316257715,-0.0001331579405814,-0.0001331579405814,0.0001331579405814
1.772640198805731e+18,1.22773095703125,-0.0423383712768554,0.0064956657588481,-0.0258710365742445,0.0001331579405814,0.00093210558407,-0.0001331579405814
1.7726401988257213e+18,1.247721435546875,-0.0609045028686523,-0.017732560634613,-0.0114059522747993,0.0011984214652329,-0.0001331579405814,-0.00093210558407
1.7726401988457116e+18,1.267711669921875,-0.0375490188598632,-0.0031687803566455,0.0126316361129283,0.0001331579405814,-0.0003994738217443,-0.0003994738217443
1.772640198865702e+18,1.287701904296875,-0.0279674530029296,-0.0031868778169155,0.0030835233628749,0.00093210558407,-0.0011984214652329,0.0001331579405814
1.7726401988856922e+18,1.307692138671875,-0.0519208908081054,0.0064777322113513,0.0125911030918359,-0.0001331579405814,0.0001331579405814,0.0003994738217443
1.7726401989056824e+18,1.327682373046875,-0.0327558517456054,0.0066651441156864,0.0124652218073606,0.0001331579405814,-0.0001331579405814,0.0003994738217443
1.7726401989256727e+18,1.347672607421875,-0.0561122894287109,-0.0029344372451305,0.0029699709266424,0.0006657897029072,-0.0003994738217443,-0.0006657897029072
1.772640198945663e+18,1.3676630859375,-0.051919937133789,0.006834864616394,0.003265656530857,0.0003994738217443,-0.0011984214652329,-0.00093210558407
1.7726401989656532e+18,1.3876533203125,-0.0561122894287109,0.0212852880358696,-0.0158023368567228,0.00093210558407,0.00093210558407,0.0011984214652329
1.7726401989856435e+18,1.4076435546875,-0.0423383712768554,0.0068902485072612,0.0073764882981777,-0.0011984214652329,-0.0003994738217443,-0.0003994738217443
1.7726401990056338e+18,1.4276337890625,-0.0609025955200195,0.0020274929702281,0.0181319825351238,0.0001331579405814,0.0001331579405814,-0.0003994738217443
1.772640199025624e+18,1.4476240234375,-0.0561122894287109,0.006801962852478,0.0036977082490921,-0.0006657897029072,-0.0011984214652329,-0.00093210558407
1.7726401990456143e+18,1.4676142578125,-0.0471277236938476,-0.0123199112713336,0.017753841355443,-0.00093210558407,0.0001331579405814,0.0001331579405814
1.7726401990656046e+18,1.4876044921875,-0.0423355102539062,0.0068246684968471,0.0221207868307828,0.0006657897029072,0.0014647373463958,0.0001331579405814
1.7726401990855946e+18,1.5075947265625,-0.0519180297851562,0.0164353661239147,-0.0064610876142978,-0.0014647373463958,0.00093210558407,0.0006657897029072
1.772640199105585e+18,1.5275849609375,-0.0609016418457031,0.0164643041789531,0.0033850744366645,0.0003994738217443,-0.0003994738217443,0.00093210558407
1.7726401991255752e+18,1.5475751953125,-0.0519180297851562,-0.0025533959269523,0.008227702230215,-0.0001331579405814,-0.0006657897029072,0.0006657897029072
1.7726401991455654e+18,1.5675654296875,-0.0561094284057617,-0.0119323320686817,-0.0012455880641937,0.0001331579405814,-0.0003994738217443,-0.0006657897029072
1.7726401991655557e+18,1.5875556640625,-0.0471258163452148,-0.0022044368088245,-0.0205527376383543,0.0001331579405814,-0.0007989476434886,-0.0002663158811628
1.772640199185546e+18,1.6075458984375,-0.0471248626708984,0.0026256777346134,-0.0062779393047094,0.0001331579405814,-0.0013315794058144,0.0
1.7726401992055363e+18,1.627536376953125,-0.0561084747314453,0.0026128962635993,-0.011501545086503,-0.0001331579405814,-0.0013315794058144,-0.0010652635246515
1.7726401992255268e+18,1.64752685546875,-0.0471258163452148,0.0121732130646705,-0.0113863851875066,-0.0003994738217443,0.0010652635246515,0.0007989476434886
1.772640199245517e+18,1.66751708984375,-0.0656909942626953,0.0072579905390739,0.0078815948218107,0.0003994738217443,0.0013315794058144,0.0
1.7726401992655073e+18,1.68750732421875,-0.0704841613769531,-0.0024948343634605,-0.0016425568610429,-0.00093210558407,0.0002663158811628,-0.0002663158811628
1.7726401992854979e+18,1.707497802734375,-0.0561113357543945,0.007068034261465,-0.0015843193978071,-0.0014647373463958,-0.0007989476434886,0.0007989476434886
1.7726401993054881e+18,1.727488037109375,-0.0423364639282226,-0.0216293707489967,0.0031576808542013,-0.0003994738217443,0.0,-0.0007989476434886
1.7726401993254784e+18,1.747478515625,-0.0375471115112304,-0.0170016102492809,-0.0021742284297943,0.0003994738217443,0.0002663158811628,0.0005326317623257
1.772640199345469e+18,1.767468994140625,-0.0704851150512695,-0.0122676976025104,0.0027232207357883,0.0006657897029072,0.0005326317623257,0.0002663158811628
1.7726401993654592e+18,1.787459228515625,-0.0609025955200195,0.0069326534867286,-0.0018547214567661,0.0001331579405814,0.0,0.0002663158811628
1.7726401993854495e+18,1.807449462890625,-0.0656929016113281,-0.002503152936697,0.0122007355093956,0.0006657897029072,0.0002663158811628,-0.0002663158811628
1.77264019940544e+18,1.82743994140625,-0.0656929016113281,-0.002465184777975,0.0038710292428731,0.0006657897029072,0.0005326317623257,0.0007989476434886
1.7726401994254303e+18,1.84743017578125,-0.042337417602539,0.0069929175078868,0.0181342139840126,0.0001331579405814,0.0,-0.0002663158811628
1.7726401994454208e+18,1.8674208984375,-0.0561122894287109,0.0021326579153537,-0.0010248180478811,-0.0006657897029072,0.0007989476434886,0.0010652635246515
1.772640199465411e+18,1.8874111328125,-0.0561122894287109,-0.0075123198330402,0.0088703781366348,0.00093210558407,-0.0002663158811628,0.0
1.7726401994854013e+18,1.9074013671875,-0.0704860687255859,0.0115761645138263,0.0089207254350185,0.00093210558407,0.0005326317623257,-0.0002663158811628
1.7726401995053919e+18,1.927391845703125,-0.0656957626342773,0.0162892043590545,-0.0005000215023756,-0.00093210558407,0.0,-0.0002663158811628
1.7726401995253821e+18,1.947382080078125,-0.0561151504516601,0.0017431490123271,-0.0005469769239425,0.0001331579405814,-0.0007989476434886,-0.0007989476434886
1.7726401995453724e+18,1.967372314453125,-0.0561151504516601,0.0016300603747367,-0.0007007997483015,-0.0001331579405814,0.0,0.0015978952869772
1.772640199565363e+18,1.987363037109375,-0.0561151504516601,0.0016654320061206,-0.000435184687376,0.00093210558407,0.0,-0.0002663158811628
1.7726401995853532e+18,2.007353271484375,-0.0519227981567382,0.0018578507006168,0.0050610937178134,-0.0001331579405814,0.0007989476434886,0.0002663158811628
1.7726401996053435e+18,2.027343505859375,-0.0519227981567382,-0.0078387819230556,-0.0104976557195186,0.0001331579405814,0.0005326317623257,-0.0005326317623257
1.772640199625334e+18,2.047333984375,-0.0752773284912109,0.0065664276480674,-0.0058029536157846,0.0006657897029072,0.0005326317623257,-0.0005326317623257
1.7726401996453243e+18,2.06732421875,-0.0656967163085937,-0.0030288659036159,0.0080228671431541,0.0006657897029072,0.0,0.0
1.7726401996653148e+18,2.087314697265625,-0.0423412322998046,0.0017455928027629,0.0078139547258615,0.00093210558407,0.0002663158811628,0.0002663158811628
1.772640199685305e+18,2.10730517578125,-0.0471305847167968,-0.0078467391431331,0.0172320865094661,0.0001331579405814,-0.0002663158811628,0.0007989476434886
1.7726401997052964e+18,2.12729638671875,-0.0423402786254882,-0.0078576356172561,0.0221160091459751,-0.0001331579405814,0.0002663158811628,0.0007989476434886
1.7726401997252882e+18,2.1472880859375,-0.0609054565429687,-0.0031284466385841,-0.0017819944769144,0.0006657897029072,-0.0002663158811628,0.0013315794058144
1.77264019974528e+18,2.167280029296875,-0.0704889297485351,0.0110130235552787,-0.0017749369144439,-0.00093210558407,0.0002663158811628,0.0005326317623257
1.7726401997652718e+18,2.187271728515625,-0.0561151504516601,-0.017683632671833,0.0269565656781196,0.00093210558407,-0.0005326317623257,0.0005326317623257
1.7726401997852636e+18,2.207263671875,-0.0704898834228515,-0.0035327970981597,0.0126313753426074,-0.0001331579405814,-0.002130527049303,0.0
1.7726401998052554e+18,2.22725537109375,-0.0609064102172851,-0.0034892484545707,-0.0107648409903049,0.0003994738217443,0.0007989476434886,-0.0002663158811628
1.7726401998252472e+18,2.247247314453125,-0.051924705505371,-0.0034503415226936,-0.0105962958186864,0.0003994738217443,0.0002663158811628,-0.0002663158811628
1.772640199845239e+18,2.267239013671875,-0.0656995773315429,0.0011152401566505,0.0134575869888067,0.0003994738217443,0.0007989476434886,0.0010652635246515
1.7726401998652308e+18,2.28723095703125,-0.0609073638916015,0.0156739614903926,0.0134512428194284,-0.0001331579405814,-0.0005326317623257,0.0002663158811628
1.7726401998852227e+18,2.30722265625,-0.0609073638916015,-0.0034508407115936,0.0135498512536287,0.0014647373463958,0.0002663158811628,0.0002663158811628
1.7726401999052145e+18,2.32721435546875,-0.0656986236572265,-0.0082507245242595,0.0039703026413917,0.0003994738217443,-0.0005326317623257,0.0007989476434886
1.7726401999252063e+18,2.347206298828125,-0.0800714492797851,-0.0034717880189418,0.0037123579531908,0.0001331579405814,0.0007989476434886,0.0002663158811628
1.772640199945198e+18,2.367197998046875,-0.0704879760742187,0.0013553984463214,0.0178682245314121,0.0001331579405814,0.0005326317623257,-0.0005326317623257
1.77264019996519e+18,2.38718994140625,-0.0609064102172851,0.0013388618826866,0.0129674542695283,0.0001331579405814,0.0,-0.0002663158811628
1.772640199985182e+18,2.407181884765625,-0.047133445739746,-0.0131958462297916,0.0177495162934064,0.0001331579405814,0.0007989476434886,0.0005326317623257
1.7726402000051738e+18,2.427173828125,-0.0471324920654296,-0.0083093084394931,0.0131620448082685,-0.0003994738217443,0.0002663158811628,0.0005326317623257
1.7726402000251656e+18,2.44716552734375,-0.0752801895141601,-0.0036312825977802,0.003685375675559,0.0001331579405814,-0.0007989476434886,0.0018642111681401
1.7726402000451574e+18,2.467157470703125,-0.0519237518310546,0.0062431022524833,-0.0010485481470823,0.0001331579405814,-0.0010652635246515,0.0007989476434886
1.7726402000651492e+18,2.487149169921875,-0.0471315383911132,0.0015918798744678,0.0131614804267883,-0.0001331579405814,-0.0010652635246515,0.0013315794058144
1.772640200085141e+18,2.50714111328125,-0.0609064102172851,-0.0178337953984737,0.0082122646272182,0.0003994738217443,-0.0002663158811628,0.0002663158811628
1.7726402001051328e+18,2.5271328125,-0.0656967163085937,0.0155706889927387,-0.0058125797659158,0.0003994738217443,0.0005326317623257,0.0007989476434886
1.7726402001251246e+18,2.54712451171875,-0.0609064102172851,0.0011289045214653,-0.0200601276010274,0.0001331579405814,0.0010652635246515,0.0002663158811628
1.7726402001451164e+18,2.567116455078125,-0.0609054565429687,-0.0084093622863292,0.003687035292387,-0.0003994738217443,0.0002663158811628,0.0
1.7726402001651082e+18,2.587108154296875,-0.0609054565429687,0.0108345746994018,0.0085281375795602,-0.0011984214652329,0.0,0.0
1.7726402001851e+18,2.60710009765625,-0.0609054565429687,0.0061837993562221,-0.001048918813467,0.0003994738217443,-0.0013315794058144,0.0
1.7726402002050913e+18,2.62709130859375,-0.0519227981567382,0.0155841708183288,-0.0066384449601173,0.0003994738217443,0.0002663158811628,0.0005326317623257
1.7726402002250824e+18,2.647082275390625,-0.047133445739746,0.0298154205083847,0.0126747302711009,0.0003994738217443,-0.0010652635246515,0.0
1.7726402002650642e+18,2.687064208984375,-0.0656967163085937,-0.0179535001516342,-0.0063723903149366,-0.00093210558407,0.0,-0.0002663158811628
1.7726402002850552e+18,2.70705517578125,-0.0609073638916015,0.0011463537812232,0.0177284050732851,-0.0006657897029072,-0.0005326317623257,0.0013315794058144
1.7726402003050463e+18,2.72704638671875,-0.0423431396484375,-0.0037611313164234,-0.0013770814985036,0.0006657897029072,-0.0002663158811628,0.0005326317623257
1.772640200345028e+18,2.767028076171875,-0.0609083175659179,0.0011102259159088,-0.005951514467597,0.00093210558407,0.0007989476434886,0.0002663158811628
1.7726402003650191e+18,2.78701904296875,-0.0423440933227539,-0.0085845254361629,-0.0011559892445802,-0.0006657897029072,0.0007989476434886,0.0005326317623257
1.77264020038501e+18,2.807010009765625,-0.0561180114746093,0.0105540305376052,-0.0013070609420537,-0.0003994738217443,-0.0002663158811628,0.0007989476434886
1.772640200424992e+18,2.846991943359375,-0.0423450469970703,0.0010474547743797,-0.0009919628500938,0.0011984214652329,0.0005326317623257,0.0013315794058144
1.7726402004449828e+18,2.866982666015625,-0.0471353530883789,0.0007179044187068,0.0084822308272123,-0.0003994738217443,0.0010652635246515,0.0007989476434886
1.7726402004649738e+18,2.886973876953125,-0.0609102249145507,0.0148526318371295,0.0035885144025087,0.0006657897029072,0.0,0.0005326317623257
1.7726402004849649e+18,2.90696484375,-0.0561199188232421,-0.0042144991457462,0.0035881511867046,0.0001331579405814,0.0,-0.0005326317623257
1.7726402005049556e+18,2.92695556640625,-0.0423460006713867,0.0005605146288871,-0.010769547894597,0.00093210558407,-0.0002663158811628,-0.0002663158811628
1.7726402005249467e+18,2.94694677734375,-0.0561199188232421,-0.0090799480676651,-0.0109103955328464,-0.0006657897029072,0.0010652635246515,0.0002663158811628
1.7726402005449377e+18,2.966937744140625,-0.0561180114746093,0.0007467716932296,-0.0015836674720048,0.0019973691087216,0.0002663158811628,0.0
1.7726402005649285e+18,2.986928466796875,-0.0609092712402343,0.0006257332861423,0.0128847584128379,0.0006657897029072,-0.0015978952869772,0.0002663158811628
1.7726402005849196e+18,3.00691943359375,-0.0423450469970703,0.0006612688302993,-0.0061648245900869,0.00093210558407,0.0005326317623257,0.0005326317623257
1.7726402006049103e+18,3.026910400390625,-0.0609102249145507,0.0101653039455413,-0.0155180469155311,-0.0003994738217443,-0.0002663158811628,0.0002663158811628
1.7726402006249014e+18,3.0469013671875,-0.0561199188232421,-0.0090491585433483,0.0132171567529439,0.0001331579405814,-0.0002663158811628,0.0005326317623257
1.7726402006448924e+18,3.066892333984375,-0.0423460006713867,-0.0089997686445713,0.0036346670240163,-0.0011984214652329,-0.0015978952869772,0.0005326317623257
1.7726402006648832e+18,3.08688330078125,-0.0561189651489257,0.0151332132518291,-0.0150149762630462,0.0003994738217443,-0.0002663158811628,-0.0005326317623257
1.7726402006848742e+18,3.106874267578125,-0.0609092712402343,-0.0087753534317016,-0.0003750957548618,0.0003994738217443,0.0010652635246515,-0.0010652635246515
1.7726402007048658e+18,3.12686572265625,-0.0752830505371093,0.0102622583508491,0.0139871761202812,0.0006657897029072,0.0,-0.0002663158811628
1.7726402007248576e+18,3.146857666015625,-0.0471353530883789,-0.008747860789299,0.0044035669416189,0.0001331579405814,0.0010652635246515,0.0005326317623257
1.7726402007448494e+18,3.166849365234375,-0.0657014846801757,-0.013540506362915,0.0093978866934776,-0.0001331579405814,0.0,0.0
1.7726402007648415e+18,3.186841552734375,-0.0561189651489257,0.0009204149246215,0.0092362351715564,-0.0011984214652329,0.0005326317623257,0.0005326317623257
1.7726402007848333e+18,3.206833251953125,-0.0609092712402343,0.0200100690126419,0.0235775299370288,-0.0001331579405814,0.0002663158811628,0.0005326317623257
1.772640200804825e+18,3.2268251953125,-0.0561189651489257,0.0104157775640487,0.0079908631742,0.00093210558407,0.0,0.0013315794058144
1.7726402008248172e+18,3.246817138671875,-0.0519266128540039,0.0103515237569808,-0.0112723559141159,-0.00093210558407,-0.0002663158811628,-0.0005326317623257
1.772640200844809e+18,3.26680908203125,-0.0471353530883789,0.0104962065815925,0.0078766103833913,-0.0001331579405814,0.0015978952869772,0.0002663158811628
1.7726402008648008e+18,3.28680078125,-0.0519266128540039,0.0103802010416984,0.0076015479862689,0.0003994738217443,-0.0007989476434886,0.0
1.7726402008847928e+18,3.306792724609375,-0.0519256591796875,0.001005183905363,0.0071449819952249,0.0001331579405814,0.0,-0.0007989476434886
1.7726402009047846e+18,3.32678466796875,-0.0704898834228515,0.0011597797274589,-0.0024410225450992,0.0,-0.0002663158811628,0.0
1.7726402009247764e+18,3.3467763671875,-0.0704889297485351,0.0059954449534416,-0.0026540085673332,0.0002663158811628,0.0002663158811628,-0.0013315794058144
1.7726402009447685e+18,3.3667685546875,-0.0704908370971679,0.0107219219207763,0.002493780106306,-0.0002663158811628,-0.0010652635246515,0.0
1.7726402009647603e+18,3.38676025390625,-0.0609092712402343,0.0016316100955009,0.0075827818363904,-0.0002663158811628,-0.0005326317623257,0.0010652635246515
1.772640200984752e+18,3.406752197265625,-0.0423450469970703,0.0200685560703277,0.0170341674238443,-0.0002663158811628,0.0,0.0005326317623257
1.7726402010047442e+18,3.426744140625,-0.0609092712402343,0.0009024515748023,0.0133663360029459,-0.0007989476434886,0.0,0.0
1.772640201024736e+18,3.446736083984375,-0.0609092712402343,-0.008618626743555,0.0277007929980754,-0.0010652635246515,0.0,-0.0010652635246515
1.7726402010447278e+18,3.466727783203125,-0.0657005310058593,-0.0037718750536441,0.0133062992244958,0.0,0.0002663158811628,0.0010652635246515
1.77264020106472e+18,3.486719970703125,-0.0656995773315429,0.0057503953576087,0.0130757074803113,0.0010652635246515,0.0015978952869772,0.0002663158811628
1.7726402010847117e+18,3.506711669921875,-0.0423431396484375,0.0105804949998855,0.0082164350897073,0.0002663158811628,0.0005326317623257,-0.0005326317623257
1.7726402011047035e+18,3.526703369140625,-0.0609073638916015,0.0059385038912296,0.0129856709390878,0.0005326317623257,-0.0007989476434886,-0.0007989476434886
1.7726402011246956e+18,3.546695556640625,-0.0561170578002929,-0.0227297656238079,0.0040951296687126,-0.0005326317623257,0.0,-0.0005326317623257
1.7726402011446874e+18,3.566687255859375,-0.0561170578002929,-0.0084001906216144,0.0040836483240127,-0.0005326317623257,-0.0002663158811628,0.0
1.7726402011646792e+18,3.58667919921875,-0.0519237518310546,0.0060688517987728,0.013590220361948,0.0005326317623257,-0.0002663158811628,0.0002663158811628
1.7726402011846712e+18,3.606671142578125,-0.0561151504516601,0.0013797134160995,0.0133585706353187,-0.0002663158811628,0.0002663158811628,-0.0002663158811628
1.7726402012046625e+18,3.62666259765625,-0.0519218444824218,0.020675029605627,0.0174193084239959,-0.0002663158811628,-0.0005326317623257,0.0002663158811628
1.7726402012246536e+18,3.646653564453125,-0.0609035491943359,0.0063979849219322,0.0124498140066862,-0.0010652635246515,-0.0002663158811628,0.0002663158811628
1.7726402012446446e+18,3.66664453125,-0.0656957626342773,0.0013956204056739,0.0173176564276218,0.0005326317623257,0.0007989476434886,-0.0005326317623257
1.7726402012646356e+18,3.6866357421875,-0.0609045028686523,-0.0032359771430492,0.0127127971500158,0.0,-0.0002663158811628,-0.0007989476434886
1.7726402012846264e+18,3.70662646484375,-0.0519218444824218,-0.0176929756999015,0.0126380547881126,-0.0007989476434886,-0.0007989476434886,-0.0007989476434886
1.7726402013046175e+18,3.726617431640625,-0.0609045028686523,-0.0079452544450759,0.0030461531132459,-0.0007989476434886,-0.0007989476434886,0.0002663158811628
1.7726402013246085e+18,3.7466083984375,-0.0423402786254882,-0.003151498734951,0.0078206080943346,-0.0007989476434886,-0.0010652635246515,0.0007989476434886
1.7726402013445996e+18,3.766599609375,-0.0561122894287109,-0.0078817643225193,0.0172171704471111,0.0010652635246515,-0.0002663158811628,-0.0005326317623257
1.7726402013645906e+18,3.786590576171875,-0.0704860687255859,0.0064822770655155,0.0125605091452598,-0.0005326317623257,0.0013315794058144,-0.0002663158811628
1.7726402013845814e+18,3.806581298828125,-0.0609045028686523,0.0112059265375137,0.0032806452363729,-0.0002663158811628,0.0007989476434886,-0.0005326317623257
1.7726402014045724e+18,3.826572509765625,-0.0656948089599609,-0.0031114779412746,-0.0023738387972116,0.0,-0.0002663158811628,-0.0005326317623257
1.7726402014245635e+18,3.8465634765625,-0.0561141967773437,-0.0031085535883903,-0.0119476579129695,-0.0007989476434886,0.0,0.0007989476434886
1.7726402014445545e+18,3.866554443359375,-0.0375480651855468,0.0016795732080936,-0.0073103308677673,0.0005326317623257,0.0,-0.0013315794058144
1.7726402014645455e+18,3.886545654296875,-0.0609035491943359,0.0017287842929363,0.0025227647274732,-0.0010652635246515,-0.0005326317623257,0.0002663158811628
1.7726402014845366e+18,3.90653662109375,-0.0561141967773437,0.0111906751990318,-0.0022205580025911,0.0013315794058144,0.0015978952869772,0.0
1.7726402015045274e+18,3.92652734375,-0.0752773284912109,0.0206929519772529,0.0118690431118011,-0.0007989476434886,-0.0007989476434886,-0.0010652635246515
1.7726402015245184e+18,3.946518310546875,-0.0656957626342773,0.0061547718942165,0.0166319608688354,0.0002663158811628,0.0,0.0005326317623257
1.7726402015445094e+18,3.966509521484375,-0.0609045028686523,-0.0129412300884723,0.0167072527110576,0.0002663158811628,-0.0007989476434886,0.0
1.7726402015645005e+18,3.98650048828125,-0.0704870223999023,0.0061615481972694,0.002168133854866,-0.0010652635246515,0.0007989476434886,0.0
1.7726402015844915e+18,4.006491455078125,-0.0561132431030273,0.0015240162611007,-0.0027832929044961,0.0007989476434886,0.0007989476434886,0.0002663158811628
1.7726402016044823e+18,4.026482421875,-0.047128677368164,0.0062013268470764,0.0071721822023391,0.0010652635246515,-0.0018642111681401,-0.0007989476434886
1.7726402016244733e+18,4.046473388671875,-0.0656938552856445,-0.0225154943764209,-0.0071981623768806,-0.0002663158811628,0.0002663158811628,0.0002663158811628
1.7726402016444644e+18,4.06646435546875,-0.0423383712768554,0.011162132024765,-0.0024106912314891,0.0002663158811628,0.0,-0.0002663158811628
1.7726402016644554e+18,4.086455322265625,-0.0519189834594726,0.0017338432371616,0.0119919069111347,0.0002663158811628,0.0,-0.0002663158811628
1.7726402016844465e+18,4.106446533203125,-0.0561122894287109,-0.0174075663089752,-0.0021239593625068,-0.0005326317623257,-0.0010652635246515,0.0
1.772640201704437e+18,4.12643701171875,-0.0609025955200195,-0.0030829757452011,0.0025023613125085,0.0,-0.0005326317623257,-0.0010652635246515
1.772640201724427e+18,4.146427001953125,-0.0609025955200195,-0.0078646726906299,-0.0065851639956235,0.0,-0.0002663158811628,-0.0005326317623257
1.772640201744417e+18,4.1664169921875,-0.0609016418457031,-0.0030184462666511,0.0127108078449964,0.0002663158811628,-0.0002663158811628,0.0007989476434886
1.7726402017644073e+18,4.1864072265625,-0.0609006881713867,-0.0030156709253787,-0.0069212988018989,-0.0013315794058144,0.0,-0.0002663158811628
1.7726402017843973e+18,4.206397216796875,-0.0656919479370117,-0.0078488364815711,0.0073302686214447,-0.0005326317623257,0.0002663158811628,-0.0007989476434886
1.7726402018043876e+18,4.2263876953125,-0.0423364639282226,0.0160827189683914,0.0061693079769611,0.0005326317623257,0.0007989476434886,0.0013315794058144
1.7726402018243776e+18,4.246377685546875,-0.0561113357543945,0.0112754479050636,0.0014743003994226,0.0002663158811628,-0.0002663158811628,-0.0002663158811628
1.772640201844368e+18,4.266367919921875,-0.0609016418457031,0.0065789781510829,0.0111904833465814,-0.0007989476434886,-0.0002663158811628,-0.0013315794058144
1.772640201864358e+18,4.28635791015625,-0.0561113357543945,-0.0079929828643798,-0.0039401054382324,0.0002663158811628,-0.0005326317623257,-0.0002663158811628
1.7726402018843482e+18,4.30634814453125,-0.0609006881713867,0.0160951875150203,-0.0087253339588642,0.0005326317623257,-0.0010652635246515,-0.0010652635246515
1.7726402019043382e+18,4.326338134765625,-0.0519189834594726,-0.002519279718399,0.0006921980530023,-0.0005326317623257,-0.0005326317623257,0.0002663158811628
1.7726402019243284e+18,4.346328369140625,-0.0471277236938476,-0.0025165937840938,0.0008409693837165,0.0002663158811628,0.0,-0.0005326317623257
1.7726402019443185e+18,4.366318359375,-0.0704822540283203,0.0024787336587905,-0.0136242285370826,-0.0002663158811628,0.0013315794058144,0.0007989476434886
1.7726402019643085e+18,4.38630859375,-0.0561113357543945,-0.0024657808244228,-0.0037296675145626,0.0002663158811628,-0.0002663158811628,-0.0007989476434886
1.7726402019842988e+18,4.406298828125,-0.0609016418457031,-0.0073511451482772,0.0010013245046138,0.0002663158811628,-0.0005326317623257,-0.0002663158811628
1.7726402020042888e+18,4.426288818359375,-0.0561113357543945,-0.0079848766326904,0.0117053892463445,-0.0005326317623257,-0.0007989476434886,-0.0002663158811628
1.772640202024279e+18,4.446279052734375,-0.0704841613769531,-0.0032417476177215,-0.0026175901293754,0.0002663158811628,0.0005326317623257,0.0002663158811628
1.772640202044269e+18,4.46626904296875,-0.0609016418457031,-0.0031856633722782,-0.0025684051215648,-0.0005326317623257,0.0005326317623257,-0.0005326317623257
1.7726402020642593e+18,4.48625927734375,-0.0561122894287109,0.0014977045357227,0.0071006175130605,-0.0005326317623257,-0.0005326317623257,0.0005326317623257
1.7726402020842493e+18,4.506249267578125,-0.0423402786254882,-0.0084385983645915,0.0265318267047405,0.0010652635246515,0.0013315794058144,0.0007989476434886
1.7726402021042396e+18,4.526239501953125,-0.0800685882568359,0.0013495683670043,0.0080004073679447,0.0,0.0,0.0
1.7726402021242296e+18,4.546229736328125,-0.0704851150512695,0.0015553161501884,-0.0014819204807281,0.0007989476434886,-0.0002663158811628,0.0007989476434886
1.77264020216421e+18,4.5862099609375,-0.0609025955200195,0.0110784359276294,0.0030313916504383,0.0002663158811628,0.0002663158811628,0.0
1.7726402021842e+18,4.606199951171875,-0.0656938552856445,-0.0175370946526527,0.0031770002096891,-0.0005326317623257,0.0,0.0005326317623257
1.7726402022041902e+18,4.626190185546875,-0.0704851150512695,-0.0077877752482891,0.0020733512938022,0.0018642111681401,0.0018642111681401,-0.0002663158811628
1.7726402022241807e+18,4.6461806640625,-0.0471277236938476,0.0017905868589878,-0.0033704061061143,0.0,0.0005326317623257,-0.0007989476434886
1.772640202244171e+18,4.6661708984375,-0.037546157836914,0.0019950196146965,-0.012940440326929,-0.0007989476434886,0.0007989476434886,0.0
1.7726402022641615e+18,4.68616162109375,-0.0519189834594726,0.0025887414813041,-0.0034651719033718,-0.0007989476434886,-0.0002663158811628,-0.0005326317623257
1.7726402022841518e+18,4.70615185546875,-0.0561122894287109,0.0069503672420978,0.0059961695224046,0.0002663158811628,-0.0005326317623257,0.0
1.772640202304142e+18,4.72614208984375,-0.0656938552856445,0.011775080114603,-0.0034823045134544,-0.0007989476434886,-0.0005326317623257,-0.0007989476434886
1.7726402023241326e+18,4.746132568359375,-0.0561122894287109,0.0118608027696609,-0.0080582927912473,0.0002663158811628,0.0007989476434886,0.0007989476434886
1.772640202344123e+18,4.766122802734375,-0.0752754211425781,-0.0120041519403457,0.0104317665100097,-0.0010652635246515,0.0002663158811628,0.0
1.7726402023641134e+18,4.786113525390625,-0.0561122894287109,0.0022859312593936,-0.0181884355843067,-0.0005326317623257,0.0,-0.0005326317623257
1.7726402023841037e+18,4.806103759765625,-0.0704851150512695,-0.0072066038846969,-0.008651178330183,-0.0005326317623257,0.0002663158811628,-0.0018642111681401
1.7726402024040942e+18,4.82609423828125,-0.0561122894287109,-0.0078330859541893,-0.0073962099850177,0.0013315794058144,-0.0015978952869772,0.0002663158811628
1.7726402024240845e+18,4.84608447265625,-0.047128677368164,0.0114163905382156,-0.0120708364993333,0.0010652635246515,0.0002663158811628,-0.0005326317623257
1.772640202444075e+18,4.866074951171875,-0.0656938552856445,-0.002900406718254,-0.0074316933751106,-0.0005326317623257,0.0007989476434886,0.0007989476434886
1.7726402024640653e+18,4.886065185546875,-0.0609016418457031,-0.0029487274587154,0.0019836351275444,0.0,0.0002663158811628,0.0002663158811628
1.7726402024840558e+18,4.906055908203125,-0.047128677368164,0.0016300417482852,-0.0173681993037462,-0.00093210558407,0.0007989476434886,0.0002663158811628
1.772640202504046e+18,4.926046142578125,-0.051919937133789,0.0254912637174129,-0.0364290848374366,0.00093210558407,-0.0005326317623257,0.0
1.7726402025240364e+18,4.946036376953125,-0.0471305847167968,0.0157226473093032,0.001998446881771,-0.0001331579405814,-0.0002663158811628,0.0005326317623257
1.772640202544027e+18,4.96602685546875,-0.0609035491943359,0.0015477575361728,-0.021916365250945,-0.0005326317623257,0.0007989476434886,0.0007989476434886
1.7726402025640172e+18,4.98601708984375,-0.0656948089599609,-0.003298670053482,-0.01181635633111,0.0,0.0,-0.0002663158811628
1.7726402025840077e+18,5.006007568359375,-0.0519218444824218,0.0109433867037296,-0.0069052893668413,-0.0002663158811628,0.0,-0.0005326317623257
1.772640202603998e+18,5.025998046875,-0.0471305847167968,-0.0033808834850788,-0.0075922459363937,0.0005326317623257,-0.002130527049303,0.0010652635246515
1.7726402026239885e+18,5.045988525390625,-0.0656948089599609,0.0015552714467048,0.006825778633356,0.0010652635246515,-0.0002663158811628,-0.0010652635246515
1.7726402026439788e+18,5.065978759765625,-0.0752763748168945,0.0014398768544197,0.0163855012506246,0.0,0.0002663158811628,0.0
1.7726402026639693e+18,5.08596923828125,-0.0561122894287109,0.0013769268989562,-0.0031859017908573,0.0,0.0,-0.0006657897029072
1.7726402026839596e+18,5.10595947265625,-0.0471296310424804,0.0012620165944099,-0.0223080422729253,-0.0010652635246515,0.0002663158811628,-0.0003994738217443
1.7726402027039503e+18,5.125950439453125,-0.0609035491943359,0.0155485644936561,0.0015445277094841,0.0013315794058144,0.0,-0.0003994738217443
1.7726402027239414e+18,5.14594140625,-0.0656957626342773,0.0010088197886943,0.0111649483442306,-0.0002663158811628,0.0,-0.0006657897029072
1.7726402027439322e+18,5.16593212890625,-0.0656948089599609,-0.0130892619490623,-0.0031969472765922,0.0002663158811628,-0.0002663158811628,-0.00093210558407
1.7726402027639232e+18,5.185923095703125,-0.0231761932373046,-0.0132325328886508,0.0112673379480838,-0.0007989476434886,0.0,-0.0014647373463958
1.7726402027839142e+18,5.205914306640625,-0.051919937133789,-0.0082796290516853,0.0108886566013097,0.0007989476434886,-0.0010652635246515,0.0001331579405814
1.7726402028039053e+18,5.2259052734375,-0.051919937133789,0.0059706196188926,-0.0179261658340692,-0.0002663158811628,-0.0007989476434886,0.0001331579405814
1.772640202823896e+18,5.24589599609375,-0.0609035491943359,0.0011682994663715,-0.0080662611871957,0.0002663158811628,-0.0005326317623257,-0.0003994738217443
1.772640202843887e+18,5.26588720703125,-0.0519218444824218,-0.0085125640034675,0.0065091159194707,0.0005326317623257,0.0002663158811628,-0.0003994738217443
1.7726402028638781e+18,5.285878173828125,-0.0327587127685546,-0.0039848163723945,0.0209561418741941,0.0002663158811628,0.0002663158811628,0.0001331579405814
1.7726402028838692e+18,5.305869140625,-0.051924705505371,-0.004142876714468,0.0204846709966659,-0.0007989476434886,0.0005326317623257,0.0003994738217443
1.77264020290386e+18,5.32585986328125,-0.051924705505371,-0.0040940195322036,0.0110477320849895,0.0005326317623257,-0.0013315794058144,0.0006657897029072
1.772640202923851e+18,5.34585107421875,-0.0656976699829101,-0.0088759325444698,0.006093606352806,-0.0002663158811628,-0.0007989476434886,-0.0003994738217443
1.772640202943842e+18,5.365842041015625,-0.0561161041259765,0.010314505547285,0.0060367826372385,0.0,0.0002663158811628,-0.0011984214652329
1.772640202963833e+18,5.3858330078125,-0.032759666442871,0.0006717965006828,-0.0130975656211376,0.0002663158811628,0.0007989476434886,-0.0006657897029072
1.772640202983824e+18,5.405823974609375,-0.0561170578002929,0.0053929649293422,0.0011219382286071,0.0013315794058144,0.0015978952869772,-0.0001331579405814
1.772640203003815e+18,5.42581494140625,-0.0609064102172851,0.001242958009243,-0.013222549110651,0.0010652635246515,0.0,-0.0006657897029072
1.772640203023806e+18,5.445805908203125,-0.047133445739746,0.0011287219822406,-0.0085152015089988,-0.0005326317623257,0.0010652635246515,0.0003994738217443
1.772640203043797e+18,5.465796875,-0.0656976699829101,-0.013156984001398,0.0106367859989404,0.0005326317623257,-0.0002663158811628,0.0003994738217443
1.772640203063788e+18,5.4857880859375,-0.0609054565429687,0.0013879984617233,0.0052952114492654,0.0,-0.0002663158811628,-0.0001331579405814
1.7726402030837788e+18,5.50577880859375,-0.0752801895141601,0.0011945404112339,0.0053425747901201,-0.0002663158811628,-0.0005326317623257,0.0017310532275587
1.7726402031037699e+18,5.525769775390625,-0.0609064102172851,0.001157984137535,0.0099122989922761,0.0005326317623257,0.0002663158811628,0.0014647373463958
1.772640203123761e+18,5.545760986328125,-0.027968406677246,-0.008339162915945,0.0050141662359237,-0.0002663158811628,-0.0007989476434886,0.0003994738217443
1.772640203143752e+18,5.565751953125,-0.0609025955200195,-0.0078373849391937,-0.0190063156187534,0.0005326317623257,-0.0005326317623257,0.00093210558407
1.7726402031637427e+18,5.58574267578125,-0.0519208908081054,0.0160548537969589,5.84460794925e-05,0.0,0.0002663158811628,0.0017310532275587
1.7726402031837338e+18,5.605733642578125,-0.0704851150512695,-0.012702602893114,0.0143069718033075,-0.0006657897029072,-0.0002663158811628,0.0001331579405814
1.7726402032037248e+18,5.625724853515625,-0.0609025955200195,-0.0084389746189117,0.0060731638222932,0.0003994738217443,0.0002663158811628,0.0003994738217443
1.7726402032237164e+18,5.64571630859375,-0.0561122894287109,0.0061234980821609,0.0012849662452936,-0.0003994738217443,-0.0002663158811628,-0.0006657897029072
1.772640203243708e+18,5.6657080078125,-0.0752754211425781,0.0013220347464084,0.0109047405421733,0.0003994738217443,-0.0013315794058144,0.0001331579405814
1.7726402032636995e+18,5.685699462890625,-0.0656957626342773,0.0106157697737216,0.0015344526618719,-0.0014647373463958,0.0002663158811628,0.00093210558407
1.772640203283691e+18,5.70569091796875,-0.0656948089599609,0.001127652823925,0.0206657089293003,-0.00093210558407,-0.0002663158811628,0.0006657897029072
1.7726402033036826e+18,5.7256826171875,-0.0561141967773437,0.0010652169585227,-0.0031736865639686,-0.0001331579405814,-0.0010652635246515,0.0001331579405814
1.7726402033236739e+18,5.745673828125,-0.0561141967773437,-0.01828333735466,0.0016188770532608,-0.0006657897029072,0.0005326317623257,-0.0001331579405814
1.7726402033436654e+18,5.76566552734375,-0.0704879760742187,-0.0087978988885879,0.0016215462237596,-0.0005326317623257,0.0002663158811628,-0.0006657897029072
1.772640203363657e+18,5.785656982421875,-0.0519227981567382,0.0056087337434291,-0.0126709807664155,-0.0002663158811628,-0.0005326317623257,0.0003994738217443
1.7726402033836485e+18,5.8056484375,-0.0471315383911132,0.0057470425963401,0.0064870100468397,0.0002663158811628,0.0007989476434886,0.0001331579405814
1.77264020340364e+18,5.82564013671875,-0.0704870223999023,0.0008948743343353,0.01578557677567,0.0002663158811628,0.0007989476434886,-0.0001331579405814
1.7726402034236316e+18,5.845631591796875,-0.0561132431030273,0.0058760195970535,0.0060937572270631,0.0002663158811628,0.0005326317623257,0.0001331579405814
1.772640203443623e+18,5.865622802734375,-0.0561122894287109,-0.0180020593106746,-0.0082068741321563,0.0015978952869772,-0.0005326317623257,-0.0006657897029072
1.7726402034636145e+18,5.885614501953125,-0.0609035491943359,-0.0083609893918037,0.0158804059028625,0.0,0.0007989476434886,-0.0003994738217443
1.772640203483606e+18,5.90560595703125,-0.0656967163085937,0.0010015480220317,0.0162206552922725,0.0,-0.0007989476434886,0.00093210558407
1.7726402035035976e+18,5.92559765625,-0.0609054565429687,0.0055130906403064,-0.0078187324106693,-0.0005326317623257,0.0007989476434886,0.0006657897029072
1.772640203523589e+18,5.945589111328125,-0.0656967163085937,0.0008168593049049,-0.022249799221754,0.0005326317623257,-0.0010652635246515,0.0006657897029072
1.7726402035435807e+18,5.96558056640625,-0.047133445739746,-0.0042358972132205,-0.012535223737359,-0.0010652635246515,-0.0005326317623257,0.0011984214652329
1.772640203563572e+18,5.985572021484375,-0.051924705505371,-0.0042356848716735,0.0016842260956764,-0.0002663158811628,0.0002663158811628,0.00093210558407
1.7726402035835635e+18,6.0055634765625,-0.0752801895141601,-0.0042884573340415,-0.0076179392635822,-0.0010652635246515,0.0002663158811628,-0.0001331579405814
1.772640203603555e+18,6.02555517578125,-0.0609064102172851,0.0012478791177272,-0.0035700462758541,0.0007989476434886,0.0015978952869772,-0.0006657897029072
1.7726402036235466e+18,6.045546630859375,-0.0375518798828125,0.0011847279965877,0.0011192075908184,0.0013315794058144,0.0005326317623257,0.0001331579405814
1.7726402036435382e+18,6.0655380859375,-0.0561170578002929,0.0059820227324962,0.0059559755027294,0.0005326317623257,-0.0010652635246515,0.0001331579405814
1.7726402036635297e+18,6.08552978515625,-0.0609073638916015,-0.00352343916893,0.000726206228137,0.0007989476434886,-0.0002663158811628,-0.0001331579405814
1.7726402036835213e+18,6.105521240234375,-0.0561180114746093,-0.0038119293749332,0.0006776694208383,0.0002663158811628,0.0,0.0003994738217443
1.7726402037035123e+18,6.12551220703125,-0.0752801895141601,0.0059334374964237,0.0056197848170995,-0.0002663158811628,0.0005326317623257,0.0006657897029072
1.772640203723503e+18,6.145503173828125,-0.0561170578002929,0.0011581294238567,0.0104484055191278,-0.0002663158811628,0.0005326317623257,0.0003994738217443
1.772640203743494e+18,6.165493896484375,-0.0561170578002929,-0.0034520328044891,-0.0133718587458133,-0.0002663158811628,0.0,-0.0001331579405814
1.7726402037634847e+18,6.185484619140625,-0.0656976699829101,-0.0081577226519584,-0.0085601545870304,0.0010652635246515,-0.0005326317623257,-0.0003994738217443
1.7726402037834752e+18,6.20547509765625,-0.0561170578002929,0.0157849676907062,-0.0230403877794742,-0.0011984214652329,0.0002663158811628,-0.0003994738217443
1.772640203803466e+18,6.225466064453125,-0.0471324920654296,0.0056495331227779,-0.017171736806631,0.0006657897029072,0.0002663158811628,-0.0001331579405814
1.7726402038234568e+18,6.245456787109375,-0.0519237518310546,-0.0088712126016616,0.0018894840031862,0.0003994738217443,-0.0005326317623257,-0.0001331579405814
1.7726402038434476e+18,6.265447509765625,-0.0519227981567382,-0.0183221101760864,-0.0126632768660783,-0.00093210558407,0.0013315794058144,0.0003994738217443
1.7726402038634383e+18,6.285438232421875,-0.0656967163085937,-0.0040019527077674,0.001555074006319,-0.0001331579405814,0.0007989476434886,-0.0001331579405814
1.772640203883429e+18,6.30542919921875,-0.0656967163085937,0.0007793046534061,-0.0077977553009986,-0.00093210558407,-0.0002663158811628,-0.0011984214652329
1.77264020390342e+18,6.325419921875,-0.047133445739746,0.0053433813154697,0.001891354098916,-0.0003994738217443,-0.0005326317623257,0.0001331579405814
1.7726402039234107e+18,6.34541064453125,-0.0279703140258789,-0.0042391158640384,-0.002889160066843,0.0001331579405814,-0.0005326317623257,-0.0006657897029072
1.7726402039434015e+18,6.3654013671875,-0.0609083175659179,0.0195650048553943,-0.0266825482249259,0.0,-0.0013315794058144,-0.0001331579405814
1.7726402039633923e+18,6.385392333984375,-0.0561189651489257,-0.0093799345195293,0.0019596852362155,0.0005326317623257,0.0,-0.0001331579405814
1.772640203983383e+18,6.405383056640625,-0.0657014846801757,-0.0094735585153102,0.0123313535004854,-0.0010652635246515,-0.0002663158811628,-0.0001331579405814
1.7726402040033738e+18,6.425373779296875,-0.0609102249145507,-0.00473353266716,0.0118715465068817,0.0010652635246515,0.0007989476434886,0.00093210558407
1.7726402040233646e+18,6.445364501953125,-0.0657014846801757,-0.0046283267438411,-0.0072209537029266,0.0002663158811628,0.0005326317623257,0.0003994738217443
1.7726402040433554e+18,6.46535546875,-0.0657005310058593,-0.0045751705765724,-0.0025241151452064,0.0,-0.0002663158811628,0.0001331579405814
1.7726402040633462e+18,6.48534619140625,-0.0561180114746093,-0.0091997720301151,0.0109199918806552,0.0015978952869772,0.0010652635246515,0.0001331579405814
1.7726402040833367e+18,6.505336669921875,-0.0561170578002929,-0.0043565221130847,0.0301336571574211,0.0,0.0002663158811628,0.0003994738217443
1.7726402041033275e+18,6.525327392578125,-0.0609083175659179,-0.0043562687933444,0.0252455342561006,0.0010652635246515,-0.0002663158811628,0.00093210558407
1.7726402041233183e+18,6.545318359375,-0.0609083175659179,-0.0043555907905101,0.011013152077794,0.0002663158811628,0.0013315794058144,0.0001331579405814
1.772640204143309e+18,6.56530908203125,-0.0561189651489257,-0.0046161040663719,0.0011724922806024,-0.0010652635246515,-0.0005326317623257,0.0001331579405814
1.7726402041632998e+18,6.5852998046875,-0.0519256591796875,-0.0045111216604709,-0.0035542044788599,0.0,-0.0013315794058144,-0.0003994738217443
1.7726402041832906e+18,6.60529052734375,-0.0561189651489257,-0.0046671740710735,0.0106974244117736,-0.0002663158811628,-0.0002663158811628,-0.0014647373463958
1.7726402042032814e+18,6.625281494140625,-0.0561189651489257,0.00962545722723,0.0018716342747211,-0.0005326317623257,0.0002663158811628,0.0003994738217443
1.7726402042232722e+18,6.645272216796875,-0.0609102249145507,0.0095980390906333,0.0115921422839164,0.0013315794058144,-0.0002663158811628,0.00093210558407
1.772640204243263e+18,6.665262939453125,-0.0704927444458007,0.0096226893365383,0.011834418401122,0.0002663158811628,-0.0007989476434886,-0.0003994738217443
1.7726402042632538e+18,6.685253662109375,-0.0609092712402343,0.005022469907999,0.0070868413895368,-0.0005326317623257,0.0010652635246515,-0.0003994738217443
1.7726402042832445e+18,6.70524462890625,-0.0471363067626953,-0.009375799447298,-0.0072733201086521,0.0010652635246515,-0.0005326317623257,-0.0006657897029072
1.7726402043032353e+18,6.7252353515625,-0.0609102249145507,0.0145577602088451,-0.0070522297173738,0.0,0.0010652635246515,-0.0006657897029072
1.772640204323226e+18,6.74522607421875,-0.0609102249145507,0.0049743205308914,-0.0022059325128793,-0.0005326317623257,0.0010652635246515,0.0003994738217443
1.772640204343217e+18,6.765216796875,-0.0609121322631835,-0.0094234459102153,0.0027864947915077,-0.0002663158811628,0.0005326317623257,0.0003994738217443
1.7726402043632077e+18,6.785207763671875,-0.0657024383544921,0.0051037818193435,0.0077161379158496,-0.0007989476434886,0.0002663158811628,-0.0003994738217443
1.7726402043831985e+18,6.805198486328125,-0.0423469543457031,0.0003201328217983,0.0173132326453924,0.0007989476434886,0.0005326317623257,0.0011984214652329
1.7726402044031892e+18,6.825189208984375,-0.0519294738769531,-0.0094435550272464,0.0215637255460023,0.0,0.0,-0.0003994738217443
1.77264020442318e+18,6.845179931640625,-0.0704946517944336,-0.0087144896388053,-0.0118468906730413,0.0,0.0005326317623257,0.0001331579405814
1.7726402044431708e+18,6.8651708984375,-0.0561199188232421,-0.0229283683001995,0.011872075498104,-0.0010652635246515,0.0015978952869772,0.0003994738217443
1.7726402044631616e+18,6.88516162109375,-0.0752830505371093,-0.0131547860801219,0.0120015889406204,0.0002663158811628,0.0002663158811628,0.0003994738217443
1.7726402044831524e+18,6.90515234375,-0.0752830505371093,-0.0042071938514709,0.0168079156428575,0.0005326317623257,0.0002663158811628,0.0001331579405814
1.7726402045031432e+18,6.92514306640625,-0.0704927444458007,-0.0131026953458786,0.0119383074343204,0.0,0.0010652635246515,-0.0003994738217443
1.772640204523134e+18,6.945134033203125,-0.0471353530883789,-0.0042071864008903,-0.0169828757643699,0.0,-0.0007989476434886,-0.0006657897029072
1.7726402045431247e+18,6.965124755859375,-0.0375547409057617,0.0099959522485733,-0.0072841569781303,-0.0010652635246515,-0.0002663158811628,-0.0003994738217443
1.7726402045631155e+18,6.985115478515625,-0.0471372604370117,0.0002644099295139,0.0164773054420948,0.0002663158811628,0.0015978952869772,-0.0003994738217443
1.7726402045831063e+18,7.005106201171875,-0.0657024383544921,0.0049487054347991,0.0116077810525894,-0.0005326317623257,-0.0005326317623257,0.0003994738217443
1.772640204603097e+18,7.02509716796875,-0.0800743103027343,-0.004458948969841,0.0123355370014905,0.0007989476434886,-0.0005326317623257,0.0001331579405814
1.772640204623088e+18,7.045088134765625,-0.0375547409057617,-0.0044938139617443,-0.0020347516983747,0.0005326317623257,-0.0002663158811628,-0.0001331579405814
1.772640204643079e+18,7.065078857421875,-0.0519285202026367,0.0144392400979995,-0.0021886378526687,0.0005326317623257,-0.0010652635246515,-0.0001331579405814
1.7726402046630697e+18,7.085069580078125,-0.0704946517944336,-0.0047062747180461,0.0074804332107305,0.0005326317623257,0.0002663158811628,-0.0011984214652329
1.7726402046830605e+18,7.105060546875,-0.0231828689575195,-0.0142511203885078,0.0074102617800235,0.0,0.0002663158811628,0.0003994738217443
1.772640204703051e+18,7.125051025390625,-0.0231819152832031,7.70166516304e-05,0.0166941713541746,-0.0002663158811628,0.0002663158811628,0.0003994738217443
1.7726402047230413e+18,7.145041259765625,-0.0519294738769531,0.009490966796875,0.0167624130845069,0.0,-0.0002663158811628,0.0003994738217443
1.7726402047430316e+18,7.165031494140625,-0.0848665237426757,0.0143119543790817,-0.007232179865241,0.0007989476434886,-0.0005326317623257,0.0006657897029072
1.7726402047630218e+18,7.185021728515625,-0.056121826171875,-0.0097192786633968,-0.0070635545998811,0.0,0.0005326317623257,0.0006657897029072
1.772640204783012e+18,7.20501220703125,-0.0609121322631835,0.0047036446630954,-0.0020620599389076,0.0005326317623257,-0.0010652635246515,-0.00093210558407
1.7726402048030024e+18,7.22500244140625,-0.0561227798461914,0.0141072012484073,0.0169594567269086,0.0005326317623257,-0.0002663158811628,0.0001331579405814
1.7726402048229926e+18,7.24499267578125,-0.0609121322631835,0.009460911154747,0.0128424167633056,0.0,0.0002663158811628,-0.0001331579405814
1.772640204842983e+18,7.26498291015625,-0.0375566482543945,0.0047718435525894,-0.0062064528465271,0.0002663158811628,0.0,-0.0003994738217443
1.7726402048629734e+18,7.284973388671875,-0.0609130859375,0.0046657659113407,-0.0013100802898406,0.0002663158811628,0.0007989476434886,-0.00093210558407
1.7726402048829637e+18,7.304963623046875,-0.0183935165405273,0.004560187458992,-0.0012035388499498,0.0,0.0002663158811628,-0.0001331579405814
1.772640204902954e+18,7.3249541015625,-0.0519304275512695,0.0141202360391616,-0.0012548621743917,-0.0005326317623257,0.0,0.0003994738217443
1.7726402049229443e+18,7.3449443359375,-0.0561227798461914,0.0143067277967929,-0.0252101514488458,0.0,0.0005326317623257,-0.0006657897029072
1.7726402049429345e+18,7.3649345703125,-0.0423488616943359,-0.0097764171659946,-0.0107649285346269,0.0,0.0005326317623257,-0.0003994738217443
1.7726402049629248e+18,7.3849248046875,-0.0375585556030273,0.0045423321425914,-0.0202535223215818,0.0002663158811628,0.0005326317623257,0.0011984214652329
1.772640204982915e+18,7.4049150390625,-0.0657052993774414,-0.009957917034626,-0.005974793806672,0.0005326317623257,0.0007989476434886,0.0011984214652329
1.7726402050029053e+18,7.4249052734375,-0.0657052993774414,-0.0098765380680561,-0.0351940840482711,-0.0005326317623257,-0.0002663158811628,0.0001331579405814
1.7726402050228956e+18,7.4448955078125,-0.0471401214599609,-0.0097426362335681,-0.006435552611947,-0.0005326317623257,0.0002663158811628,-0.0003994738217443
1.772640205042886e+18,7.464885986328125,-0.0327672958374023,0.0044199861586093,-0.0160888079553842,0.0007989476434886,-0.0007989476434886,-0.0003994738217443
1.7726402050628762e+18,7.484876220703125,-0.0704975128173828,0.0091989338397979,-0.0112762581557035,0.0007989476434886,0.0010652635246515,-0.0001331579405814
1.7726402050828667e+18,7.50486669921875,-0.0519323348999023,-0.0099873654544353,0.0032445285469293,0.0002663158811628,-0.0010652635246515,-0.0006657897029072
1.772640205102857e+18,7.52485693359375,-0.0279779434204101,-0.0098017007112503,-0.0013886205852031,-0.0007989476434886,0.0005326317623257,0.0006657897029072
1.7726402051228472e+18,7.54484716796875,-0.0519313812255859,-0.0097728446125984,-0.001440392807126,0.0005326317623257,0.0002663158811628,0.0001331579405814
1.7726402051428375e+18,7.56483740234375,-0.0561237335205078,-0.0137706398963928,-0.0156774837523698,0.0005326317623257,-0.0007989476434886,0.0006657897029072
1.7726402051628278e+18,7.584827880859375,-0.0561227798461914,0.0096245594322681,0.0219491366297006,0.0002663158811628,0.0,0.0001331579405814
1.772640205182818e+18,7.604818115234375,-0.0423498153686523,0.0142886042594909,0.0171722657978534,0.0,0.0010652635246515,-0.0001331579405814
1.7726402052028086e+18,7.62480859375,-0.0471401214599609,0.0142656825482845,-0.0061719380319118,-0.0010652635246515,-0.0002663158811628,-0.0006657897029072
1.772640205222799e+18,7.644799072265625,-0.0609140396118164,0.0093582607805728,-0.0014316774904727,0.0002663158811628,0.0002663158811628,0.0001331579405814
1.7726402052427896e+18,7.66478955078125,-0.0471420288085937,-0.0052568651735782,0.0033488739281892,-0.0010652635246515,0.0007989476434886,-0.0006657897029072
1.7726402052627804e+18,7.684780517578125,-0.0471429824829101,-0.0101224891841411,-0.0012331213802099,0.0002663158811628,-0.0005326317623257,0.0003994738217443
1.772640205282771e+18,7.70477099609375,-0.0423526763916015,-0.0006875246763229,-0.0107928961515426,0.0002663158811628,-0.0002663158811628,0.00093210558407
1.7726402053027615e+18,7.724761474609375,-0.0561256408691406,-0.0100301355123519,0.0179640110582113,0.0,0.0013315794058144,0.0006657897029072
1.7726402053227523e+18,7.744752197265625,-0.0519342422485351,-0.0005956515669822,0.0040222872048616,0.0007989476434886,-0.0005326317623257,0.0001331579405814
1.7726402053427428e+18,7.76474267578125,-0.056126594543457,-0.0006906017661094,0.0087916422635316,0.0013315794058144,-0.0002663158811628,-0.0014647373463958
1.7726402053627333e+18,7.7847333984375,-0.0609169006347656,-0.0150743909180164,-0.0056754276156425,0.0005326317623257,0.0002663158811628,-0.0001331579405814
1.772640205382724e+18,7.80472412109375,-0.0609149932861328,-0.0102006308734416,-0.0154344048351049,0.0,0.0010652635246515,0.0014647373463958
1.7726402054027146e+18,7.824714599609375,-0.0561246871948242,0.0041712522506713,-0.0065952073782682,0.0,-0.0005326317623257,-0.0003994738217443
1.7726402054227052e+18,7.844705078125,-0.0561246871948242,0.0042220950126647,0.0126427728682756,0.0002663158811628,-0.0002663158811628,-0.0001331579405814
1.7726402054426957e+18,7.86469580078125,-0.0327682495117187,-0.0053923390805721,0.002999922260642,0.0002663158811628,-0.0002663158811628,0.0001331579405814
1.7726402054626865e+18,7.8846865234375,-0.0519323348999023,-0.0053196959197521,0.0031484961509704,0.0007989476434886,-0.0015978952869772,0.0001331579405814
1.772640205482677e+18,7.904677001953125,-0.0471410751342773,-0.0052477680146694,0.0168308466672897,-0.0005326317623257,-0.0005326317623257,0.0001331579405814
1.7726402055026675e+18,7.92466748046875,-0.0519304275512695,-0.005019474774599,-0.0119944270700216,-0.0005326317623257,-0.0007989476434886,0.0001331579405814
1.7726402055226583e+18,7.944658203125,-0.07049560546875,0.009548831731081,-0.0262070093303918,0.0002663158811628,0.0010652635246515,0.0001331579405814
1.7726402055426488e+18,7.96464892578125,-0.065704345703125,0.0094312317669391,0.0073107834905385,0.0002663158811628,-0.0002663158811628,0.0001331579405814
1.7726402055626394e+18,7.984639404296875,-0.0609130859375,0.0046380572021007,0.0026163570582866,-0.0005326317623257,0.0007989476434886,0.0001331579405814
1.77264020558263e+18,8.0046298828125,-0.0471391677856445,0.0143002979457378,-0.0022761616855859,-0.0007989476434886,-0.0013315794058144,0.00093210558407
1.7726402056226112e+18,8.044611083984375,-0.0471401214599609,0.0093370750546455,-0.0256059374660253,-0.0007989476434886,0.0,-0.0001331579405814
1.7726402056426017e+18,8.064601806640624,-0.0609130859375,-7.99484550952e-05,0.0079627595841884,0.0,0.0013315794058144,-0.00093210558407
1.7726402056625925e+18,8.084592529296875,-0.056121826171875,0.0001366436481475,-0.001774039119482,0.0002663158811628,-0.0007989476434886,0.0001331579405814
1.772640205682583e+18,8.1045830078125,-0.0704946517944336,0.0144847966730594,0.0029554571956396,-0.0002663158811628,0.0007989476434886,0.0001331579405814
1.7726402057025738e+18,8.12457373046875,-0.0609102249145507,0.0101491287350654,-0.0113937314599752,-0.0005326317623257,0.0,-0.0006657897029072
1.7726402057225649e+18,8.14456494140625,-0.0471353530883789,-0.0135583169758319,-0.0017059352248907,0.0002663158811628,0.0,0.0003994738217443
1.772640205742556e+18,8.164555908203125,-0.0423440933227539,-0.008687350898981,-0.0066923815757036,-0.0002663158811628,-0.0007989476434886,-0.0003994738217443
1.772640205762547e+18,8.184546875,-0.0519256591796875,0.0106169283390045,-0.0064712595194578,-0.0002663158811628,0.0002663158811628,-0.0003994738217443
1.772640205782538e+18,8.2045380859375,-0.0423450469970703,0.0152770318090915,0.0030500348657369,-0.0007989476434886,-0.0002663158811628,-0.0001331579405814
1.772640205802529e+18,8.224529052734376,-0.0519266128540039,-0.0128323100507259,-0.0023360606282949,-0.0010652635246515,-0.0005326317623257,-0.0003994738217443
1.77264020582252e+18,8.24452001953125,-0.0609092712402343,0.0057274028658866,-0.0119457449764013,-0.0015978952869772,0.0005326317623257,0.0003994738217443
1.772640205842511e+18,8.264510986328125,-0.0375537872314453,0.0009425058960914,-0.0023078024387359,-0.0010652635246515,-0.0007989476434886,-0.0001331579405814
1.772640205862502e+18,8.284501953125,-0.051924705505371,0.0059367939829826,0.0167112331837415,-0.0002663158811628,0.0005326317623257,0.0001331579405814
1.772640205882493e+18,8.304492919921875,-0.0561151504516601,-0.0077592357993125,0.0067981444299221,0.0002663158811628,-0.0002663158811628,0.0001331579405814
1.772640205922475e+18,8.34447509765625,-0.0423431396484375,0.0106379203498363,0.0068999547511339,-0.0005326317623257,0.0007989476434886,0.0003994738217443
1.772640205942466e+18,8.364466064453126,-0.0471324920654296,0.0107253231108188,0.0115570649504661,0.0002663158811628,-0.0005326317623257,0.0006657897029072
1.772640205962457e+18,8.38445703125,-0.0471324920654296,0.0010965801775455,-0.0075394660234451,0.0002663158811628,-0.0002663158811628,-0.0003994738217443
1.772640205982448e+18,8.4044482421875,-0.042342185974121,0.0013103634119033,-0.0170321781188249,-0.0010652635246515,0.0,-0.0001331579405814
1.7726402060024392e+18,8.424439208984374,-0.0423412322998046,0.0063038878142833,-0.0024986453354358,-0.0005326317623257,-0.0013315794058144,-0.0001331579405814
1.7726402060224302e+18,8.44443017578125,-0.047133445739746,0.0109144300222396,-0.0022905021905899,0.0002663158811628,0.0,0.0003994738217443
1.7726402060424212e+18,8.464421142578125,-0.0752792358398437,0.0067011006176471,0.0070545170456171,0.0002663158811628,0.0,-0.0001331579405814
1.7726402060624123e+18,8.484412353515625,-0.0656967163085937,0.0109667256474494,-0.0121967270970344,0.0,0.0002663158811628,0.0001331579405814
1.7726402060824033e+18,8.5044033203125,-0.0609064102172851,0.0019732266664505,-0.0169078577309846,0.0002663158811628,-0.0007989476434886,-0.0006657897029072
1.7726402061023944e+18,8.524394287109375,-0.0561161041259765,0.00196248665452,-0.0025932826101779,-0.0007989476434886,0.0,-0.0001331579405814
1.7726402061223852e+18,8.54438525390625,-0.0656967163085937,0.0067319795489311,-0.0170426238328218,-0.0007989476434886,0.0002663158811628,-0.0001331579405814
1.7726402061423762e+18,8.564376220703124,-0.051924705505371,-0.0077336244285106,0.0023126974701881,-0.0002663158811628,0.0026631588116288,0.0006657897029072
1.7726402061623672e+18,8.5843671875,-0.0609073638916015,-0.0268924869596958,0.0070765372365713,0.0005326317623257,-0.0015978952869772,0.00093210558407
1.7726402061823583e+18,8.604358154296875,-0.0609083175659179,-0.003125887364149,0.0072043891996145,-0.0002663158811628,-0.0007989476434886,0.0001331579405814
1.7726402062023498e+18,8.624349853515625,-0.0519266128540039,0.0057466737926006,-0.0017334371805191,-0.0002663158811628,0.0002663158811628,0.0001331579405814
1.7726402062223416e+18,8.644341552734375,-0.051924705505371,0.0153389424085617,-0.0067294016480445,-0.0005326317623257,0.0,-0.0001331579405814
1.7726402062423337e+18,8.664333740234374,-0.0609083175659179,0.0008536055684089,0.0122893899679183,0.0002663158811628,0.0002663158811628,0.0001331579405814
1.7726402062623255e+18,8.684325439453126,-0.0561170578002929,-0.0180646069347858,0.026693470776081,0.0005326317623257,0.0,-0.0001331579405814
1.7726402062823176e+18,8.704317626953125,-0.051924705505371,-0.0085210874676704,0.0026684701442718,-0.0002663158811628,0.0,-0.0001331579405814
1.7726402063023094e+18,8.724309326171875,-0.0561170578002929,-0.0037795640528202,0.0073780510574579,0.0013315794058144,0.0002663158811628,0.0003994738217443
1.7726402063223014e+18,8.744301513671875,-0.047133445739746,0.0009510405361652,0.0072974264621734,0.0006657897029072,0.0007989476434886,0.0006657897029072
1.7726402063422935e+18,8.76429345703125,-0.0423431396484375,0.0007345862686634,0.0356352254748344,-0.0002663158811628,0.0,0.0001331579405814
1.7726402063622853e+18,8.784285400390624,-0.0561170578002929,-0.0088845901191234,0.0211488138884305,0.0002663158811628,-0.0010652635246515,-0.0001331579405814
1.7726402063822774e+18,8.80427734375,-0.0752782821655273,-0.0133882798254489,-0.0068885888904333,-0.0002663158811628,0.0002663158811628,-0.0001331579405814
1.7726402064022692e+18,8.824269287109376,-0.0609073638916015,0.0056519098579883,-0.0072208791971206,-0.0002663158811628,-0.0005326317623257,0.0011984214652329
1.7726402064222612e+18,8.84426123046875,-0.0519237518310546,-0.0181093215942382,0.0120077412575483,0.0,-0.0002663158811628,-0.0006657897029072
1.772640206442253e+18,8.864253173828125,-0.0375518798828125,-0.0085650384426116,0.0026180949062108,0.0005326317623257,0.0005326317623257,0.0003994738217443
1.772640206462245e+18,8.8842451171875,-0.0561161041259765,0.0058921799063682,-0.0069594196975231,0.0007989476434886,-0.0005326317623257,0.0003994738217443
1.772640206482237e+18,8.90423681640625,-0.0561151504516601,-0.0225974842905998,0.0216184109449386,0.0005326317623257,-0.0013315794058144,0.0006657897029072
1.772640206502229e+18,8.92422900390625,-0.0471324920654296,0.0060234069824218,0.0122568719089031,-0.0007989476434886,-0.0002663158811628,0.0006657897029072
1.7726402065222208e+18,8.944220703125,-0.0471315383911132,0.0011712908744812,0.0215670373290777,-0.0002663158811628,0.0015978952869772,0.0001331579405814
1.7726402065422129e+18,8.964212890625,-0.0609054565429687,-0.0131758823990821,0.0028796549886465,0.0002663158811628,-0.0002663158811628,0.0006657897029072
1.772640206562205e+18,8.984204833984375,-0.0752792358398437,0.0106431432068347,-0.0162055492401123,-0.0013315794058144,0.0007989476434886,0.0006657897029072
1.7726402065821967e+18,9.00419677734375,-0.0609064102172851,0.0250545889139175,0.0029910989105701,0.0005326317623257,0.0005326317623257,-0.0001331579405814
1.7726402066021885e+18,9.0241884765625,-0.0471324920654296,0.0203136280179023,-0.0071322321891784,-0.0007989476434886,0.0005326317623257,-0.0006657897029072
1.7726402066221806e+18,9.0441806640625,-0.0471315383911132,0.0059720985591411,-0.0022441614419221,-0.0002663158811628,-0.0005326317623257,-0.0001331579405814
1.7726402066421727e+18,9.064172607421876,-0.0609064102172851,0.0059521570801734,-0.0068734027445316,0.0010652635246515,0.0013315794058144,-0.0001331579405814
1.7726402066621645e+18,9.08416455078125,-0.0656976699829101,-0.0227447599172592,0.0026909187436103,-0.0007989476434886,-0.0015978952869772,-0.0001331579405814
1.7726402066821565e+18,9.104156494140623,-0.0519237518310546,0.0012535601854324,0.0026734434068202,0.0005326317623257,0.0002663158811628,0.0006657897029072
1.7726402067021476e+18,9.124147705078125,-0.0471315383911132,0.0061285831034183,-0.002279806882143,-0.0005326317623257,-0.0005326317623257,-0.00093210558407
1.7726402067221379e+18,9.144137939453126,-0.0423412322998046,-0.0226213373243808,-0.0072737671434879,0.0,0.0005326317623257,-0.0006657897029072
1.7726402067421279e+18,9.1641279296875,-0.0327577590942382,-0.003455676138401,0.0020823758095502,-0.0005326317623257,0.0010652635246515,-0.0001331579405814
1.7726402067621181e+18,9.1841181640625,-0.0519227981567382,0.0012224726378917,0.0022230949252843,0.0,0.0002663158811628,-0.00093210558407
1.7726402067821082e+18,9.204108154296875,-0.0519227981567382,0.0011608488857746,-0.0022618137300014,0.0,0.0007989476434886,0.0006657897029072
1.7726402068020982e+18,9.22409814453125,-0.0471305847167968,-0.0034708231687545,0.002355758100748,-0.0002663158811628,-0.0005326317623257,0.0011984214652329
1.7726402068220884e+18,9.24408837890625,-0.0519218444824218,0.0060908831655979,-0.0073759574443101,0.0,0.0002663158811628,0.0006657897029072
1.7726402068420785e+18,9.264078369140623,-0.0471305847167968,-0.0122419670224189,-0.0030319299548864,-0.0002663158811628,-0.0013315794058144,0.0006657897029072
1.7726402068620687e+18,9.28406884765625,-0.0471305847167968,-0.0122706331312656,-0.0028798375278711,0.0,-0.0015978952869772,-0.0001331579405814
1.7726402068820588e+18,9.304058837890626,-0.0752782821655273,0.001337893307209,-0.002884330227971,0.0,0.0005326317623257,-0.0001331579405814
1.772640206902049e+18,9.324049072265623,-0.0519218444824218,0.001589361578226,0.0116058755666017,0.0007989476434886,0.0013315794058144,0.0001331579405814
1.772640206922039e+18,9.3440390625,-0.0561141967773437,0.0064628608524799,-0.0027725957334041,0.0,0.0,-0.0001331579405814
1.772640206942029e+18,9.364029052734375,-0.0561132431030273,0.0065462253987789,-0.0124392658472061,-0.0005326317623257,-0.0007989476434886,0.0003994738217443
1.7726402069620193e+18,9.384019287109377,-0.0752773284912109,0.016031440347433,0.0162034779787063,-0.0013315794058144,0.0002663158811628,0.0003994738217443
1.7726402069820093e+18,9.40400927734375,-0.0656948089599609,0.0113121010363101,0.0115302689373493,0.0005326317623257,0.0007989476434886,0.0001331579405814
1.7726402070019996e+18,9.42399951171875,-0.0561122894287109,0.0018245689570903,0.002477902919054,-0.0002663158811628,0.0002663158811628,0.0001331579405814
1.7726402070219896e+18,9.44398974609375,-0.0704851150512695,-0.0075880624353885,-0.0022672321647405,-0.0002663158811628,0.0007989476434886,-0.0001331579405814
1.77264020704198e+18,9.46397998046875,-0.051919937133789,-0.007732018828392,0.0023495517671108,-0.0005326317623257,-0.0010652635246515,0.0001331579405814
1.77264020706197e+18,9.483969970703123,-0.051919937133789,-0.0028876103460788,0.0070076361298561,-0.0005326317623257,0.0,0.0011984214652329
1.7726402070819602e+18,9.503960205078124,-0.0609035491943359,0.006568145006895,-0.0023709405213594,0.0002663158811628,0.0,0.0003994738217443
1.7726402071019502e+18,9.5239501953125,-0.0561132431030273,0.0064941979944705,-0.0069997515529394,-0.0010652635246515,0.0010652635246515,0.00093210558407
1.7726402071219405e+18,9.5439404296875,-0.0471305847167968,0.0111474096775054,0.0121227204799652,-0.0007989476434886,-0.0005326317623257,0.0003994738217443
1.7726402071419305e+18,9.563930419921874,-0.0519218444824218,0.0063872821629047,-0.0015022344887256,0.0,-0.0002663158811628,0.0001331579405814
1.7726402071619205e+18,9.58392041015625,-0.0375499725341796,0.0015864819288253,0.0226472169160842,0.0,-0.0002663158811628,-0.0001331579405814
1.7726402071819108e+18,9.603910888671876,-0.0561141967773437,0.0064074508845806,0.0177478529512882,0.0002663158811628,0.0005326317623257,0.0001331579405814
1.772640207201901e+18,9.623901123046876,-0.0375490188598632,-0.0029637515544891,0.0069409217685461,0.0005326317623257,0.0005326317623257,0.0003994738217443
1.7726402072218918e+18,9.643891845703124,-0.0471305847167968,0.0210900828242301,0.0072771664708852,0.0005326317623257,0.0005326317623257,0.0001331579405814
1.7726402072418824e+18,9.66388232421875,-0.0848598480224609,0.030590783804655,0.007090575993061,0.0002663158811628,0.0,-0.0003994738217443
1.7726402072618732e+18,9.683873046875,-0.0752773284912109,0.0023797824978828,0.0070607960224151,0.0002663158811628,0.0013315794058144,0.00093210558407
1.7726402072818637e+18,9.70386376953125,-0.0752773284912109,0.007147192955017,-0.0121375694870948,-0.0007989476434886,0.0005326317623257,-0.0001331579405814
1.7726402073018545e+18,9.7238544921875,-0.0561151504516601,0.0116946063935756,0.002114076167345,-0.0007989476434886,-0.0002663158811628,0.0001331579405814
1.772640207321845e+18,9.743844970703124,-0.0561151504516601,0.006828986108303,0.0067727956920862,-0.0005326317623257,0.0007989476434886,0.0003994738217443
1.7726402073418358e+18,9.763835693359376,-0.0375490188598632,-0.0121016018092632,0.0115772280842065,-0.0002663158811628,0.0005326317623257,-0.0003994738217443
1.7726402073618263e+18,9.783826416015623,-0.051919937133789,-0.0070248208940029,0.0018751360476016,0.0,-0.0002663158811628,-0.0003994738217443
1.7726402074018076e+18,9.8238076171875,-0.0656929016113281,-0.0028047002851963,-0.0072111934423446,-0.0002663158811628,0.0,-0.0006657897029072
1.7726402074217984e+18,9.84379833984375,-0.0609025955200195,-0.0028558149933815,0.012015476822853,0.0010652635246515,-0.0005326317623257,0.0001331579405814
1.772640207441789e+18,9.863788818359374,-0.051919937133789,0.0162096470594406,-0.0023112073540687,0.0005326317623257,-0.0005326317623257,0.0001331579405814
1.7726402074617797e+18,9.88377978515625,-0.0519218444824218,0.0256178192794322,0.0121766068041324,-0.0002663158811628,0.0,0.0003994738217443
1.7726402074817702e+18,9.903770263671875,-0.0375490188598632,-0.0176203958690166,0.0168614815920591,-0.0018642111681401,0.0,0.0022636849898844
1.7726402075017608e+18,9.9237607421875,-0.0423412322998046,0.0156103447079658,0.0173013657331466,-0.0006657897029072,-0.0002663158811628,0.0001331579405814
1.7726402075217516e+18,9.94375146484375,-0.0519227981567382,0.010786585509777,0.0124676804989576,-0.0003994738217443,-0.0002663158811628,0.0006657897029072
1.772640207541742e+18,9.9637421875,-0.0561161041259765,-0.0180248692631721,0.0030751973390579,0.0002663158811628,-0.0005326317623257,-0.00093210558407
1.7726402075617329e+18,9.98373291015625,-0.0519227981567382,-0.008427295833826,-0.0113842710852622,0.0005326317623257,0.0005326317623257,0.0003994738217443
1.7726402075817236e+18,10.0037236328125,-0.0519227981567382,0.0057688988745212,-0.0067964326590299,0.0002663158811628,0.0005326317623257,-0.0006657897029072
1.7726402076017142e+18,10.023714111328124,-0.0561161041259765,-0.0182505287230014,0.0069491136819124,0.0007989476434886,0.0,0.0001331579405814
1.772640207621705e+18,10.043705078125,-0.0609064102172851,-0.0182109735906124,-0.0073126759380102,0.0010652635246515,0.0,-0.0003994738217443
1.7726402076416955e+18,10.063695556640624,-0.0561151504516601,-0.0037823393940925,-0.0026312116533517,0.0013315794058144,-0.0007989476434886,-0.0006657897029072
1.7726402076616863e+18,10.083686279296876,-0.0752773284912109,0.0058312863111495,0.0256204567849636,-0.0002663158811628,0.0013315794058144,0.0001331579405814
1.7726402076816768e+18,10.1036767578125,-0.0561141967773437,0.0154210515320301,0.0160912107676267,-0.0002663158811628,-0.0002663158811628,0.0003994738217443
1.7726402077016678e+18,10.123667724609374,-0.0609054565429687,-0.0037914849817752,0.0065854210406541,0.0007989476434886,-0.0005326317623257,0.0017310532275587
1.7726402077216596e+18,10.14365966796875,-0.0656957626342773,-0.0085669234395027,-0.0032092314213514,0.0007989476434886,0.0,0.0003994738217443
1.7726402077416515e+18,10.1636513671875,-0.0704870223999023,0.0058893784880638,-0.0079928021878004,0.0005326317623257,-0.0002663158811628,-0.0001331579405814
1.7726402077616433e+18,10.183643310546875,-0.0656957626342773,0.0106981545686721,-0.0079354401677846,-0.0007989476434886,0.0,0.0006657897029072
1.772640207781635e+18,10.203635009765623,-0.0561141967773437,0.0010598897933959,-0.0031366944313049,-0.0002663158811628,-0.0013315794058144,-0.0001331579405814
1.772640207801627e+18,10.223626953125,-0.0471305847167968,0.0202745534479618,-0.002973498776555,0.0002663158811628,-0.0005326317623257,0.0001331579405814
1.7726402078216187e+18,10.24361865234375,-0.0561122894287109,-0.0176462344825267,0.0162525214254856,0.0,0.0,-0.0001331579405814
1.7726402078416105e+18,10.263610595703126,-0.0752754211425781,-0.012721475213766,0.001873642206192,0.0002663158811628,0.0,-0.0003994738217443
1.7726402078616023e+18,10.283602294921875,-0.0704851150512695,0.0016437470912933,0.0068534798920154,-0.0002663158811628,-0.0013315794058144,-0.0001331579405814
1.772640207881594e+18,10.303593994140623,-0.0561132431030273,0.0158699266612529,-0.0076570622622966,0.0,0.0002663158811628,-0.0003994738217443
1.772640207901586e+18,10.3235859375,-0.0519218444824218,-0.0081716850399971,0.0068019274622201,-0.0002663158811628,-0.0002663158811628,0.0013315794058144
1.7726402079215777e+18,10.34357763671875,-0.0656957626342773,0.0110147967934608,0.0260571520775556,-0.0010652635246515,0.0005326317623257,-0.0005326317623257
1.7726402079415695e+18,10.363569580078124,-0.0609035491943359,0.0159192159771919,-0.0027877148240804,-0.0007989476434886,0.0010652635246515,-0.0002663158811628
1.7726402079615613e+18,10.383561279296876,-0.0656938552856445,0.0112019665539264,-0.0029899086803197,-0.0007989476434886,0.0002663158811628,-0.0010652635246515
1.7726402079815532e+18,10.40355322265625,-0.0656938552856445,-0.0031134374439716,-0.0077623184770345,0.0,0.0007989476434886,-0.0005326317623257
1.772640208001545e+18,10.423544921875,-0.0704851150512695,0.0063972137868404,0.0011639799922704,0.0010652635246515,-0.0002663158811628,0.0
1.7726402080215368e+18,10.443536865234377,-0.0656938552856445,0.0254418440163135,0.0106656476855278,-0.0010652635246515,0.0002663158811628,0.0007989476434886
1.7726402080415283e+18,10.4635283203125,-0.0704851150512695,-0.0121542923152446,-0.0132045838981866,0.0010652635246515,-0.0002663158811628,0.0005326317623257
1.7726402080615204e+18,10.483520263671876,-0.0561113357543945,-0.0119696483016014,0.0057876501232385,-0.0013315794058144,-0.0007989476434886,-0.0005326317623257
1.772640208081512e+18,10.503511962890624,-0.0704841613769531,0.0111466459929943,0.0105510149151086,-0.0002663158811628,-0.0002663158811628,0.0002663158811628
1.7726402081015037e+18,10.523503662109375,-0.0423383712768554,-0.0026751682162284,-0.0084347669035196,0.0,0.0002663158811628,-0.0002663158811628
1.7726402081214956e+18,10.54349560546875,-0.0561113357543945,-0.0025144219398498,-0.0038953647017478,-0.0002663158811628,-0.0005326317623257,-0.0002663158811628
1.7726402081414874e+18,10.5634873046875,-0.0609025955200195,0.0116694532334804,-0.0039386264979839,0.0002663158811628,-0.0002663158811628,0.0002663158811628
1.7726402081614792e+18,10.583479248046874,-0.0471277236938476,-0.0025433860719203,-0.0040342658758163,-0.0005326317623257,0.0002663158811628,0.0
1.772640208181471e+18,10.603470947265626,-0.0656929016113281,0.0070244334638118,0.0102590043097734,0.0002663158811628,-0.0005326317623257,0.0007989476434886
1.7726402082014623e+18,10.623462158203123,-0.0656919479370117,0.0161334089934825,0.0109852906316518,0.0002663158811628,0.0002663158811628,0.0005326317623257
1.7726402082214523e+18,10.643452392578125,-0.0561094284057617,0.0018567182123661,0.0059678349643945,0.0,-0.0002663158811628,0.0013315794058144
1.7726402082414426e+18,10.663442626953126,-0.0609016418457031,-0.007916186004877,0.0062649063766002,0.0,-0.0013315794058144,0.0
1.7726402082614328e+18,10.683432861328123,-0.0561113357543945,-0.0079507604241371,0.0016778763383626,0.0002663158811628,0.0,0.0002663158811628
1.7726402082814228e+18,10.7034228515625,-0.0752754211425781,-0.003309991210699,0.0254629869014024,-0.0007989476434886,-0.0002663158811628,-0.0002663158811628
1.772640208301413e+18,10.7234130859375,-0.0704851150512695,0.0014233700931072,0.0256589017808437,-0.0001331579405814,0.0002663158811628,-0.0007989476434886
1.7726402083214034e+18,10.7434033203125,-0.0423383712768554,-0.0080884732306003,-0.0118835922330617,-0.0010652635246515,0.0002663158811628,-0.0013315794058144
1.7726402083413934e+18,10.763393310546874,-0.0609025955200195,0.0017482414841651,-0.0023475065827369,0.0005326317623257,-0.0013315794058144,-0.0002663158811628
1.7726402083613837e+18,10.7833837890625,-0.037546157836914,-0.012647408992052,-0.0168347787111997,0.0005326317623257,0.0026631588116288,0.0007989476434886
1.772640208381374e+18,10.8033740234375,-0.0279655456542968,-0.0127748548984527,-0.0120144691318273,-0.0002663158811628,0.0,0.0002663158811628
1.772640208401364e+18,10.823364013671876,-0.0471277236938476,0.0160833559930324,0.0017015896737575,0.0010652635246515,-0.0002663158811628,0.0015978952869772
,,,,,0.0,0.0023968429304659,0.0013315794058144
,,,,,-0.0005326317623257,-0.0007989476434886,0.0013315794058144
,,,,,-0.0013315794058144,0.0,0.0002663158811628
,,,,,0.0013315794058144,-0.0005326317623257,-0.0002663158811628
,,,,,0.0,0.0,0.0
