time,seconds_elapsed,accel_z,accel_y,accel_x,gyro_x,gyro_y,gyro_z
1.7726401492884076e+18,0.269407470703125,-0.0704450607299804,-0.0074630416929721,-0.0014695636928081,-0.0003994738217443,-0.0011984214652329,0.0003994738217443
1.7726401493083994e+18,0.2893994140625,-0.0704460144042968,-0.0124483034014701,-0.0015899371355772,-0.0001331579405814,0.0011984214652329,-0.0001331579405814
1.772640149328391e+18,0.309390869140625,-0.0656538009643554,0.0021477788686752,0.0081322956830263,0.0014647373463958,0.0022636849898844,0.00093210558407
1.7726401493483827e+18,0.3293828125,-0.047088623046875,-0.0026289522647857,-0.0013093054294586,-0.0006657897029072,-0.0001331579405814,0.0001331579405814
1.7726401493683745e+18,0.34937451171875,-0.0422983169555664,0.0308171324431896,-0.0109585132449865,0.0003994738217443,0.0006657897029072,0.0006657897029072
1.7726401493883663e+18,0.369366455078125,-0.0608625411987304,0.0117198787629604,-0.0013397112488746,0.0003994738217443,0.00093210558407,-0.0003994738217443
1.7726401494083581e+18,0.389358154296875,-0.0560731887817382,0.0163678750395774,0.0035918317735195,0.0001331579405814,-0.00093210558407,-0.0001331579405814
1.7726401494283497e+18,0.409349609375,-0.0518817901611328,-0.0027803219854831,-0.0106903538107872,-0.00093210558407,0.00093210558407,-0.0003994738217443
1.7726401494483415e+18,0.429341552734375,-0.0518827438354492,0.0210837945342063,-0.0154429711401462,0.0003994738217443,0.0003994738217443,-0.00093210558407
1.7726401494683333e+18,0.449333251953125,-0.0560760498046875,0.0018297545611858,-0.000720627605915,0.0001331579405814,0.0001331579405814,0.0011984214652329
1.772640149488325e+18,0.4693251953125,-0.0518836975097656,0.0066350027918815,-0.0054743308573961,0.0001331579405814,0.0001331579405814,0.0001331579405814
1.772640149508317e+18,0.48931689453125,-0.037510871887207,0.0018585547804832,0.0040915589779615,0.0001331579405814,0.00093210558407,-0.0001331579405814
1.7726401495283087e+18,0.509308837890625,-0.0518836975097656,0.0018208287656307,-0.0103482287377119,0.0001331579405814,-0.0006657897029072,0.0014647373463958
1.7726401495483003e+18,0.52930029296875,-0.0656576156616211,0.0066259279847145,-0.0103625580668449,0.0003994738217443,0.0011984214652329,0.00093210558407
1.772640149568292e+18,0.5492919921875,-0.0560760498046875,-0.0125229097902774,-0.0200119726359844,-0.0003994738217443,0.0011984214652329,-0.0006657897029072
1.772640149588284e+18,0.569283935546875,-0.0560760498046875,0.0019160136580467,-0.0055506881326437,0.0003994738217443,0.0006657897029072,0.0006657897029072
1.7726401496082757e+18,0.589275634765625,-0.060866355895996,-0.007753737270832,0.0137016847729682,-0.0001331579405814,-0.00093210558407,0.0001331579405814
1.7726401496282675e+18,0.609267578125,-0.0608654022216796,-0.0076335407793521,-0.0054770410060882,0.0003994738217443,-0.0001331579405814,0.0001331579405814
1.772640149648259e+18,0.629259033203125,-0.0608654022216796,0.0118039511144161,-0.0101263262331485,0.0001331579405814,-0.0001331579405814,-0.0001331579405814
1.772640149668251e+18,0.6492509765625,-0.0470914840698242,0.021449040621519,-0.0051421448588371,-0.0006657897029072,-0.0006657897029072,-0.0019973691087216
1.7726401496882427e+18,0.66924267578125,-0.042302131652832,-0.0074373483657836,-0.0099991466850042,-0.0006657897029072,0.00093210558407,-0.0003994738217443
1.772640149708234e+18,0.68923388671875,-0.060866355895996,0.0020021051168441,-0.0009274780750274,0.0003994738217443,0.0001331579405814,0.0017310532275587
1.772640149728225e+18,0.70922509765625,-0.0608673095703125,0.0067546479403972,-0.0055759381502866,-0.0006657897029072,-0.0001331579405814,-0.0003994738217443
1.772640149748216e+18,0.729216064453125,-0.0518836975097656,0.0020302571356296,0.0038851257413625,-0.0011984214652329,0.00093210558407,-0.0001331579405814
1.772640149768207e+18,0.74920703125,-0.0800323486328125,0.0161537639796733,-0.0151867251843214,-0.0003994738217443,0.0006657897029072,-0.0003994738217443
1.7726401497881981e+18,0.7691982421875,-0.0608673095703125,0.0113750733435153,0.0038036610931158,0.0011984214652329,0.0001331579405814,-0.0001331579405814
1.7726401498081892e+18,0.789189208984375,-0.0704507827758789,0.0016511715948581,-0.0100878402590751,0.0001331579405814,-0.0003994738217443,0.0006657897029072
1.7726401498281802e+18,0.80918017578125,-0.0704507827758789,0.0112453587353229,-0.000469297170639,-0.0001331579405814,0.0011984214652329,-0.0001331579405814
1.7726401498481713e+18,0.829171142578125,-0.0608673095703125,0.0067292228341102,-0.0099072381854057,0.0001331579405814,-0.0006657897029072,0.0003994738217443
1.7726401498681623e+18,0.849162353515625,-0.0375127792358398,-0.0172590836882591,-0.0191870257258415,0.00093210558407,0.0001331579405814,0.0006657897029072
1.7726401498881533e+18,0.8691533203125,-0.0518865585327148,0.0065000988543033,-0.0140947494655847,0.0001331579405814,-0.00093210558407,-0.0001331579405814
1.7726401499281354e+18,0.909135498046875,-0.0560789108276367,0.0113669857382774,-0.00443871691823,0.0003994738217443,-0.0006657897029072,0.00093210558407
1.7726401499481265e+18,0.92912646484375,-0.0608692169189453,0.0115361176431179,-0.0089283548295497,-0.0003994738217443,0.0001331579405814,-0.0003994738217443
1.7726401499681175e+18,0.949117431640625,-0.0518875122070312,-0.0028212592005729,0.0056362003087997,-0.0011984214652329,0.0006657897029072,0.0011984214652329
1.7726401499881085e+18,0.969108642578125,-0.0560798645019531,0.0068780556321144,-0.0087496750056743,0.0003994738217443,0.0017310532275587,-0.0001331579405814
1.7726401500080996e+18,0.989099609375,-0.0656604766845703,0.0020493380725383,0.0054497607052326,0.00093210558407,0.00093210558407,0.0006657897029072
1.7726401500280906e+18,1.009090576171875,-0.0608692169189453,0.0020118653774261,0.0095720961689949,-0.0006657897029072,0.0003994738217443,0.0001331579405814
1.7726401500480817e+18,1.02908154296875,-0.0518865585327148,0.0069747678935527,-0.0136152505874633,-0.0001331579405814,0.0003994738217443,0.0001331579405814
1.7726401500680727e+18,1.04907275390625,-0.0560789108276367,0.0164671875536441,0.0001376084983348,-0.00093210558407,0.0011984214652329,0.00093210558407
1.7726401500880637e+18,1.069063720703125,-0.0656604766845703,0.0021138973534107,-0.0048293061554431,-0.0001331579405814,0.0006657897029072,0.0003994738217443
1.7726401501080548e+18,1.0890546875,-0.0704498291015625,0.0117645859718322,0.0045216605067253,-0.0003994738217443,-0.0001331579405814,0.0001331579405814
1.7726401501480369e+18,1.129036865234375,-0.0560770034790039,0.0021701380610466,-0.0051016062498092,0.0001331579405814,-0.0014647373463958,0.0011984214652329
1.772640150168028e+18,1.14902783203125,-0.0752410888671875,0.0068216770887374,-0.0050172731280326,-0.0003994738217443,0.0006657897029072,0.0006657897029072
1.772640150188019e+18,1.16901904296875,-0.0656585693359375,0.0022592544555664,-0.0146144423633813,-0.00093210558407,0.0006657897029072,0.0002663158811628
1.7726401502080102e+18,1.18901025390625,-0.0608692169189453,0.0069112405180931,-0.018559405580163,0.0003994738217443,-0.0011984214652329,0.0
1.7726401502280018e+18,1.209001708984375,-0.0800333023071289,0.0117695480585098,0.0055278483778238,-0.0001331579405814,-0.0006657897029072,0.0002663158811628
1.772640150247993e+18,1.2289931640625,-0.0704517364501953,0.0022589974105358,0.0058176089078187,-0.0001331579405814,-0.00093210558407,0.0005326317623257
1.7726401502679844e+18,1.248984375,-0.0656604766845703,-0.0025630518794059,0.0010573584586381,-0.0001331579405814,0.0001331579405814,-0.0005326317623257
1.772640150287976e+18,1.268975830078125,-0.0656623840332031,-0.0170140340924263,0.0011914167553186,0.00093210558407,0.0001331579405814,-0.0005326317623257
1.7726401503079672e+18,1.28896728515625,-0.0560808181762695,0.0020119734108448,-0.0083045531064271,-0.0001331579405814,0.0006657897029072,-0.0002663158811628
1.7726401503279585e+18,1.30895849609375,-0.0752439498901367,0.0115570202469825,-0.0132155939936637,-0.00093210558407,-0.0001331579405814,-0.0002663158811628
1.77264015034795e+18,1.3289501953125,-0.0518875122070312,0.0020468942821025,-0.02770178578794,0.0001331579405814,0.0011984214652329,0.0
1.7726401503679414e+18,1.34894140625,-0.0423059463500976,0.030851237475872,-0.0228706188499927,-0.0006657897029072,0.0001331579405814,-0.0005326317623257
1.7726401503879327e+18,1.3689326171875,-0.0656614303588867,0.0165433287620544,-0.0084631685167551,0.0003994738217443,0.0011984214652329,0.0
1.7726401504079242e+18,1.38892431640625,-0.0656623840332031,-0.0025991797447204,0.0006551276892423,-0.0001331579405814,0.0006657897029072,-0.0005326317623257
1.7726401504279155e+18,1.40891552734375,-0.0704536437988281,0.0018977262079715,-0.0042072720825672,0.0003994738217443,0.0003994738217443,-0.0010652635246515
1.7726401504479068e+18,1.42890673828125,-0.0752429962158203,-0.0075562112033367,0.0004054345190525,0.0006657897029072,0.0001331579405814,-0.0005326317623257
1.7726401504678984e+18,1.4488984375,-0.0423049926757812,-0.0074286051094532,-0.0332941561937332,0.0001331579405814,-0.0006657897029072,0.0005326317623257
1.7726401504878897e+18,1.4688896484375,-0.0560808181762695,-0.0027206391096115,-0.0040453486144542,-0.0006657897029072,-0.0003994738217443,0.0005326317623257
1.772640150507881e+18,1.488880859375,-0.042306900024414,-0.0027511194348335,-0.0041161440312862,-0.0001331579405814,-0.0001331579405814,-0.0018642111681401
1.7726401505278725e+18,1.50887255859375,-0.0375165939331054,-0.0075706169009208,-0.0135037899017333,-0.0006657897029072,0.0006657897029072,0.0002663158811628
1.7726401505478638e+18,1.52886376953125,-0.0752458572387695,0.0067666880786418,-0.0085733029991388,0.0001331579405814,0.0001331579405814,0.0002663158811628
1.772640150567855e+18,1.548855224609375,-0.0800371170043945,0.0067309476435184,-0.0230604838579893,0.00093210558407,-0.0003994738217443,-0.0002663158811628
1.7726401505878467e+18,1.5688466796875,-0.0608730316162109,0.0068520307540893,-0.0275971461087465,-0.0001331579405814,-0.0006657897029072,-0.0007989476434886
1.772640150607838e+18,1.588837890625,-0.0470972061157226,0.0070775151252746,-0.00865856744349,-0.0006657897029072,-0.0001331579405814,0.0
1.7726401506278292e+18,1.608829345703125,-0.0704536437988281,0.0117770582437515,-0.0135172102600336,0.0006657897029072,0.0017310532275587,-0.0005326317623257
1.7726401506478208e+18,1.62882080078125,-0.0656642913818359,0.0115297399461269,-0.0039024055004119,0.0001331579405814,0.0001331579405814,0.0007989476434886
1.772640150667812e+18,1.64881201171875,-0.0656652450561523,0.0064422115683555,0.0010238084942102,-0.0003994738217443,0.00093210558407,0.0
1.7726401506878034e+18,1.668803466796875,-0.0518913269042968,0.0016184449195861,-0.0372517555952072,0.0006657897029072,-0.0001331579405814,-0.0002663158811628
1.7726401507077944e+18,1.68879443359375,-0.0608758926391601,-0.0032546520233154,-0.0132056530565023,-0.0001331579405814,-0.0006657897029072,-0.0007989476434886
1.7726401507277852e+18,1.70878515625,-0.0800380706787109,-0.0031280070543289,-0.0131145920604467,-0.00093210558407,0.0011984214652329,0.0002663158811628
1.772640150747776e+18,1.72877587890625,-0.0656661987304687,0.0016818940639495,-0.0129198543727397,-0.0006657897029072,-0.0014647373463958,-0.0007989476434886
1.7726401507677668e+18,1.748766845703125,-0.0608758926391601,-0.0032432228326797,0.0015883669257164,0.00093210558407,0.0006657897029072,-0.0002663158811628
1.7726401507877573e+18,1.76875732421875,-0.0560855865478515,-0.0031168796122074,-0.0127982310950756,0.00093210558407,-0.0001331579405814,-0.0005326317623257
1.772640150807748e+18,1.788748046875,-0.051894187927246,0.0064818710088729,-0.0027647390961647,0.0017310532275587,0.0006657897029072,0.0
1.772640150827739e+18,1.80873876953125,-0.0704593658447265,-0.0030775144696235,-0.0359864346683025,-0.00093210558407,-0.0001331579405814,0.0005326317623257
1.7726401508477297e+18,1.828729736328125,-0.0944137573242187,0.0065725669264793,-0.0025221295654773,0.0003994738217443,0.0006657897029072,0.0005326317623257
1.7726401508677204e+18,1.848720458984375,-0.0656690597534179,-0.0031441077589988,-0.0120136868208646,-0.0003994738217443,0.0003994738217443,-0.0002663158811628
1.7726401508877112e+18,1.868711181640625,-0.0704603195190429,0.0015619248151779,0.0071771517395973,0.0001331579405814,0.00093210558407,0.0
1.772640150907702e+18,1.888701904296875,-0.0656681060791015,0.0065264180302619,0.002417292445898,0.0001331579405814,0.0006657897029072,0.0
1.7726401509276925e+18,1.908692626953125,-0.0560874938964843,0.0112783089280128,0.0072351917624473,-0.0006657897029072,0.0001331579405814,0.0005326317623257
1.7726401509476833e+18,1.928683349609375,-0.0656681060791015,0.0161311402916908,-0.0113434456288814,0.0001331579405814,0.0019973691087216,0.0013315794058144
1.772640150967674e+18,1.948674072265625,-0.0608777999877929,0.0162455774843692,0.0033205095678567,-0.0001331579405814,0.0011984214652329,0.0005326317623257
1.772640150987665e+18,1.968664794921875,-0.0704593658447265,0.001943189650774,0.0033480282872915,-0.0001331579405814,-0.0001331579405814,-0.0007989476434886
1.7726401510076557e+18,1.98865576171875,-0.047102928161621,0.0115377157926559,-0.0022697895765304,0.00093210558407,0.0001331579405814,-0.0005326317623257
1.7726401510276465e+18,2.008646484375,-0.0423135757446289,0.0114461183547973,0.0171234048902988,-0.0001331579405814,0.0003994738217443,0.0010652635246515
1.772640151067628e+18,2.0486279296875,-0.0656681060791015,-0.0028922483325004,0.0020508412271738,-0.0006657897029072,0.0001331579405814,0.0015978952869772
1.7726401510876188e+18,2.068618896484375,-0.0656681060791015,-0.0075526013970375,0.0069734342396259,-0.0006657897029072,0.0003994738217443,0.0
1.7726401511076093e+18,2.088609375,-0.0423126220703125,0.0021003521978855,0.0021078903228044,0.0001331579405814,-0.0001331579405814,0.0005326317623257
1.7726401511276e+18,2.10860009765625,-0.032729148864746,0.0022235959768295,-0.0026494953781366,-0.00093210558407,0.0014647373463958,0.0005326317623257
1.772640151147591e+18,2.1285908203125,-0.0800409317016601,0.0165003426373004,0.0070108287036418,-0.0001331579405814,-0.0006657897029072,-0.0005326317623257
1.7726401511675817e+18,2.148581787109375,-0.0608758926391601,0.0070379078388214,-0.016848212108016,0.0003994738217443,-0.0011984214652329,0.0002663158811628
1.7726401511875725e+18,2.168572509765625,-0.0752496719360351,0.0021610483527183,-0.0074388422071933,-0.0001331579405814,0.0017310532275587,0.0002663158811628
1.7726401512075622e+18,2.188562255859375,-0.0704603195190429,-0.002763532102108,0.0028765723109245,-0.0003994738217443,0.0001331579405814,0.0005326317623257
1.7726401512275515e+18,2.208551513671875,-0.0608758926391601,-0.00258519500494,0.0026956517249345,0.0003994738217443,-0.0006657897029072,-0.0002663158811628
1.7726401512475407e+18,2.228540771484375,-0.0518932342529296,0.0022241286933422,0.0026722028851509,-0.00093210558407,0.0003994738217443,0.0010652635246515
1.7726401512675302e+18,2.2485302734375,-0.0608768463134765,0.0068734586238861,-0.0069252252578735,-0.0003994738217443,-0.0003994738217443,0.0002663158811628
1.7726401512875195e+18,2.26851953125,-0.042311668395996,0.0117273554205894,-0.0069414284080266,-0.0003994738217443,0.0003994738217443,0.0
1.7726401513075087e+18,2.2885087890625,-0.0518932342529296,0.0165773704648017,-0.0068532191216945,-0.0001331579405814,0.0001331579405814,0.0018642111681401
1.772640151327498e+18,2.308498046875,-0.0656681060791015,0.0019622258841991,-0.0021336730569601,-0.0003994738217443,-0.0001331579405814,-0.0005326317623257
1.7726401513474872e+18,2.3284873046875,-0.0608768463134765,0.0019285678863525,0.0025815665721893,0.00093210558407,-0.0006657897029072,-0.0005326317623257
1.7726401513674767e+18,2.348476806640625,-0.0560865402221679,-0.0124136917293071,-0.0117500927299261,0.0001331579405814,0.0011984214652329,0.0007989476434886
1.772640151387466e+18,2.368466064453125,-0.0471019744873046,-0.0028096884489059,-0.0023448821157217,-0.0006657897029072,-0.0011984214652329,-0.0010652635246515
1.7726401514074552e+18,2.388455322265625,-0.0704565048217773,-0.0169922038912773,0.0166260190308094,-0.0003994738217443,-0.0003994738217443,0.0
1.7726401514274445e+18,2.408444580078125,-0.0608749389648437,0.0117635503411293,-0.0072924196720123,0.0003994738217443,-0.0001331579405814,0.0005326317623257
1.772640151447434e+18,2.42843408203125,-0.0608739852905273,0.0071954056620597,0.0022137220948934,-0.0001331579405814,0.0011984214652329,-0.0007989476434886
1.7726401514674232e+18,2.44842333984375,-0.0560827255249023,-0.0023117884993553,0.0068737715482711,-0.0001331579405814,-0.0003994738217443,-0.0007989476434886
1.7726401514874125e+18,2.46841259765625,-0.0656642913818359,0.0120708756148815,-0.0027794297784566,0.0003994738217443,-0.0003994738217443,0.0002663158811628
1.7726401515074017e+18,2.488401611328125,-0.0704536437988281,0.0121849440038204,0.0018318258225917,0.0003994738217443,-0.0001331579405814,0.0
1.7726401515273912e+18,2.50839111328125,-0.051889419555664,0.0072506591677665,-0.0030309204012155,0.0006657897029072,-0.0003994738217443,0.0
1.7726401515473805e+18,2.52838037109375,-0.0560817718505859,-0.0022564940154552,-0.0172525327652692,-0.0006657897029072,-0.0011984214652329,-0.0007989476434886
1.7726401515673697e+18,2.54836962890625,-0.0704536437988281,0.0075479410588741,-0.0076850466430187,-0.0006657897029072,-0.0006657897029072,-0.0007989476434886
1.772640151587359e+18,2.56835888671875,-0.0656633377075195,0.0169255770742893,-0.0172215215861797,-0.0006657897029072,0.0001331579405814,-0.0010652635246515
1.7726401516073482e+18,2.58834814453125,-0.0800361633300781,0.0266078487038612,-0.0027115922421216,-0.00093210558407,-0.0001331579405814,0.0
1.7726401516273377e+18,2.608337646484375,-0.0704536437988281,-0.0164228454232215,0.0164169184863567,-0.0001331579405814,-0.0006657897029072,0.0002663158811628
1.772640151647327e+18,2.628326904296875,-0.0560808181762695,-0.0068664588034152,0.0019691046327352,-0.0006657897029072,-0.0006657897029072,0.0
1.7726401516673162e+18,2.648316162109375,-0.0560808181762695,0.002732940018177,0.0066799800843,0.0003994738217443,-0.0006657897029072,-0.0002663158811628
1.7726401516873055e+18,2.668305419921875,-0.0518865585327148,-0.0113471634685993,0.0066020619124174,0.0001331579405814,-0.0003994738217443,-0.0013315794058144
1.772640151707296e+18,2.6882958984375,-0.0656595230102539,0.0174025855958461,-0.0080456007272005,-0.0006657897029072,0.0001331579405814,0.0005326317623257
1.7726401517472778e+18,2.72827783203125,-0.0848255157470703,0.0076193064451217,0.0015807282179594,-0.00093210558407,0.0003994738217443,-0.0005326317623257
1.7726401517672686e+18,2.7482685546875,-0.0608692169189453,0.0124192424118518,-0.0031228996813297,0.0006657897029072,-0.0001331579405814,-0.0005326317623257
1.7726401517872594e+18,2.76825927734375,-0.0560808181762695,0.0123208463191986,0.0065846946090459,-0.00093210558407,0.0006657897029072,-0.0005326317623257
1.7726401518072504e+18,2.78825048828125,-0.0656623840332031,0.007689282298088,-0.0123948473483324,-0.0003994738217443,0.0001331579405814,0.0007989476434886
1.7726401518272412e+18,2.8082412109375,-0.0704536437988281,0.012477371841669,-0.0076347962021827,0.0003994738217443,-0.00093210558407,0.0
1.7726401518472323e+18,2.828232177734375,-0.0608701705932617,-0.0067741833627223,-0.0078729148954153,-0.0006657897029072,-0.0006657897029072,0.0002663158811628
1.772640151867223e+18,2.84822314453125,-0.0470952987670898,0.0171214900910854,0.0008115321397781,-0.00093210558407,-0.0003994738217443,0.0007989476434886
1.7726401518872138e+18,2.8682138671875,-0.0608711242675781,0.0120672173798084,-0.0085379593074321,-0.0001331579405814,-0.00093210558407,-0.0002663158811628
1.7726401519072049e+18,2.888204833984375,-0.0560827255249023,0.0167993269860744,-0.0035709384828805,0.0003994738217443,-0.0006657897029072,-0.0005326317623257
1.7726401519271956e+18,2.908195556640625,-0.0470991134643554,0.0167921222746372,-0.0081819146871566,0.0001331579405814,0.00093210558407,0.0002663158811628
1.7726401519471867e+18,2.928186767578125,-0.0608730316162109,-0.0024115666747093,0.0061474256217479,0.0001331579405814,0.00093210558407,0.0007989476434886
1.7726401519671775e+18,2.948177490234375,-0.0704555511474609,-0.0119194164872169,0.0061030481010675,0.0001331579405814,0.0001331579405814,0.0
1.7726401519871683e+18,2.968168212890625,-0.0704555511474609,-0.0024300478398799,0.0107922349125146,-0.0002663158811628,0.0003994738217443,0.0005326317623257
1.77264015202715e+18,3.008150146484375,-0.0608730316162109,0.0119378976523876,-0.0184510927647352,0.0,0.0003994738217443,-0.0005326317623257
1.772640152047141e+18,3.02814111328125,-0.0704555511474609,0.0117785707116127,0.0053559802472591,0.0002663158811628,-0.0019973691087216,0.0002663158811628
1.772640152067132e+18,3.0481318359375,-0.0560827255249023,-0.0026338323950767,0.0003707446157932,0.0002663158811628,-0.0001331579405814,0.0002663158811628
1.7726401520871227e+18,3.068122802734375,-0.0518903732299804,-0.002672754228115,-0.0044516324996948,0.0010652635246515,0.0006657897029072,0.0005326317623257
1.7726401521071137e+18,3.08811376953125,-0.0752468109130859,-0.007602035999298,0.0049833431839942,0.0007989476434886,0.0011984214652329,0.0
1.7726401521271045e+18,3.1081044921875,-0.042306900024414,-0.0121092125773429,-0.0095213558524847,-0.0002663158811628,0.0011984214652329,0.0002663158811628
1.7726401521470956e+18,3.128095458984375,-0.0470972061157226,-0.0024102218449115,-0.0191193930804729,0.0002663158811628,-0.0011984214652329,0.0002663158811628
1.7726401521670863e+18,3.14808642578125,-0.0656595230102539,0.0076432786881923,0.014207687228918,0.0,0.0003994738217443,-0.0013315794058144
1.772640152187077e+18,3.1680771484375,-0.0423030853271484,0.0076964013278484,0.0044261701405048,0.0007989476434886,-0.0006657897029072,-0.0007989476434886
1.7726401522070687e+18,3.188068603515625,-0.0800313949584961,0.0125353634357452,-0.0188943035900592,-0.0007989476434886,0.00093210558407,0.0
1.7726401522270602e+18,3.208060302734375,-0.060866355895996,-0.0066631473600864,-0.0095997862517833,0.0007989476434886,0.0001331579405814,0.0005326317623257
1.7726401522470518e+18,3.2280517578125,-0.0470924377441406,0.0029249042272567,-0.0096270013600587,0.0002663158811628,-0.00093210558407,-0.0005326317623257
1.7726401522670433e+18,3.248043212890625,-0.051884651184082,0.0027755685150623,0.0048608686774969,0.0005326317623257,-0.0011984214652329,0.0005326317623257
1.7726401522870351e+18,3.26803515625,-0.060866355895996,-0.0114696733653545,-7.14901834726e-05,0.0005326317623257,0.0001331579405814,0.0010652635246515
1.7726401523070267e+18,3.288026611328125,-0.060866355895996,-0.0115513801574707,-0.0001094602048397,0.0,-0.0014647373463958,0.0
1.7726401523270182e+18,3.308018310546875,-0.0560770034790039,-0.002062227576971,-0.0096663460135459,-0.0015978952869772,-0.0001331579405814,0.0002663158811628
1.7726401523470098e+18,3.328009765625,-0.0704498291015625,0.0075732804834842,-0.0094834882766008,-0.0005326317623257,-0.0001331579405814,-0.0002663158811628
1.7726401523670013e+18,3.34800146484375,-0.0560760498046875,0.0078352056443691,8.9220702648e-06,-0.0018642111681401,-0.0006657897029072,-0.0007989476434886
1.7726401523869932e+18,3.3679931640625,-0.037510871887207,0.0124642476439476,-0.0288455411791801,0.0,-0.0011984214652329,-0.0002663158811628
1.7726401524069847e+18,3.387984619140625,-0.042302131652832,0.0125639028847217,-0.0293944980949163,-0.0010652635246515,0.0001331579405814,-0.0005326317623257
1.7726401524269763e+18,3.407976318359375,-0.0752391815185546,0.0125065706670284,-0.015145955607295,0.0007989476434886,-0.00093210558407,0.0
1.7726401524469678e+18,3.4279677734375,-0.0656566619873046,0.0029836259782314,-0.0105880517512559,0.0005326317623257,0.0001331579405814,-0.0007989476434886
1.7726401524669594e+18,3.44795947265625,-0.060866355895996,-0.0018993988633155,-0.0056706294417381,0.0,0.0001331579405814,0.0015978952869772
1.7726401524869512e+18,3.467951171875,-0.0704488754272461,0.0076828077435493,-0.0199009235948324,-0.0002663158811628,-0.00093210558407,0.0
1.7726401525069427e+18,3.487942626953125,-0.0560770034790039,0.0075273811817169,-0.0102907810360193,0.0007989476434886,0.0001331579405814,-0.0007989476434886
1.7726401525269343e+18,3.507934326171875,-0.0518827438354492,0.0125226527452468,-0.0150992702692747,0.0002663158811628,0.0003994738217443,-0.0007989476434886
1.7726401525469258e+18,3.52792578125,-0.0423002243041992,0.0032078176736831,-0.0246882122009992,-0.0007989476434886,0.0006657897029072,-0.0002663158811628
1.7726401525669174e+18,3.54791748046875,-0.0470895767211914,0.0032657645642757,-0.000926474109292,-0.0005326317623257,-0.0006657897029072,0.0
1.7726401525869092e+18,3.5679091796875,-0.0608654022216796,0.0127371177077293,-0.0198424216359853,0.0005326317623257,-0.0006657897029072,-0.0002663158811628
1.7726401526069007e+18,3.587900634765625,-0.0518827438354492,0.0031094849109649,-0.023988913744688,-0.0013315794058144,0.0006657897029072,0.0
1.7726401526268923e+18,3.607892333984375,-0.0470914840698242,0.0270403288304805,-0.0144261997193098,0.0013315794058144,-0.0011984214652329,0.0
1.7726401526468838e+18,3.6278837890625,-0.0608673095703125,0.017133604735136,-0.0095036253333091,0.0,-0.00093210558407,0.0
1.7726401526668754e+18,3.64787548828125,-0.0656576156616211,-0.0066983737051486,-0.0288252495229244,-0.0002663158811628,0.00093210558407,0.0002663158811628
1.7726401526868672e+18,3.6678671875,-0.0656585693359375,0.0076225884258747,-0.004849374294281,0.0002663158811628,0.0006657897029072,-0.0005326317623257
1.7726401527068585e+18,3.6878583984375,-0.0656576156616211,0.0028906390070915,-0.0238625351339578,0.0005326317623257,-0.0001331579405814,0.0010652635246515
1.7726401527268498e+18,3.707849853515625,-0.0560760498046875,-0.0066727474331855,-0.0190321914851665,-0.0007989476434886,-0.0001331579405814,0.0010652635246515
1.772640152746841e+18,3.727841064453125,-0.0560770034790039,-0.0018175430595874,-0.0139476917684078,-0.0015978952869772,-0.0001331579405814,-0.0005326317623257
1.7726401527668324e+18,3.747832275390625,-0.0608682632446289,0.0077112652361392,-0.0138119999319314,0.0002663158811628,-0.0011984214652329,0.0
1.7726401527868237e+18,3.76782373046875,-0.051884651184082,0.0221173427999019,-0.0139880143105983,0.0007989476434886,0.0019973691087216,-0.0002663158811628
1.772640152806815e+18,3.78781494140625,-0.0704507827758789,-0.0019292868673801,0.0050795935094356,-0.0005326317623257,-0.0006657897029072,0.0005326317623257
1.7726401528268063e+18,3.80780615234375,-0.047093391418457,0.0028675161302089,-0.0046384800225496,0.0005326317623257,0.0003994738217443,0.0
1.7726401528467976e+18,3.827797607421875,-0.0560770034790039,-0.0019632577896118,-0.0046177115291357,0.0015978952869772,0.0001331579405814,0.0002663158811628
1.7726401528667886e+18,3.84778857421875,-0.0800304412841796,-0.0017943419516086,-0.0095383543521165,-0.0007989476434886,-0.0003994738217443,0.0
1.77264015288678e+18,3.86777978515625,-0.0656557083129882,-0.001574482768774,-0.0097736902534961,0.0002663158811628,0.0003994738217443,0.0002663158811628
1.7726401529067712e+18,3.887771240234375,-0.027928352355957,0.0030657835304737,-0.0145296584814786,-0.0002663158811628,0.0003994738217443,0.0002663158811628
1.7726401529267625e+18,3.907762451171875,-0.0560760498046875,-0.0017645992338657,-0.0191224440932273,-0.0002663158811628,0.0003994738217443,0.0002663158811628
1.7726401529467538e+18,3.92775390625,-0.0704488754272461,0.0029280222952365,-0.0192903336137533,0.0,0.0017310532275587,-0.0007989476434886
1.772640152966745e+18,3.9477451171875,-0.0800304412841796,0.0122942551970481,-0.0147780366241931,0.0002663158811628,-0.0003994738217443,-0.0015978952869772
1.7726401529867364e+18,3.967736328125,-0.0656576156616211,0.0074507780373096,-0.0101153124123811,0.0002663158811628,-0.0006657897029072,-0.0002663158811628
1.7726401530067277e+18,3.987727783203125,-0.0800323486328125,0.0073466636240482,-0.0206422694027423,0.0,-0.0001331579405814,-0.0002663158811628
1.772640153026719e+18,4.007718994140625,-0.051884651184082,0.0032124817371368,-0.0207029953598976,0.0002663158811628,-0.00093210558407,0.0
1.7726401530467103e+18,4.027710205078125,-0.060866355895996,-0.0062980055809021,0.0223480965942144,-0.0005326317623257,0.0001331579405814,-0.0007989476434886
1.7726401530667016e+18,4.04770166015625,-0.0800304412841796,0.0032382234930992,0.0079283453524112,-0.0005326317623257,-0.0006657897029072,-0.0005326317623257
1.7726401530866929e+18,4.06769287109375,-0.0704488754272461,0.0032436326146125,0.0080882906913757,-0.0005326317623257,-0.0011984214652329,-0.0018642111681401
1.7726401531266755e+18,4.107675537109375,-0.0704479217529296,0.0179067067801952,0.0024989321827888,0.0005326317623257,0.0003994738217443,0.0010652635246515
1.7726401531466668e+18,4.127666748046875,-0.0800275802612304,0.017918162047863,0.0069303438067436,0.0,0.0006657897029072,0.0005326317623257
1.772640153166658e+18,4.147657958984375,-0.0518808364868164,-0.0011560246348381,0.0020985621958971,0.0013315794058144,-0.0019973691087216,-0.0002663158811628
1.7726401531866493e+18,4.1676494140625,-0.0422983169555664,0.013285543769598,0.0258214734494686,0.0005326317623257,-0.0003994738217443,-0.0002663158811628
1.77264015320664e+18,4.18764013671875,-0.04229736328125,-0.0064513273537158,-0.0068579949438571,0.0005326317623257,-0.0001331579405814,0.0
1.7726401532266304e+18,4.20763037109375,-0.047088623046875,0.0030849650502204,-0.0115632843226194,0.0002663158811628,0.0003994738217443,0.0005326317623257
1.772640153246621e+18,4.227620849609375,-0.060861587524414,0.0078745633363723,-0.0066955406218767,-0.0002663158811628,-0.0003994738217443,0.0002663158811628
1.7726401532666112e+18,4.247611083984375,-0.0608606338500976,0.0032454654574394,0.0079658757895231,-0.0005326317623257,0.0006657897029072,0.0013315794058144
1.7726401533065923e+18,4.28759228515625,-0.0752325057983398,0.0128759816288948,-0.0017732605338096,0.0005326317623257,-0.0003994738217443,0.0010652635246515
1.7726401533265828e+18,4.307582763671875,-0.0656490325927734,0.0082387216389179,-0.0067499689757823,-0.0005326317623257,0.0006657897029072,-0.0005326317623257
1.772640153346573e+18,4.327572998046875,-0.065648078918457,0.0035570710897445,0.0122017972171306,-0.0011984214652329,-0.0003994738217443,0.0
1.7726401533665636e+18,4.3475634765625,-0.0656471252441406,0.0038224682211875,-0.0021011773496866,0.0001331579405814,-0.0006657897029072,0.0007989476434886
1.7726401533865539e+18,4.367553955078125,-0.056065559387207,0.0038268119096755,0.0122683402150869,-0.0001331579405814,-0.0014647373463958,0.0002663158811628
1.7726401534065444e+18,4.38754443359375,-0.0608549118041992,-0.0008477307856082,-0.0027877241373062,-0.0001331579405814,-0.0001331579405814,-0.0005326317623257
1.772640153426535e+18,4.407534912109375,-0.0608549118041992,0.0038430914282798,-0.0028730146586894,-0.0006657897029072,-0.0017310532275587,-0.0007989476434886
1.7726401534465252e+18,4.427525146484375,-0.0656461715698242,-0.0008843690156936,0.0066090021282434,0.0002663158811628,-0.0006657897029072,0.0010652635246515
1.7726401534665157e+18,4.447515625,-0.0422887802124023,0.0183140039443969,0.0208087638020515,0.0002663158811628,0.0001331579405814,0.0013315794058144
1.7726401534865062e+18,4.46750634765625,-0.0560636520385742,0.0134082809090614,0.0063888523727655,-0.0005326317623257,-0.0003994738217443,-0.0007989476434886
1.7726401535064965e+18,4.48749658203125,-0.0656461715698242,0.0086146369576454,-0.0222553610801696,-0.0002663158811628,-0.00093210558407,0.0005326317623257
1.7726401535464776e+18,4.5274775390625,-0.0608549118041992,0.00376458466053,-0.0079843644052743,0.0,-0.00093210558407,-0.0007989476434886
1.7726401535664678e+18,4.5474677734375,-0.0518722534179687,-0.0010312460362911,-0.0179187282919883,-0.0007989476434886,0.00093210558407,-0.0002663158811628
1.7726401535864584e+18,4.567458251953125,-0.0560665130615234,0.0227784253656864,-0.0081559084355831,-0.0002663158811628,-0.00093210558407,-0.0013315794058144
1.7726401536064486e+18,4.58744873046875,-0.0518732070922851,0.0186565406620502,0.0157863441854715,-0.0010652635246515,-0.0011984214652329,0.0002663158811628
1.7726401536264392e+18,4.607439208984375,-0.0704383850097656,0.018700074404478,0.0007721837610006,-0.0018642111681401,0.0003994738217443,-0.0005326317623257
1.7726401536464297e+18,4.6274296875,-0.070439338684082,0.0138044916093349,0.0008878726512193,0.0007989476434886,0.0006657897029072,0.0
1.7726401536664202e+18,4.647420166015625,-0.0656471252441406,-0.0053830258548259,0.0103074312210083,-0.0005326317623257,-0.0003994738217443,0.0010652635246515
1.7726401536864105e+18,4.667410400390625,-0.0800189971923828,-0.0004155188798904,-0.0233403965830802,0.0005326317623257,-0.0014647373463958,0.0
1.7726401537064008e+18,4.68740087890625,-0.0470809936523437,-0.0050214454531669,-0.0137254539877176,-0.0002663158811628,0.0001331579405814,0.0002663158811628
1.7726401537263908e+18,4.707390869140625,-0.0422906875610351,-0.0002622380852699,-0.0088052675127983,0.0,-0.0006657897029072,-0.0002663158811628
1.7726401537463808e+18,4.727380859375,-0.0518732070922851,0.0186830051243305,0.0102483835071325,0.0005326317623257,0.0001331579405814,-0.0002663158811628
1.7726401537663708e+18,4.747370849609375,-0.0375003814697265,0.0042706578969955,0.0008318703621625,-0.0005326317623257,0.0001331579405814,0.0007989476434886
1.7726401537863608e+18,4.76736083984375,-0.0608558654785156,-0.0100134052336215,0.0010503940284252,0.0002663158811628,0.0002663158811628,-0.0005326317623257
1.7726401538063508e+18,4.787350830078125,-0.0608558654785156,0.0085909254848957,0.0022036395967006,-0.0002663158811628,0.0007989476434886,-0.0010652635246515
1.7726401538263409e+18,4.8073408203125,-0.056065559387207,0.0037877820432186,-0.0163244772702455,0.0002663158811628,0.0005326317623257,0.0007989476434886
1.772640153846331e+18,4.827330810546875,-0.0470819473266601,-0.0009552501142024,-0.0066163092851638,-0.0007989476434886,0.0,0.0005326317623257
1.772640153866321e+18,4.84732080078125,-0.0518732070922851,0.0087633170187473,-0.0016549006104469,0.0003994738217443,-0.0002663158811628,0.0002663158811628
1.772640153886311e+18,4.867310791015625,-0.0470819473266601,0.0136305652558803,0.0079771056771278,0.0003994738217443,0.0007989476434886,0.0013315794058144
1.772640153906301e+18,4.887301025390625,-0.056065559387207,-0.0055822990834712,-0.0063224341720342,-0.0001331579405814,-0.0010652635246515,-0.0002663158811628
1.772640153926291e+18,4.907291015625,-0.0560665130615234,-0.0006919838488101,-0.0157638359814882,-0.0006657897029072,-0.0002663158811628,-0.0026631588116288
1.7726401539462812e+18,4.92728125,-0.0279188156127929,0.0185395963490009,-0.005459014326334,-0.00093210558407,0.0002663158811628,0.0005326317623257
1.7726401539662712e+18,4.947271240234375,-0.0470838546752929,0.0136157646775245,0.009014293551445,0.0001331579405814,0.0002663158811628,-0.0002663158811628
1.7726401539862612e+18,4.96726123046875,-0.0608577728271484,-0.0008132271468639,-0.0051814876496791,0.0006657897029072,-0.0013315794058144,-0.0005326317623257
1.7726401540062513e+18,4.987251220703125,-0.0608587265014648,0.0134793259203433,-0.0022246204316616,-0.0001331579405814,0.0018642111681401,-0.0007989476434886
1.7726401540262413e+18,5.0072412109375,-0.0656499862670898,0.0132951326668262,-0.0120360367000103,-0.0003994738217443,0.0002663158811628,0.0002663158811628
1.7726401540462313e+18,5.027231201171875,-0.0656499862670898,0.0041426606476306,-0.0026478432118892,0.0005326317623257,0.0,0.0
1.7726401540662213e+18,5.04722119140625,-0.0518760681152343,0.0089651867747306,0.0069859530776739,-0.0007989476434886,-0.0005326317623257,-0.0007989476434886
1.7726401540862113e+18,5.06721142578125,-0.0560684204101562,0.008944246917963,0.0117157809436321,-0.0002663158811628,0.0013315794058144,0.0002663158811628
1.7726401541062013e+18,5.087201416015625,-0.0656509399414062,0.0041404776275157,-0.0120512694120407,-0.0005326317623257,0.0007989476434886,-0.0002663158811628
1.7726401541461814e+18,5.127181396484375,-0.0704402923583984,0.0091073103249073,0.0117868967354297,-0.0005326317623257,0.0002663158811628,-0.0005326317623257
1.7726401541661714e+18,5.14717138671875,-0.0608587265014648,-0.0004670843482017,0.0168202854692935,0.0005326317623257,0.0005326317623257,0.0
1.7726401541861614e+18,5.167161376953125,-0.0608587265014648,-0.0004980377852916,-0.0118941403925418,-0.0010652635246515,0.0,-0.0007989476434886
1.772640154206152e+18,5.18715185546875,-0.0896062850952148,0.013695728033781,0.0024853516370058,-0.0002663158811628,0.0005326317623257,0.0
1.7726401542261425e+18,5.207142578125,-0.0656499862670898,0.0041530914604663,0.0215184818953275,0.0005326317623257,0.0010652635246515,-0.0002663158811628
1.772640154246133e+18,5.227133056640625,-0.0800237655639648,-0.0005381591618061,0.0073003284633159,0.0005326317623257,0.0007989476434886,0.0005326317623257
1.7726401542661235e+18,5.24712353515625,-0.0560684204101562,0.0090421512722969,-0.0023706331849098,0.0,-0.0010652635246515,0.0005326317623257
1.772640154286114e+18,5.267114013671875,-0.0752344131469726,0.0039515271782875,-0.0117645002901554,0.0007989476434886,-0.0013315794058144,0.0002663158811628
1.7726401543061046e+18,5.2871044921875,-0.047088623046875,0.0038605257868766,-0.0076527297496795,0.0007989476434886,-0.0005326317623257,-0.0007989476434886
1.772640154326095e+18,5.30709521484375,-0.0656518936157226,0.0134909823536872,-0.0126728061586618,-0.0002663158811628,0.0,0.0002663158811628
1.7726401543460856e+18,5.327085693359375,-0.060861587524414,0.018321793526411,-0.012484636157751,0.0,0.0002663158811628,0.0
1.7726401543660762e+18,5.347076171875,-0.056070327758789,0.0088485926389694,0.0067817419767379,0.0,-0.0002663158811628,0.0002663158811628
1.7726401543860667e+18,5.367066650390625,-0.0752334594726562,-0.0197896547615528,-0.0268015656620264,-0.0002663158811628,-0.0002663158811628,0.0002663158811628
1.7726401544060572e+18,5.38705712890625,-0.0518779754638671,0.0090456791222095,-0.0161628983914852,-0.0007989476434886,0.0,0.0005326317623257
1.772640154426048e+18,5.407048095703125,-0.0422983169555664,0.0040851272642612,-0.0112362541258335,-0.0003994738217443,0.0013315794058144,-0.0010652635246515
1.7726401544460385e+18,5.42703857421875,-0.0656518936157226,0.0131442807614803,0.0124474130570888,0.0006657897029072,0.0002663158811628,0.0
1.772640154466029e+18,5.447029052734375,-0.060861587524414,0.0089303329586982,0.0171661023050546,0.0005326317623257,-0.0002663158811628,0.0002663158811628
1.7726401544860196e+18,5.46701953125,-0.065652847290039,-0.0005519427359104,-0.006453113630414,-0.0007989476434886,-0.0002663158811628,-0.0002663158811628
1.77264015450601e+18,5.487010009765625,-0.056070327758789,-0.0052352435886859,-0.0015968363732099,-0.0002663158811628,0.0005326317623257,-0.0005326317623257
1.7726401545260006e+18,5.507000732421875,-0.0608606338500976,-0.005232285708189,0.0030937865376472,0.0006657897029072,-0.0005326317623257,0.0002663158811628
1.7726401545459912e+18,5.5269912109375,-0.070444107055664,-0.0053325593471527,-0.0352635905146598,0.0011984214652329,0.0010652635246515,0.0
1.7726401545659817e+18,5.546981689453125,-0.0375051498413085,0.0042879730463027,-0.0115902069956064,0.0003994738217443,-0.0013315794058144,-0.0005326317623257
1.7726401545859722e+18,5.56697216796875,-0.04229736328125,0.0041183307766914,-0.0067753680050373,-0.0006657897029072,-0.0005326317623257,-0.0013315794058144
1.7726401546059628e+18,5.586962646484375,-0.0470876693725585,0.0040660090744495,-0.0020740181207656,-0.0003994738217443,0.0007989476434886,-0.0010652635246515
1.7726401546259533e+18,5.606953369140625,-0.0560722351074218,-0.000807836651802,-0.0067899301648139,-0.0006657897029072,-0.0002663158811628,-0.0005326317623257
1.7726401546459438e+18,5.62694384765625,-0.0608596801757812,-0.0054121017456054,0.0162856858223676,-0.0001331579405814,0.0005326317623257,-0.0005326317623257
1.7726401546659343e+18,5.646934326171875,-0.0608596801757812,-0.0005476288497447,-0.0028621926903724,-0.0007989476434886,0.0015978952869772,0.0010652635246515
1.772640154685925e+18,5.666925048828125,-0.0656518936157226,0.0137158520519733,-0.0028986744582653,0.0005326317623257,0.0005326317623257,0.0002663158811628
1.7726401547059162e+18,5.686916259765625,-0.0656518936157226,0.0184404402971267,0.0017420183867216,-0.0002663158811628,-0.0007989476434886,0.0002663158811628
1.7726401547458988e+18,5.726898681640625,-0.0422954559326171,-0.0103313438594341,-0.0080065224319696,0.0,-0.0013315794058144,-0.0002663158811628
1.7726401547658903e+18,5.746890380859375,-0.0422945022583007,0.0183496549725532,-0.0081873256713151,-0.0007989476434886,0.0023968429304659,-0.0002663158811628
1.7726401547858816e+18,5.766881591796875,-0.0704421997070312,-0.00089593231678,-0.0177245903760194,0.0,-0.0002663158811628,-0.0010652635246515
1.772640154805873e+18,5.786872802734375,-0.0608587265014648,0.0040444433689117,0.0020442232489585,0.0,-0.0002663158811628,-0.0007989476434886
1.7726401548258644e+18,5.806864501953125,-0.0704412460327148,0.0090213008224964,-0.002731779590249,0.0002663158811628,-0.0005326317623257,-0.0002663158811628
1.7726401548458557e+18,5.826855712890625,-0.0608587265014648,-0.0053473785519599,0.0071087274700403,0.0,-0.0018642111681401,0.0010652635246515
1.772640154865847e+18,5.846846923828125,-0.0752325057983398,0.0089509636163711,-0.0118652544915676,0.0005326317623257,0.0002663158811628,-0.0002663158811628
1.7726401548858383e+18,5.86683837890625,-0.0560712814331054,0.0040422603487968,-0.0116234887391328,0.0001331579405814,0.0,-0.0002663158811628
1.77264015490583e+18,5.886829833984375,-0.0560722351074218,-0.0008573830127716,0.0028071012347936,0.0001331579405814,-0.0007989476434886,0.0
1.7726401549458127e+18,5.926812744140625,-0.0560741424560546,0.0126647837460041,-0.0256200805306434,-0.00093210558407,-0.0007989476434886,-0.0007989476434886
1.772640154965804e+18,5.946803955078125,-0.0518817901611328,0.0078009478747844,-0.0161535199731588,0.0001331579405814,-0.0007989476434886,-0.0005326317623257
1.7726401549857953e+18,5.96679541015625,-0.0656566619873046,-0.0013415291905403,-0.0210495721548795,0.0001331579405814,0.0002663158811628,-0.0005326317623257
1.7726401550057866e+18,5.98678662109375,-0.0608644485473632,-0.0012918747961521,-0.0019744113087654,0.0001331579405814,-0.0007989476434886,-0.0007989476434886
1.7726401550257782e+18,6.006778076171875,-0.0518827438354492,0.0177796222269535,-0.0019604191184043,0.0001331579405814,0.0,0.0
1.772640155065761e+18,6.046760986328125,-0.0560741424560546,0.0079895593225955,0.0167270861566066,0.0001331579405814,-0.0005326317623257,-0.0002663158811628
1.7726401550857523e+18,6.06675244140625,-0.0518827438354492,-0.0017248839139938,-0.0072541795670986,0.0003994738217443,-0.0013315794058144,0.002130527049303
1.7726401551057436e+18,6.08674365234375,-0.0470914840698242,-0.0064827017486095,-0.0071765445172786,0.0001331579405814,0.0002663158811628,0.0
1.772640155125735e+18,6.10673486328125,-0.056075096130371,-0.0017202459275722,-0.0029155500233173,-0.0007989476434886,-0.0005326317623257,-0.0010652635246515
1.7726401551657178e+18,6.1467177734375,-0.0656566619873046,-0.0016916058957576,-0.026141682639718,-0.0007989476434886,0.0002663158811628,-0.0007989476434886
1.772640155185709e+18,6.166708984375,-0.0470924377441406,0.0125204622745513,-0.0027695968747138,0.0002663158811628,0.0013315794058144,-0.0002663158811628
1.7726401552057006e+18,6.18670068359375,-0.060866355895996,-0.0017436668276786,-0.0116145871579647,0.0,0.0010652635246515,0.0
1.7726401552256924e+18,6.2066923828125,-0.0608673095703125,0.0030363388359546,-0.0065897852182388,0.0005326317623257,0.0013315794058144,0.0002663158811628
1.772640155245684e+18,6.22668408203125,-0.0470952987670898,0.0075451843440532,-0.006566671654582,0.0005326317623257,-0.0002663158811628,-0.0005326317623257
1.7726401552656758e+18,6.24667578125,-0.0423049926757812,0.0075241848826408,-0.0017098318785429,0.0,0.0010652635246515,0.0005326317623257
1.7726401552856676e+18,6.26666748046875,-0.0656614303588867,-0.0021638199687004,-0.0063733644783496,0.0010652635246515,0.0,-0.0007989476434886
1.7726401553056591e+18,6.2866591796875,-0.0896167755126953,0.0113845355808734,-0.001429233700037,0.0002663158811628,-0.0013315794058144,0.0
1.772640155325651e+18,6.30665087890625,-0.0518884658813476,0.0163573957979679,-0.0109437387436628,0.0007989476434886,-0.0002663158811628,0.0007989476434886
1.7726401553456425e+18,6.326642578125,-0.0656614303588867,0.0069239847362041,-0.0013653207570314,-0.0005326317623257,-0.0002663158811628,0.0005326317623257
1.7726401553656343e+18,6.34663427734375,-0.0470972061157226,0.0067586600780487,-0.0060470048338174,0.0005326317623257,0.0,-0.0007989476434886
1.7726401553856259e+18,6.3666259765625,-0.0560808181762695,-0.0070488862693309,0.0032598301768302,0.0006657897029072,-0.0023968429304659,-0.0005326317623257
1.7726401554056177e+18,6.38661767578125,-0.0608711242675781,-0.002228133380413,0.0027021672576665,0.0001331579405814,-0.0002663158811628,0.0002663158811628
1.7726401554256092e+18,6.406609130859375,-0.0656614303588867,0.00747512280941,-0.0114970318973064,0.0003994738217443,-0.0005326317623257,0.0007989476434886
1.772640155445601e+18,6.42660107421875,-0.0704526901245117,0.0074395611882209,-0.0019698981195688,0.0001331579405814,0.0005326317623257,0.0002663158811628
1.7726401554655926e+18,6.446592529296875,-0.0608711242675781,0.0025702975690364,-0.0065455418080091,0.0003994738217443,-0.0005326317623257,0.0005326317623257
1.7726401554855844e+18,6.46658447265625,-0.0608701705932617,-0.0067576728761196,0.0221492704004049,-0.0001331579405814,0.0002663158811628,-0.0018642111681401
1.772640155505576e+18,6.486575927734375,-0.0518884658813476,-0.0069734379649162,0.0124836955219507,-0.0003994738217443,0.0007989476434886,0.0005326317623257
1.7726401555255677e+18,6.506567626953125,-0.0656623840332031,0.0025819465517997,0.0076176151633262,0.00093210558407,-0.0002663158811628,-0.0002663158811628
1.7726401555455593e+18,6.526559326171875,-0.0752439498901367,0.0072854571044445,-0.0163626037538051,-0.0005326317623257,0.0007989476434886,0.0002663158811628
1.772640155565551e+18,6.546551025390625,-0.0560798645019531,0.0170213431119918,0.0124044213443994,0.0002663158811628,0.0010652635246515,0.0005326317623257
1.7726401555855427e+18,6.566542724609375,-0.0560808181762695,-0.0022106058895587,-0.00669926404953,0.0005326317623257,0.0002663158811628,-0.0007989476434886
1.7726401556055345e+18,6.586534423828125,-0.0560798645019531,0.0124291479587554,-0.0112656559795141,0.0002663158811628,0.0002663158811628,-0.0013315794058144
1.772640155625526e+18,6.606526123046875,-0.0656614303588867,0.0029770024120807,-0.0063640214502811,0.0005326317623257,0.0005326317623257,0.0
1.7726401556455178e+18,6.626517822265625,-0.0470952987670898,0.0078351199626922,-0.0208061672747135,0.0010652635246515,0.0007989476434886,0.0001331579405814
1.7726401556655094e+18,6.64650927734375,-0.0656604766845703,0.022194005548954,-0.0209268238395452,-0.0015978952869772,0.0002663158811628,0.0001331579405814
1.7726401556855012e+18,6.666501220703125,-0.0560798645019531,-0.0018303766846656,-0.0063390042632818,-0.0002663158811628,0.0,-0.0006657897029072
1.7726401557054922e+18,6.6864921875,-0.0608682632446289,-0.016034435480833,-0.0161553937941789,0.0007989476434886,-0.0002663158811628,-0.0003994738217443
1.7726401557254828e+18,6.706482666015625,-0.0800323486328125,0.0126643851399421,-0.0306290071457624,0.0,-0.0005326317623257,-0.00093210558407
1.7726401557454735e+18,6.7264736328125,-0.0470952987670898,0.003055315464735,0.007780771702528,-0.0003994738217443,-0.0002663158811628,0.0006657897029072
1.772640155765464e+18,6.746464111328125,-0.0560789108276367,0.0029241815209388,0.002716913819313,-0.0003994738217443,0.0005326317623257,0.0001331579405814
1.7726401557854546e+18,6.76645458984375,-0.0752420425415039,-0.0113930292427539,-0.0209391880780458,0.0003994738217443,0.0005326317623257,-0.0003994738217443
1.7726401558054454e+18,6.7864453125,-0.0704517364501953,0.0030576139688491,0.0030555240809917,-0.0001331579405814,0.0005326317623257,-0.0003994738217443
1.772640155825436e+18,6.806435791015625,-0.0704507827758789,0.0080203413963317,0.0031993091106414,-0.00093210558407,0.0002663158811628,0.0003994738217443
1.7726401558454267e+18,6.8264267578125,-0.0656595230102539,-0.0159741677343845,-0.0112611036747694,0.00093210558407,0.0,-0.0006657897029072
1.7726401558654172e+18,6.846417236328125,-0.0518856048583984,-0.006399180740118,-0.0115036536008119,0.0003994738217443,-0.0002663158811628,-0.0006657897029072
1.7726401558854077e+18,6.86640771484375,-0.0704498291015625,0.0129262320697307,-0.0066525712609291,0.0001331579405814,-0.0002663158811628,-0.0001331579405814
1.7726401559053985e+18,6.8863984375,-0.0800304412841796,-0.001412283629179,-0.0020211767405271,-0.0003994738217443,-0.0002663158811628,0.0011984214652329
1.7726401559453796e+18,6.926379638671875,-0.0656595230102539,0.0126140527427196,-0.0067035071551799,-0.0001331579405814,0.0007989476434886,-0.0001331579405814
1.7726401559653704e+18,6.946370361328125,-0.0656604766845703,0.003005001693964,0.0126359425485134,-0.00093210558407,0.0007989476434886,-0.0014647373463958
1.772640155985361e+18,6.96636083984375,-0.0518865585327148,-0.0066358558833599,-0.0016352105885744,-0.00093210558407,0.0,-0.0001331579405814
1.7726401560053517e+18,6.9863515625,-0.0560789108276367,-0.0064864493906497,-0.0118499398231506,-0.0006657897029072,-0.0002663158811628,-0.0006657897029072
1.7726401560253422e+18,7.00634228515625,-0.0518875122070312,-0.0018173903226852,0.0026146136224269,-0.0001331579405814,-0.0005326317623257,-0.0003994738217443
1.772640156045333e+18,7.0263330078125,-0.0608701705932617,0.0077795833349227,-0.0260302927345037,0.0003994738217443,0.0007989476434886,-0.0011984214652329
1.7726401560653235e+18,7.046323486328125,-0.0560798645019531,-0.0017675906419754,-0.00685915350914,-0.0006657897029072,-0.0013315794058144,0.0001331579405814
1.772640156085314e+18,7.06631396484375,-0.0704517364501953,0.007880825549364,0.0075422991067171,0.0001331579405814,-0.0005326317623257,0.0001331579405814
1.7726401561053048e+18,7.086304931640625,-0.0704526901245117,0.0222384370863437,-0.0113940685987472,0.0006657897029072,0.0002663158811628,-0.0006657897029072
1.7726401561252954e+18,7.10629541015625,-0.0560808181762695,0.0078798159956932,-0.0064920727163553,0.0001331579405814,-0.0013315794058144,0.0003994738217443
1.772640156145286e+18,7.126285888671875,-0.0518884658813476,-0.001823354512453,-0.0018079169094562,0.0003994738217443,0.0010652635246515,0.0006657897029072
1.7726401561652767e+18,7.146276611328125,-0.051889419555664,0.0027323365211486,-0.0064864009618759,-0.00093210558407,0.0010652635246515,0.0001331579405814
1.7726401561852672e+18,7.16626708984375,-0.0656642913818359,0.0074337683618068,-0.0064803417772054,-0.0001331579405814,0.0002663158811628,-0.0003994738217443
1.7726401562052577e+18,7.1862578125,-0.0848283767700195,-0.0117774568498134,0.00347744487226,0.0006657897029072,-0.0002663158811628,0.0006657897029072
1.772640156225248e+18,7.206248046875,-0.0656623840332031,-0.006783403456211,0.0033598151057958,-0.00093210558407,-0.0013315794058144,0.0006657897029072
1.7726401562452383e+18,7.22623828125,-0.0470952987670898,0.0030328407883644,-0.001537624746561,-0.0003994738217443,0.0002663158811628,0.0003994738217443
1.7726401562652285e+18,7.246228515625,-0.0656604766845703,-0.0017229914665222,-0.0110502857714891,-0.0006657897029072,-0.0007989476434886,-0.0006657897029072
1.772640156285219e+18,7.266218994140625,-0.0560789108276367,0.0080304816365242,-0.02542569860816,0.0003994738217443,0.0005326317623257,-0.0011984214652329
1.7726401563052093e+18,7.286209228515625,-0.0752420425415039,-0.0255237855017185,-0.0062548760324716,0.0014647373463958,0.0002663158811628,-0.0001331579405814
1.7726401563251996e+18,7.30619970703125,-0.0518865585327148,-0.0065237842500209,-0.0110292062163352,-0.0001331579405814,0.0007989476434886,-0.0003994738217443
1.77264015634519e+18,7.32618994140625,-0.0518865585327148,0.0127487406134605,-0.0112194400280714,0.0003994738217443,0.0007989476434886,0.0001331579405814
1.7726401563651802e+18,7.34618017578125,-0.0560789108276367,0.022261593490839,0.0032444130629301,-0.0001331579405814,0.0,-0.0003994738217443
1.7726401563851707e+18,7.366170654296875,-0.0518865585327148,0.0079558305442333,0.017469810321927,0.0003994738217443,0.0002663158811628,-0.0006657897029072
1.772640156405161e+18,7.386160888671875,-0.0560779571533203,0.0032420977950096,-0.0160374045372009,-0.0003994738217443,0.0,-0.0001331579405814
1.7726401564251512e+18,7.406151123046875,-0.060866355895996,0.0035271979868412,-0.0162692628800869,0.0001331579405814,-0.0007989476434886,-0.00093210558407
1.7726401564451415e+18,7.4261416015625,-0.056075096130371,-0.0012299083173274,-0.0066797472536563,-0.0003994738217443,0.0018642111681401,-0.0011984214652329
1.772640156465132e+18,7.446132080078125,-0.0518836975097656,-0.0013005398213863,-0.0155316591262817,0.0003994738217443,0.0002663158811628,0.00093210558407
1.7726401564851223e+18,7.466122314453125,-0.0470924377441406,0.0037222541868686,-0.0106199476867914,-0.0003994738217443,0.0002663158811628,-0.0014647373463958
1.7726401565051126e+18,7.486112548828125,-0.0518817901611328,0.0086821354925632,-0.0108639560639858,0.00093210558407,0.0,0.0003994738217443
1.7726401565251028e+18,7.506102783203125,-0.0560741424560546,0.0085900016129016,-0.0109513532370328,0.0006657897029072,0.0002663158811628,-0.0001331579405814
1.772640156545093e+18,7.526093017578125,-0.0752372741699218,-0.0008799582719802,-0.0013208612799644,0.0003994738217443,-0.0002663158811628,-0.0011984214652329
1.7726401565650836e+18,7.546083740234375,-0.0656538009643554,0.0041681192815303,-0.0111463963985443,0.0006657897029072,-0.0007989476434886,0.0003994738217443
1.772640156585074e+18,7.566073974609375,-0.0422983169555664,-0.0055013671517372,-0.0062965247780084,-0.00093210558407,-0.0005326317623257,0.0001331579405814
1.7726401566050642e+18,7.586064208984375,-0.0518789291381835,0.0090331397950649,0.0026742201298475,-0.0014647373463958,-0.0005326317623257,0.0011984214652329
1.7726401566250545e+18,7.606054443359375,-0.0752334594726562,0.0044733211398124,0.0025583263486623,-0.0003994738217443,0.0002663158811628,-0.0003994738217443
1.772640156645045e+18,7.626044921875,-0.0608606338500976,0.009222712367773,-0.0213043522089719,-0.0003994738217443,0.0,0.0011984214652329
1.7726401566650353e+18,7.64603515625,-0.0560693740844726,-0.0048985928297042,-0.0165869574993848,0.0003994738217443,-0.0002663158811628,-0.0006657897029072
1.7726401566850255e+18,7.666025634765625,-0.0518779754638671,0.0094325430691242,-0.0021113641560077,0.0006657897029072,-0.0007989476434886,-0.0003994738217443
1.7726401567050163e+18,7.686016357421875,-0.0656509399414062,-0.0001180917024612,-0.0021142940968275,-0.0001331579405814,-0.0002663158811628,0.0006657897029072
1.7726401567250074e+18,7.70600732421875,-0.0518760681152343,-0.0096464715898036,-0.0070515777915716,-0.0003994738217443,0.0002663158811628,-0.0006657897029072
1.7726401567449984e+18,7.725998291015625,-0.0656518936157226,0.0092151723802089,-0.0070421118289232,-0.0003994738217443,0.0,0.0019973691087216
1.7726401567649894e+18,7.745989501953125,-0.0608596801757812,0.023618571460247,-0.0072942599654197,-0.0006657897029072,-0.0007989476434886,0.0003994738217443
1.7726401567849805e+18,7.76598046875,-0.0752325057983398,0.0140372104942798,-0.0025558546185493,-0.0014647373463958,-0.0010652635246515,-0.0001331579405814
1.7726401568049715e+18,7.785971435546875,-0.0704412460327148,-0.0145920515060424,0.0123812574893236,0.0003994738217443,0.0002663158811628,-0.0006657897029072
1.7726401568249628e+18,7.805962890625,-0.0470838546752929,0.0045924261212348,-0.0070351995527744,-0.0003994738217443,0.0007989476434886,-0.0006657897029072
1.7726401568449539e+18,7.825953857421875,-0.0470838546752929,0.0045349895954132,-0.0072348359972238,-0.0006657897029072,0.0005326317623257,-0.0006657897029072
1.772640156864945e+18,7.84594482421875,-0.0752315521240234,0.0043748393654823,-0.0022872872650623,-0.00093210558407,-0.002130527049303,-0.0003994738217443
1.772640156884936e+18,7.86593603515625,-0.0470848083496093,0.0092030577361583,-0.011743925511837,0.0001331579405814,0.0002663158811628,-0.0006657897029072
1.772640156904927e+18,7.885927001953125,-0.0608587265014648,-0.000424537807703,0.0122292805463075,-0.0007989476434886,-0.0007989476434886,-0.0001331579405814
1.772640156924918e+18,7.90591796875,-0.0704431533813476,0.0042056255042552,-0.0069257505238056,-0.0002663158811628,-0.0007989476434886,-0.00093210558407
1.772640156944909e+18,7.925908935546875,-0.0470876693725585,-0.0005272403359413,-0.0161131750792264,0.0,0.0,-0.00093210558407
1.7726401569649e+18,7.945900146484375,-0.0470876693725585,-0.000520933419466,-0.0112512093037366,-0.0014647373463958,0.0002663158811628,0.0003994738217443
1.7726401569848914e+18,7.965891357421875,-0.0518779754638671,0.0227886699140071,0.0028997417539358,-0.0006657897029072,-0.0002663158811628,0.0001331579405814
1.7726401570048824e+18,7.98588232421875,-0.0608606338500976,0.0089672692120075,0.0166297685354948,-0.0001331579405814,0.0002663158811628,-0.0003994738217443
1.7726401570248735e+18,8.00587353515625,-0.0422964096069335,-0.0005295798182487,-0.0073142796754837,-0.0011984214652329,-0.0002663158811628,0.0001331579405814
1.7726401570448645e+18,8.025864501953125,-0.0375051498413085,-0.0052897967398166,0.0167081356048584,0.0003994738217443,0.0002663158811628,-0.0001331579405814
1.7726401570648556e+18,8.04585546875,-0.0608606338500976,-0.0004917979240417,-0.0023904144763946,0.0001331579405814,0.0,-0.00093210558407
1.7726401570848466e+18,8.0658466796875,-0.060861587524414,0.0041389837861061,-0.0119374673813581,-0.0001331579405814,-0.0010652635246515,0.0003994738217443
1.7726401571048376e+18,8.085837646484375,-0.0656538009643554,0.0087590813636779,-0.0167871881276369,0.0011984214652329,0.0002663158811628,0.0001331579405814
1.772640157124829e+18,8.105828857421875,-0.0608625411987304,0.0088487640023231,-0.0165857356041669,-0.0003994738217443,-0.0013315794058144,-0.0001331579405814
1.77264015714482e+18,8.125820068359374,-0.0560722351074218,-0.0053498968482017,-0.0211128517985343,-0.0003994738217443,-0.0002663158811628,-0.0001331579405814
1.772640157164811e+18,8.14581103515625,-0.0422983169555664,0.0138922780752182,-0.0113405305892229,-0.0001331579405814,-0.0010652635246515,-0.00093210558407
1.772640157184802e+18,8.165802001953125,-0.0470895767211914,-0.0100865513086318,0.0078638698905706,-0.0003994738217443,-0.0005326317623257,-0.0003994738217443
1.772640157204793e+18,8.18579296875,-0.0560731887817382,-0.0054857172071933,0.0034630894660949,0.0007989476434886,-0.0010652635246515,-0.0006657897029072
1.7726401572247841e+18,8.2057841796875,-0.0470895767211914,0.0233626812696456,-0.0155520103871822,0.0002663158811628,0.0007989476434886,0.0017310532275587
1.7726401572647665e+18,8.245766357421875,-0.0422992706298828,0.0186338499188423,0.0228875577449798,0.0,0.0007989476434886,0.0003994738217443
1.7726401572847575e+18,8.265757568359374,-0.0518808364868164,0.0088025666773319,-0.0013173967599868,0.0007989476434886,0.0002663158811628,-0.0003994738217443
1.7726401573047485e+18,8.28574853515625,-0.0608634948730468,0.0137507282197475,-0.0108139105141162,0.0002663158811628,-0.0005326317623257,-0.0001331579405814
1.7726401573247398e+18,8.30573974609375,-0.0560731887817382,0.0231544971466064,-0.0060011222958564,-0.0002663158811628,0.0023968429304659,-0.0011984214652329
1.772640157364722e+18,8.345721923828124,-0.0752363204956054,-0.0151868686079978,-0.0157148372381925,-0.0002663158811628,0.0,-0.0003994738217443
1.7726401573847132e+18,8.365713134765626,-0.056075096130371,0.0037389919161796,-0.0012272559106349,0.0002663158811628,-0.0005326317623257,-0.0001331579405814
1.7726401574047043e+18,8.385704345703125,-0.056075096130371,0.0180677957832813,-0.030054347589612,0.0001331579405814,0.0,0.0003994738217443
1.7726401574246953e+18,8.4056953125,-0.0518836975097656,0.0129908621311187,-0.030081957578659,-0.0003994738217443,0.0,0.0003994738217443
1.7726401574446863e+18,8.425686279296874,-0.0560779571533203,-0.0014263018965721,-0.0393055528402328,0.0002663158811628,0.0005326317623257,0.0002663158811628
1.7726401574646776e+18,8.445677734375,-0.0470943450927734,-0.0014173574745655,-0.0246068034321069,0.0002663158811628,0.0,0.0
1.7726401574846687e+18,8.465668701171875,-0.0656604766845703,0.0129821673035621,-0.0291673615574836,0.0002663158811628,-0.0005326317623257,0.0002663158811628
1.7726401575046597e+18,8.48565966796875,-0.0848245620727539,0.0176857262849807,-0.0250137485563755,0.0002663158811628,0.0,0.0
1.7726401575246508e+18,8.505650634765624,-0.0704526901245117,0.0080909356474876,-0.0152319408953189,-0.0002663158811628,0.0010652635246515,-0.0005326317623257
1.772640157544642e+18,8.52564208984375,-0.0518884658813476,-0.0062621794641017,-0.0151379741728305,-0.0005326317623257,0.0013315794058144,-0.0010652635246515
1.772640157564633e+18,8.545633056640625,-0.042306900024414,0.003161646425724,0.0040247403085231,-0.0002663158811628,0.0007989476434886,0.0005326317623257
1.772640157584624e+18,8.5656240234375,-0.042306900024414,0.0031599625945091,-0.005536476150155,0.0005326317623257,0.0,-0.0007989476434886
1.7726401576046152e+18,8.585615234375,-0.0560808181762695,0.0079385973513126,0.0088762547820806,0.0002663158811628,-0.0015978952869772,0.0015978952869772
1.7726401576246065e+18,8.6056064453125,-0.0752449035644531,-0.0016856119036674,-0.0054243747144937,-0.0007989476434886,0.0010652635246515,-0.0002663158811628
1.7726401576645885e+18,8.645588623046875,-0.032724380493164,-0.0014175735414028,-0.0095570515841245,-0.0003994738217443,0.0,-0.0010652635246515
1.7726401576845796e+18,8.66557958984375,-0.0608701705932617,-0.0013566240668296,-0.0005658250302076,0.0006657897029072,-0.0002663158811628,0.0005326317623257
1.772640157704571e+18,8.68557080078125,-0.0656604766845703,0.0130436681210994,-0.0193386301398277,0.0003994738217443,-0.0007989476434886,0.0002663158811628
1.772640157724562e+18,8.70556201171875,-0.0560798645019531,0.0177460834383964,-0.0193901639431715,-0.0006657897029072,0.0005326317623257,0.0010652635246515
1.7726401577645445e+18,8.74554443359375,-0.0608701705932617,-0.0158424563705921,-0.0146199595183134,0.0006657897029072,-0.0010652635246515,0.0002663158811628
1.7726401577845356e+18,8.76553564453125,-0.0470952987670898,-0.0013574063777923,-0.0148923266679048,0.0001331579405814,-0.0002663158811628,0.0005326317623257
1.7726401578045268e+18,8.78552685546875,-0.0608673095703125,0.0125294812023639,-0.0145654194056987,0.0003994738217443,0.0,0.0007989476434886
1.7726401578245181e+18,8.80551806640625,-0.0656585693359375,-0.0019632875919342,-0.0100563522428274,0.0011984214652329,0.0005326317623257,-0.0005326317623257
1.7726401578645005e+18,8.84550048828125,-0.0375137329101562,0.0023674294352531,-0.0196471512317657,-0.0002663158811628,-0.0010652635246515,0.0
1.7726401578844918e+18,8.86549169921875,-0.0470952987670898,-0.0024900324642658,-0.0006826296448707,0.0015978952869772,-0.0002663158811628,-0.0005326317623257
1.7726401579044828e+18,8.88548291015625,-0.0656623840332031,0.0021707452833652,-0.0005179401487112,0.0,0.0013315794058144,0.0
1.772640157924474e+18,8.90547412109375,-0.0704536437988281,0.0069251060485839,-0.0053408443927764,-0.0002663158811628,0.002130527049303,0.0005326317623257
1.7726401579444654e+18,8.92546533203125,-0.037515640258789,0.0020043328404426,-0.0196593943983316,0.0002663158811628,-0.0002663158811628,0.0002663158811628
1.7726401579644567e+18,8.945456787109375,-0.0183534622192382,-0.0125680640339851,-0.0004341341555118,0.0,-0.0005326317623257,-0.0002663158811628
1.7726401579844477e+18,8.96544775390625,-0.0327262878417968,-0.0078831240534782,-0.0147637445479631,-0.0002663158811628,0.0010652635246515,0.0
1.772640158004439e+18,8.98543896484375,-0.0518913269042968,0.0071035698056221,-0.0152662321925163,0.0002663158811628,0.0005326317623257,-0.0005326317623257
1.77264015802443e+18,9.00543017578125,-0.0656642913818359,-0.0071679130196571,-0.0249897427856922,0.0010652635246515,-0.0002663158811628,0.0005326317623257
1.7726401580444214e+18,9.02542138671875,-0.0423088073730468,0.0167912282049655,-0.0201433282345533,0.0,0.0002663158811628,0.0007989476434886
1.7726401580644127e+18,9.04541259765625,-0.0560817718505859,0.0073537901043891,-0.0153609234839677,-0.0002663158811628,0.0002663158811628,0.0010652635246515
1.7726401580844037e+18,9.06540380859375,-0.0423078536987304,-0.0118275620043277,-0.0112375263124704,0.0,0.0,0.0002663158811628
1.772640158104395e+18,9.08539501953125,-0.0560817718505859,-0.0117926970124244,0.0031885914504528,-0.0005326317623257,0.0,-0.0010652635246515
1.7726401581243863e+18,9.10538623046875,-0.0518884658813476,0.0026313215494155,0.0224094912409782,-0.0010652635246515,0.0005326317623257,0.0
1.7726401581443773e+18,9.12537744140625,-0.032724380493164,0.0075671188533306,-0.0159229766577482,0.0,-0.0010652635246515,-0.0007989476434886
1.7726401581643686e+18,9.14536865234375,-0.0518884658813476,0.0028280168771743,-0.0062650069594383,0.0,-0.0007989476434886,0.0002663158811628
1.77264015818436e+18,9.16535986328125,-0.0470952987670898,0.0031404793262481,-0.006396971642971,0.0005326317623257,-0.0002663158811628,-0.0002663158811628
1.7726401582043515e+18,9.1853515625,-0.0608692169189453,0.0071972236037254,-0.0106077976524829,0.0002663158811628,-0.0005326317623257,-0.0002663158811628
1.7726401582243433e+18,9.20534326171875,-0.0518875122070312,0.0071594938635826,0.0039197020232677,0.0002663158811628,-0.0007989476434886,0.0007989476434886
1.772640158244335e+18,9.225335205078125,-0.0560789108276367,-0.0023329593241214,-0.0051484685391187,-0.0007989476434886,-0.0013315794058144,-0.0005326317623257
1.7726401582643272e+18,9.2453271484375,-0.0423040390014648,-0.0160880982875823,0.004170412197709,-0.0003994738217443,-0.0018642111681401,0.0
1.772640158284319e+18,9.265319091796876,-0.0704517364501953,-0.0072118714451789,0.0089995339512825,0.00093210558407,-0.0013315794058144,-0.0002663158811628
1.7726401583043108e+18,9.285310791015624,-0.0423049926757812,-0.002435527741909,-0.0004692785441875,0.0006657897029072,0.0,-0.0007989476434886
1.7726401583243028e+18,9.305302734375,-0.018350601196289,0.0118875838816165,-0.019578356295824,0.0011984214652329,-0.0007989476434886,-0.0002663158811628
1.7726401583442947e+18,9.325294677734377,-0.037515640258789,0.0020712912082672,-0.0004057753831148,0.00093210558407,-0.0002663158811628,0.0005326317623257
1.7726401583642865e+18,9.345286376953124,-0.0656614303588867,-0.0025244019925594,0.0044346395879983,0.0006657897029072,0.0,-0.0007989476434886
1.7726401583842785e+18,9.365278564453124,-0.0608692169189453,0.0215670019388198,-0.0052305404096841,-0.0003994738217443,0.0,0.0005326317623257
1.7726401584042703e+18,9.385270263671876,-0.0470972061157226,0.0070520192384719,0.0086863841861486,0.0006657897029072,0.0002663158811628,0.0
1.7726401584242621e+18,9.40526220703125,-0.0560798645019531,-0.0114008449018001,-0.0104964394122362,0.00093210558407,0.0,0.0007989476434886
1.772640158444254e+18,9.42525390625,-0.0656623840332031,0.0028923377394676,0.0135367531329393,0.0006657897029072,0.0002663158811628,0.0002663158811628
1.772640158464246e+18,9.44524609375,-0.0656604766845703,-0.0017581731081008,0.0133541394025087,0.0003994738217443,0.0002663158811628,0.0005326317623257
1.7726401585042296e+18,9.485229736328124,-0.0423040390014648,-0.0014998950064182,-0.0106333419680595,-0.0006657897029072,-0.0002663158811628,-0.0002663158811628
1.7726401585242217e+18,9.5052216796875,-0.0560770034790039,-0.0062432065606117,0.0035301260650157,-0.0002663158811628,-0.0010652635246515,-0.0005326317623257
1.7726401585442135e+18,9.525213623046875,-0.0704488754272461,-0.0061959140002727,0.0030597932636737,-0.0005326317623257,0.0002663158811628,0.0
1.7726401585642053e+18,9.545205322265623,-0.056075096130371,0.0081878192722797,0.0078893546015024,0.0,-0.0005326317623257,0.0018642111681401
1.7726401585841974e+18,9.565197265625,-0.0518827438354492,-0.0014625377953052,-0.0113947317004203,-0.0005326317623257,0.0,0.0007989476434886
1.7726401586041892e+18,9.585189208984374,-0.0470914840698242,0.017196238040924,-0.0253603756427764,0.0,0.0005326317623257,-0.0005326317623257
1.772640158624181e+18,9.605180908203126,-0.0279264450073242,0.0076795294880867,-0.0016545709222555,-0.0007989476434886,0.0,0.0015978952869772
1.772640158644173e+18,9.625173095703126,-0.047088623046875,0.0076917335391044,-0.0020088888704776,0.0,0.0,0.0010652635246515
1.7726401586641649e+18,9.645164794921875,-0.0656538009643554,-0.0020094290375709,-0.0064381901174783,-0.0015978952869772,-0.0007989476434886,0.0018642111681401
1.7726401586841567e+18,9.66515673828125,-0.0656538009643554,-0.0019207559525966,-0.0255322288721799,0.00093210558407,0.0002663158811628,0.0005326317623257
1.7726401587041477e+18,9.685147705078125,-0.0560731887817382,0.0219595916569232,0.0129799004644155,-0.0001331579405814,0.0002663158811628,0.0
1.772640158724138e+18,9.705137939453126,-0.0518798828125,0.0171577520668506,0.0177338756620883,-0.0003994738217443,-0.0010652635246515,-0.0007989476434886
1.7726401587441283e+18,9.725128173828123,-0.0560741424560546,0.0073807090520858,-0.015704171732068,0.0003994738217443,-0.0005326317623257,0.0013315794058144
1.7726401587641185e+18,9.745118408203124,-0.0560731887817382,-0.0116181559860706,-0.0061000790446996,0.00093210558407,0.0,0.0
1.7726401587841088e+18,9.76510888671875,-0.0375080108642578,0.0171167403459548,0.0081553906202316,-0.0006657897029072,0.0007989476434886,0.0002663158811628
1.772640158804099e+18,9.78509912109375,-0.0656566619873046,0.0216810926795005,-0.0067664515227079,0.0003994738217443,0.0,-0.0005326317623257
1.7726401588240893e+18,9.80508935546875,-0.056075096130371,-0.0023887306451797,0.0069706346839666,0.00093210558407,-0.0002663158811628,0.0007989476434886
1.7726401588440796e+18,9.82507958984375,-0.0423011779785156,-0.0064771436154842,-0.0120264589786529,-0.0006657897029072,0.0005326317623257,0.0002663158811628
1.7726401588840602e+18,9.86506005859375,-0.0518808364868164,-0.0109720155596733,0.0217380486428737,-0.00093210558407,-0.0007989476434886,0.0007989476434886
1.7726401589040504e+18,9.885050537109375,-0.0423002243041992,0.0075582191348075,-0.0022293683141469,0.0006657897029072,0.0010652635246515,0.0002663158811628
1.7726401589240407e+18,9.905040771484376,-0.0375070571899414,0.0077830851078033,-0.0167370308190584,-0.0003994738217443,-0.0002663158811628,0.0
1.772640158944031e+18,9.925031005859376,-0.0800285339355468,0.0032013654708862,0.0024013128131628,0.0003994738217443,-0.0002663158811628,0.0
1.7726401589640212e+18,9.945021240234375,-0.0560760498046875,0.0031246878206729,0.0122461691498756,-0.00093210558407,-0.0002663158811628,-0.0005326317623257
1.7726401589840115e+18,9.965011474609376,-0.056075096130371,0.0031526796519756,-0.0118550304323434,-0.0001331579405814,-0.0002663158811628,-0.0005326317623257
1.7726401590040018e+18,9.985001708984376,-0.056075096130371,0.0025838240981101,0.0030386243015527,-0.0006657897029072,-0.0005326317623257,0.0007989476434886
1.772640159023992e+18,10.004991943359377,-0.0423011779785156,0.0073920004069805,-0.0064940191805362,-0.0003994738217443,-0.0010652635246515,0.0002663158811628
1.772640159043982e+18,10.024982177734374,-0.0608654022216796,0.0120319314301013,-0.0112763810902833,-0.0003994738217443,-0.0018642111681401,-0.0002663158811628
1.7726401590639724e+18,10.044972412109376,-0.0470924377441406,0.0071022659540176,0.0032257977873086,0.0001331579405814,0.0,-0.0007989476434886
1.7726401590839626e+18,10.064962646484377,-0.0375118255615234,0.0020289756357669,-0.0066190250217914,0.0003994738217443,-0.0005326317623257,0.0005326317623257
1.772640159103953e+18,10.084952880859374,-0.0423030853271484,0.0068905688822269,-0.0065695717930793,-0.00093210558407,-0.0013315794058144,0.0
1.7726401591239432e+18,10.104943115234375,-0.0518856048583984,0.0115321911871433,0.0124400462955236,-0.0003994738217443,-0.0015978952869772,0.0
1.7726401591439334e+18,10.124933349609377,-0.0518836975097656,0.0067084394395351,0.0121299494057893,-0.0001331579405814,-0.0018642111681401,-0.0007989476434886
1.7726401591639237e+18,10.144923828125,-0.0656595230102539,0.0114547945559024,-0.0019953399896621,0.0003994738217443,-0.0010652635246515,0.0005326317623257
1.772640159183914e+18,10.1649140625,-0.0560770034790039,0.0019041076302528,-0.0020614527165889,-0.0001331579405814,-0.0005326317623257,0.0
1.7726401592039045e+18,10.184904541015625,-0.0518856048583984,0.0068180039525032,-0.002308527007699,0.0003994738217443,0.0015978952869772,-0.0007989476434886
1.7726401592238948e+18,10.204894775390626,-0.0704517364501953,0.0025512464344501,-0.0068402718752622,-0.0003994738217443,0.0002663158811628,0.0
1.7726401592438853e+18,10.22488525390625,-0.0470952987670898,0.002528078854084,0.0027671325951814,0.0011984214652329,0.0002663158811628,0.0005326317623257
1.7726401592638758e+18,10.244875732421876,-0.0423049926757812,0.0024010390043258,0.0123509559780359,-0.00093210558407,-0.0002663158811628,-0.0005326317623257
1.7726401592838664e+18,10.264866455078124,-0.0656614303588867,-0.0023480132222175,-0.0066587813198566,0.00093210558407,-0.0001331579405814,-0.0001331579405814
1.772640159303857e+18,10.28485693359375,-0.0560789108276367,0.0163160562515258,0.0026881266385316,-0.0001331579405814,-0.0006657897029072,-0.0006657897029072
1.7726401593238474e+18,10.304847412109376,-0.0752429962158203,0.0162066593766212,-0.0114662740379571,0.0003994738217443,0.0019973691087216,-0.0001331579405814
1.772640159343838e+18,10.324837890625,-0.0608711242675781,-0.0072512067854404,-0.0112995691597461,-0.0003994738217443,-0.0001331579405814,0.00093210558407
1.7726401593638285e+18,10.344828369140624,-0.0656623840332031,0.0257614850997924,0.0078766383230686,0.0001331579405814,-0.0001331579405814,0.0011984214652329
1.772640159383819e+18,10.364819091796877,-0.0518884658813476,0.0161226391792297,0.0030591655522584,-0.0011984214652329,-0.0011984214652329,-0.0006657897029072
1.7726401594038095e+18,10.3848095703125,-0.0560808181762695,-0.0126594491302967,-0.0053305495530366,0.0017310532275587,0.0003994738217443,-0.0003994738217443
1.7726401594238e+18,10.404800048828124,-0.0470952987670898,-0.0078650489449501,0.0084793306887149,0.0003994738217443,0.0011984214652329,-0.00093210558407
1.7726401594437906e+18,10.42479052734375,-0.0470962524414062,-0.0175231471657753,-0.0056889597326517,-0.0003994738217443,-0.0003994738217443,0.0003994738217443
1.772640159463781e+18,10.444781005859374,-0.0560808181762695,0.011073499917984,-0.0104208197444677,-0.0001331579405814,-0.0003994738217443,0.0003994738217443
1.7726401594837716e+18,10.464771728515624,-0.042306900024414,0.0159115456044673,0.0045715346932411,-0.0003994738217443,0.0001331579405814,-0.0001331579405814
1.772640159503762e+18,10.484761962890625,-0.0560827255249023,-0.0080912634730339,0.0146192274987697,0.00093210558407,-0.0003994738217443,-0.0003994738217443
1.7726401595237524e+18,10.50475244140625,-0.0471000671386718,0.0013665556907653,-0.0043954998254776,0.00093210558407,-0.0003994738217443,0.0003994738217443
1.772640159543743e+18,10.524742919921875,-0.0375175476074218,0.0061775669455528,-0.0139608085155487,0.00093210558407,-0.0003994738217443,0.0001331579405814
1.7726401595637335e+18,10.5447333984375,-0.0560846328735351,0.015598639845848,0.0005474761128425,0.0006657897029072,0.0001331579405814,0.0006657897029072
1.772640159583724e+18,10.56472412109375,-0.0560855865478515,-0.0036766454577445,0.0053576938807964,0.0001331579405814,-0.00093210558407,0.0003994738217443
1.7726401596037146e+18,10.584714599609375,-0.0656681060791015,0.0105481594800949,0.0050391778349876,0.0003994738217443,-0.0011984214652329,0.0006657897029072
1.772640159623705e+18,10.604705078125,-0.0656681060791015,0.0200101658701896,-0.0046551916748285,-0.0006657897029072,0.0014647373463958,0.0006657897029072
1.7726401596436956e+18,10.624695556640624,-0.0518951416015625,-0.0087819471955299,0.0049467924982309,0.0003994738217443,-0.0006657897029072,-0.0001331579405814
1.7726401596636861e+18,10.64468603515625,-0.0800409317016601,-0.0087756775319576,0.0096931867301464,-0.0006657897029072,0.0022636849898844,-0.0001331579405814
1.7726401597036677e+18,10.684667724609374,-0.0423135757446289,0.0151978768408298,0.0004373658448457,0.0006657897029072,0.0006657897029072,0.0001331579405814
1.772640159723659e+18,10.704658935546876,-0.0608768463134765,0.0009632147848606,-0.0044654458761215,-0.0003994738217443,0.0001331579405814,-0.0011984214652329
1.7726401597436503e+18,10.724650390625,-0.0560865402221679,0.000944435596466,-0.009199921041727,0.0006657897029072,0.0001331579405814,-0.0001331579405814
1.7726401597636419e+18,10.744641845703123,-0.0656681060791015,-0.0085799284279346,-0.005015093833208,-0.0001331579405814,0.0006657897029072,0.0003994738217443
1.7726401597836332e+18,10.764633056640625,-0.0608787536621093,0.0057618618011474,0.0051609203219413,-0.0001331579405814,-0.0014647373463958,-0.0001331579405814
1.7726401598036247e+18,10.784624755859374,-0.0608806610107421,0.0104054994881153,-0.0233871359378099,0.0003994738217443,0.0011984214652329,-0.0003994738217443
1.772640159823616e+18,10.804615966796876,-0.0608806610107421,0.0102582350373268,-0.0192695651203393,0.0001331579405814,0.0006657897029072,0.0003994738217443
1.7726401598436073e+18,10.824607177734377,-0.0471057891845703,0.0008147321641445,-0.000228377059102,-0.0006657897029072,0.0003994738217443,-0.0001331579405814
1.7726401598635988e+18,10.844598876953125,-0.0471038818359375,0.0014982931315898,-0.0009231902658939,0.00093210558407,-0.0003994738217443,-0.0001331579405814
1.7726401598835901e+18,10.864590087890624,-0.051894187927246,0.0057637505233287,0.003682592883706,-0.0003994738217443,-0.00093210558407,0.0001331579405814
,,,,,0.00093210558407,-0.0022636849898844,0.0003994738217443
,,,,,0.0003994738217443,0.0006657897029072,0.0003994738217443
,,,,,-0.0001331579405814,0.0003994738217443,-0.0006657897029072
,,,,,-0.0001331579405814,0.0011984214652329,-0.0014647373463958
,,,,,0.00093210558407,0.0011984214652329,0.0001331579405814
,,,,,0.0003994738217443,0.0011984214652329,0.0003994738217443
,,,,,0.0001331579405814,0.0001331579405814,0.0001331579405814
,,,,,0.0003994738217443,0.00093210558407,-0.0003994738217443
,,,,,0.0006657897029072,-0.0003994738217443,-0.0001331579405814
,,,,,0.00093210558407,0.0017310532275587,-0.00093210558407
,,,,,-0.0001331579405814,-0.0006657897029072,-0.0011984214652329
,,,,,0.00093210558407,-0.0003994738217443,0.0001331579405814
,,,,,-0.0001331579405814,0.0006657897029072,-0.0001331579405814
,,,,,0.0001331579405814,-0.0001331579405814,-0.0001331579405814
,,,,,-0.00093210558407,0.0011984214652329,0.0003994738217443
,,,,,0.0001331579405814,-0.0006657897029072,0.0001331579405814
,,,,,-0.0003994738217443,0.0003994738217443,-0.0001331579405814
,,,,,0.0003994738217443,0.0003994738217443,-0.00093210558407
,,,,,0.0001331579405814,0.0025300008710473,-0.0001331579405814
,,,,,0.0003994738217443,0.0003994738217443,0.0001331579405814
,,,,,-0.0001331579405814,-0.0003994738217443,-0.0003994738217443
,,,,,0.0001331579405814,-0.0017310532275587,0.00093210558407
,,,,,-0.0006657897029072,-0.003328948514536,-0.0001331579405814
,,,,,-0.0003994738217443,-0.0003994738217443,0.0006657897029072
