time,seconds_elapsed,accel_z,accel_y,accel_x,gyro_x,gyro_y,gyro_z
1772808574540921000,0.093921142578125,0.0871036984354257,0.000413147378154,-0.0025462412835564,-0.0010412861593067,-0.000393908820115,0.0001867325045168
1772808574560971000,0.113970947265625,0.0805190593481063,-0.0083415200914721,-0.0044351146369241,-0.0009878519922494,-0.0005307867540977,0.0016691780183464
1772808574581020200,0.134020263671875,0.0826139858007431,0.0041803635577205,-0.0013028399266069,-0.0002284378279,0.0027917521074414,-0.0007545379921793
1772808574601069300,0.1540693359375,0.0787251616686582,0.0018461667228024,-0.0006956404142314,0.0013612457551062,-6.90129527356e-05,-0.001286313869059
1772808574621118000,0.174117919921875,0.0814203921020031,-0.0024291816419921,0.0065031119834398,-0.0003052318934351,-0.0005869903834536,0.0012156500015407
1772808574641167000,0.1941669921875,0.0812690009325742,-0.0009288144158665,0.0040276024151127,-2.8442591428e-06,0.002124392427504,0.0005145762115716
1772808574661216000,0.214216064453125,0.0799234315425157,0.0058853317115455,0.0076843256912194,0.0011594123207032,-0.0039082095026969,0.0002037649974226
1772808574681265200,0.23426513671875,0.0797749629825353,0.0003994202469009,-0.0110745754842879,-2.89855524897e-05,0.0009696439374238,-0.0011928337626159
1772808574701314300,0.254314208984375,0.0793237120836973,-0.000950131198531,0.0002946446981746,0.0009062835015356,-0.0009707495337352,-0.0002558017149567
1772808574721363000,0.274363037109375,0.0829150145739316,-0.00576627190914,-0.0007256884926231,0.0012860731221735,0.0002111853100359,0.0009114067070186
1772808574741413000,0.2944130859375,0.0853092162340879,9.2884181533e-05,-0.0008706407881109,-0.0007278092671185,-0.0004375607240945,0.000285031273961
1772808574761462300,0.314462158203125,0.0760334383666515,-0.0041539687411393,0.0048719716842286,0.0014274017885327,-0.000792563019786,0.0009911875240504
1772808574781511200,0.33451123046875,0.0817167447000741,0.0013945230983197,-0.0072314353911438,0.0020347833633422,-0.001135315047577,-8.19144770503e-05
1772808574801560000,0.35456005859375,0.077084408724308,-0.0023587924200575,0.0040756930402712,0.0012597027234733,0.0010875752195715,-0.0013225520960986
1772808574821605400,0.37460546875,0.0839706611067056,0.0088949801226146,-0.0021000181862851,-0.0014928502496331,0.0006439517019316,-0.0006869076751172
1772808574841654300,0.394654296875,0.0817278506159782,0.0033787100523244,-0.0036294471101136,-0.000815475359559,-0.000661325873807,-0.0022611073218286
1772808574861703400,0.414703369140625,0.0811298847228288,0.0073336216905619,0.0070306977878091,0.0001768164802342,0.001030619489029,-0.0008348119445145
1772808574881752300,0.43475244140625,0.0803793586164712,-0.0009283851576037,-0.0039430157044669,0.0003418074920773,0.0013329633511602,-0.0009873714298009
1772808574901801500,0.454801513671875,0.0883089825719594,-0.0032367625646758,0.0069258172078058,-0.0003542366903275,0.0005628804210573,0.0002769478596746
1772808574921851400,0.474851318359375,0.0733411305427551,-0.0002590345286764,-0.0106905628690728,0.0010709934867918,-0.0007469418924301,-0.0002750931307673
1772808574941900300,0.494900390625,0.0826198310196399,0.002965124282753,-0.0014991022842237,-0.0005825138650834,-0.0018414256628602,0.0025538019835948
1772808574961949400,0.514949462890625,0.0746866999328136,-0.0041905104923993,0.000718815793842,-0.0015388717874884,0.0005968371988274,-0.0009499182924628
1772808574981998300,0.534998291015625,0.0811222859382629,0.0015471563767641,0.0023079207493457,-0.001229012850672,0.0003475011035334,0.0013308259658515
1772808575002047200,0.555047119140625,0.0857610516548156,-0.001116482475074,0.001138000187138,0.0018207030370831,0.0005447930889204,0.0014367483090609
1772808575022096400,0.575096435546875,0.0739426035672426,-0.0002105283449869,-0.0088508669862523,0.0015137963928282,-0.0001423022185917,0.000738208880648
1772808575042145300,0.595145263671875,0.0859124428242445,0.0023077015536371,-0.0193839057726319,-0.0002831171732395,-0.0009389424230903,-0.0020819474011659
1772808575062194400,0.6151943359375,0.0838157628059387,0.003041523120366,-0.0018066384300123,-0.0003296453505754,0.0011498320382088,-0.0023256260901689
1772808575082243300,0.635243408203125,0.0724450584858655,0.007784178469656,0.0043086661125067,-0.0011446718126535,-0.0014628290664404,-0.0003476035781204
1772808575102292200,0.655292236328125,0.0868126065343618,-0.0014004413824528,0.0016019918365404,0.0005129068158566,0.0003399766283109,-0.0013339971192181
1772808575122342400,0.67534228515625,0.0847188491255045,-0.0037080881371628,-0.001483767717774,-0.0019292371580377,0.0010430252877995,-0.0002623754553496
1772808575142391600,0.6953916015625,0.0758873078942298,-0.0027172048031352,-0.003233433529851,-0.0007666577585041,0.0007786653004586,0.0010727944318205
1772808575162440200,0.715440185546875,0.0779810653030872,0.001157033681171,0.003478544564452,-0.0002545446623116,-0.0002416811330476,0.001562180230394
1772808575182489300,0.7354892578125,0.0892021320194006,-0.0049052437661681,-0.0028650934078032,0.0012665439862757,-0.00329345674254,-0.0008710385300219
1772808575202538200,0.755538330078125,0.0785784466743469,-0.0039754612359218,-0.0020280626283492,-0.0012084285262972,0.0004441503551788,3.09539027512e-05
1772808575222587400,0.77558740234375,0.0908487301826477,-0.0093630908247083,0.0055797043950529,5.95790334045e-05,-0.0003456440754234,0.0021795930806547
1772808575242636500,0.795636474609375,0.0836661252021789,-0.0022327183549758,0.0053664498034399,-0.0016174416523426,0.0018404544098302,0.0006004709284752
1772808575262685200,0.815685302734375,0.0835141495108604,0.0015809947142843,0.0025275137502001,-0.001399865373969,0.0015974383568391,0.0003558224998414
1772808575282734300,0.835734375,0.0881529152274131,0.001815013532713,-0.0033708966386271,-0.0009885961189866,0.00108796893619,0.0004669050686061
1772808575302784500,0.855784423828125,0.081868135869503,0.0065775152267888,0.0012539227509638,0.0001625213772058,0.0022727618925273,-0.001896140165627
1772808575322833400,0.87583349609375,0.0830687438309192,-0.0032977263711392,0.0027957453654846,0.002927990630269,0.0020771713461726,0.0010233568027615
1772808575342882300,0.89588232421875,0.0881564223587512,-0.0019583949256222,0.0014522446349263,0.0016163908876478,-0.0005109760095365,0.0007061683572828
1772808575362931200,0.91593115234375,0.0688531714737415,-0.0081447736766654,-0.0026962168140336,-0.0006157930474728,-0.0032038115896284,-0.0001906920224428
1772808575382980400,0.93598046875,0.0838192699372768,0.0030848690717481,0.0032169436193536,6.05136156082e-05,0.0011652268003672,-0.0005005216225981
1772808575403029500,0.956029541015625,0.0706494072407484,-0.0008095445509068,0.0027400057234102,-0.001041425159201,-0.0017456320347264,0.0014221833553165
1772808575423078400,0.976078369140625,0.0878577316731214,0.0086190127254463,0.0036853374492377,-0.0008344906382262,-0.000539266038686,0.002506312681362
1772808575443127300,0.996127197265625,0.091299396559596,0.0028520558297168,-0.0001671595607185,-0.0005026184953749,-0.001752492506057,0.001038854708895
1772808575463176200,1.01617626953125,0.0796253253787755,-0.0030189094297587,0.000122781562875,0.000545106595382,0.0005259029567241,0.000879147555679
1772808575483226400,1.036226318359375,0.078727499756217,-0.0023867124734446,-0.0032475214207079,-0.0017916976939886,0.0013003965141251,-0.0002112360671162
1772808575503275500,1.056275634765625,0.0781289493411779,0.0046306737416423,-0.004082542906166,-4.4542830437e-06,0.001178425271064,0.0001259399577975
1772808575523324200,1.07632421875,0.0710942283987998,-0.002317711490998,-0.0059617077162722,0.0001932277809828,0.0031301127746701,0.0003924099728465
1772808575543373300,1.096373291015625,0.0859089356929063,-0.003048637847742,0.0041128101802663,0.001694290433079,-0.0020276999566704,-0.0001389817334711
1772808575563422500,1.11642236328125,0.0832137052595615,-0.0012232581846415,-0.0028433930326486,-0.0016109636053442,-0.0008057142840698,-0.0013362895697355
1772808575583471400,1.136471435546875,0.0888946735054254,-0.0047535786021035,0.0087688238591421,0.0009840736165642,0.000407192390412,-0.0011529917828738
1772808575603520500,1.1565205078125,0.0808195035994052,0.0015339041695464,-0.0019024132549529,0.0002904706634581,0.0019412378314882,-0.0020175934769213
1772808575623569200,1.176569091796875,0.0921919614851474,0.0020757285618223,-0.0071736636221874,0.0007524057291448,0.0002401985111646,-0.0005697393789887
1772808575643618300,1.196618408203125,0.0830652366995811,-0.0023560890063177,0.0098164651819737,0.0008058138191699,-0.0007021791534498,-0.0003372314386069
1772808575663667500,1.21666748046875,0.079324296605587,-0.0012081336807459,-0.0091002295042853,-0.0005048434250056,-0.0007334665278904,0.0017688043881207
1772808575683717400,1.23671728515625,0.0835141495108604,0.0018622136753052,-0.0002843014006735,0.0004404892679303,0.0001326077908743,-0.000396188814193
1772808575703766300,1.256766357421875,0.086504563498497,-0.0059239832215011,-0.0005999797537224,-0.0031214044429361,0.0023173214867711,0.0010400051251053
1772808575723815400,1.2768154296875,0.0767781192541122,-0.0050744537200778,-0.0037162166446913,0.0030460956040769,7.17916700523e-05,-0.0009401161223649
1772808575743864300,1.2968642578125,0.0766284816503524,-0.0013865133218001,-0.0051344402790069,-0.002871518721804,0.0005965366726741,-0.0003197244368493
1772808575763913500,1.31691357421875,0.0730360101163387,0.000744461691752,-0.0021760699640261,-0.0010540978983044,-0.0005335983005352,0.0012675139587372
1772808575783962400,1.33696240234375,0.082464932718873,0.0043540304910391,-0.0040627878929255,0.0003498366568237,0.0022216620855033,-0.0008810046128928
1772808575804011300,1.35701123046875,0.0784235483735799,-0.0036723409703467,-0.0004217553762951,-0.0017312297131866,-0.0002022072294494,0.0014969285111874
1772808575824061200,1.377061279296875,0.0857516993045806,0.0007400412449613,0.0043990478096995,0.0030431831255555,-0.0004574838385451,-0.0011730231344699
1772808575844110800,1.39711083984375,0.0914390972912311,0.0002362473081331,-0.0021279199733631,-6.60752411931e-05,0.0002841348759829,-8.9066568762e-05
1772808575864160000,1.417159912109375,0.0773725780159235,-0.0010053593839518,0.004003349323268,0.0028801513835787,-0.0007119658985175,-0.0013531628064811
1772808575884209200,1.437209228515625,0.0848532891601324,-0.0060069944629911,-0.0086207891240017,-0.0009162784554064,0.0021208962425589,-8.27782787382e-05
1772808575904258000,1.457258056640625,0.0882978766560554,0.0057897075836546,-0.0047689360014395,0.0006394288502633,-0.0008588065975345,-0.0012136553414165
1772808575924307200,1.47730712890625,0.0824620101094245,-0.0022879556735511,0.0064555556478211,0.000888732727617,0.0004807397490367,0.0015542570035904
1772808575944355800,1.49735595703125,0.0718383247643709,-0.0051819144162349,-0.0122530355459777,0.0014594877138733,-0.0015799186658114,-0.0003119446337223
1772808575964405000,1.517405029296875,0.0754278736889362,-0.0001579031086061,0.0035926222310634,0.0019506788812577,0.0006705251289531,-0.0002770139835774
1772808575984454100,1.5374541015625,0.0869488001346588,0.0039445729073137,0.0008010233177337,0.0020420919172465,0.0018091790843755,0.0010690062772482
1772808576004503000,1.5575029296875,0.0927834976375103,-0.0003277980491053,0.0014593456625705,-0.0022535216994583,0.0002232026017736,-1.56555324792e-05
1772808576024553000,1.577552978515625,0.0773684863626957,0.0021949527610093,0.0038336553121684,-0.0008583725430071,0.0033188397064805,0.001245608087629
1772808576044602000,1.59760205078125,0.0830494546085596,-0.0023761545468121,0.0013174529738491,-0.0024439399130642,0.0004277928965166,-0.0011624507606029
1772808576064651000,1.617651123046875,0.0791565388232469,-0.0032659521265421,-0.002524632239947,4.14969399571e-05,0.0003561628982424,0.0006273139733821
1772808576084700200,1.6377001953125,0.0704775578051805,0.0056053091937676,-0.0034282574156299,0.00281373411417,-0.0006078705773688,0.0009056983981281
1772808576104749000,1.6577490234375,0.0840957487910985,-0.0041362869539763,0.006239766605827,-0.0007973159663379,0.0003841433790512,-0.0001369924284517
1772808576124798000,1.6777978515625,0.0767664288163185,0.0069781136506237,-0.0113623292173724,-0.0008531622588634,-0.0027069887146353,-0.001286522950977
1772808576144847000,1.69784716796875,0.0939747532486915,-0.0014816259930375,0.0063564335217466,0.0008105663582682,0.000204068433959,-0.0003694491460919
1772808576164896000,1.71789599609375,0.0833481452941894,0.0013706855650059,-0.0026182196743786,-0.0030949697829782,0.0026077767834067,0.0003542138729244
1772808576184945200,1.737945068359375,0.0722773007035255,-0.0014614873873069,0.0019651397602399,0.0032359017059206,0.0004808812809642,0.0013083857484161
1772808576204995000,1.7579951171875,0.0754167677730321,-0.0037548224888741,-0.0058740476991282,-0.0041763386689126,0.0028644748963415,0.0003781819250434
1772808576225044000,1.7780439453125,0.0811029967159032,0.0038281251871027,-0.007332009688788,-0.0006693268660455,0.0013414858840405,-2.24313698709e-05
1772808576245093000,1.798093017578125,0.082298928502202,0.0038950986092444,0.009250177635299,-0.0005671107210218,-0.000100724195363,-0.0016021230258047
1772808576265142000,1.81814208984375,0.0775111097037792,-0.0069670442673377,-8.53675953578e-05,0.0006701801903545,-0.0017735580913722,0.000609065638855
1772808576285191200,1.838191162109375,0.0827449187040328,-0.0013562460476998,-0.0015650253935949,-0.0006950572133064,2.88894807454e-05,-0.0013452935963869
1772808576305240000,1.858239990234375,0.0776619163513183,0.0041406434686854,-0.0006779357941821,0.0015801526606082,-0.0006102011539041,0.0006973773706704
1772808576325289000,1.8782890625,0.0816997935652732,0.0044579292569309,-0.0024247109628515,-0.0030207042582333,0.0008437688229605,-0.0007278094999492
1772808576345338000,1.898338134765625,0.0785574038863182,-0.0047070908455643,-0.0080369704872136,-0.000163929304108,8.60789441503e-05,-0.0002167224884033
1772808576365388000,1.918387939453125,0.0767599990755319,-0.000667003408214,0.0073860551306977,-0.0029422172810882,-0.0015112560940906,-0.0010169921442866
1772808576385437000,1.93843701171875,0.0861842455029487,0.0043794571932405,0.0017320525235729,0.0009466810151934,0.00276785553433,-0.001815509982407
1772808576405486000,1.958486083984375,0.0798994661450386,-0.0015462247950024,-0.0075513743607793,0.0011083805002272,-0.001835573464632,0.0005687850061804
1772808576425535000,1.978534912109375,0.0840881500065326,-0.0033525435646064,-0.0030771424230188,0.0033187819644808,-0.0004729277279693,0.0003834904637187
1772808576445584100,1.998584228515625,0.0897773015588521,-0.0099277024375274,0.0050848700828151,-0.0006752542685717,-0.0014771497808396,-0.0004943050444126
1772808576465633300,2.01863330078125,0.0773532887935638,0.0048894616751465,-0.0068687441251706,-0.0005460816901177,0.0030929548665881,-0.0005124132148921
1772808576485682000,2.038681884765625,0.0821446147233247,0.0006253288241103,0.0050045942211057,0.0007421560585498,-0.0018185069784522,-0.0022588530555367
1772808576505731000,2.05873095703125,0.0782557905912399,0.001036960098613,-0.0002875254042213,-1.32753048092e-05,0.0033074386883527,0.0013283523730933
1772808576525780000,2.078780029296875,0.0825964501440525,0.0085803429491817,0.0006213559018913,0.0018135348800569,0.0007436199812218,-0.0003181318752467
1772808576545830000,2.098829833984375,0.0842401256978511,-0.0003851268600672,-0.0025338338931323,-0.0013139354996383,0.0019757577683776,0.0007634363137185
1772808576565879000,2.118879150390625,0.0825958656221628,0.0018438377683982,-1.94947183365e-05,0.0015020782593637,0.0016469822730869,-0.0013343868777155
1772808576585928000,2.138927978515625,0.0793009157299995,0.000811681709066,0.0017972769466228,0.0007935245521366,0.0027008850593119,0.000260449014604
1772808576605977000,2.15897705078125,0.0807955382019281,-0.002502940997947,-0.0071371903695864,-0.0003427409101277,0.002000605687499,5.83603978157e-05
1772808576626026200,2.179026123046875,0.0748082804858684,0.0045483109541237,-0.0007489780366653,0.0034438427537679,-0.0018665983807295,-0.0009582778438925
1772808576646075100,2.1990751953125,0.076605100774765,-0.0056987596308812,0.0012989126701606,0.0008457491640001,-0.0004449977423064,-0.0002572289668023
1772808576666124000,2.2191240234375,0.0809440067619085,0.0055277504455298,-0.0032159709383966,-0.0029560741968452,-0.000927786109969,-0.0036109862849116
1772808576686173000,2.2391728515625,0.0668769029647111,-0.0086131492402404,-2.18556387815e-05,-0.0004170942120254,-0.0008583221351727,-0.0011796224862337
1772808576706223000,2.25922314453125,0.083934420749545,-0.0012021423313766,-0.0074859764077933,-0.0020655551925301,-0.0006267901044338,0.0008625760674476
1772808576726272000,2.27927197265625,0.0831879862964153,-0.0133413011401426,0.0165986635348526,0.003473657881841,0.0011310157133266,-0.0021533444523811
1772808576746321000,2.29932080078125,0.0785492205798625,-0.0030091643538791,-0.0026278551524039,-0.0003901976160705,-0.0006673548487015,0.0003185281530022
1772808576766370000,2.3193701171875,0.0783984139323234,-0.0044432796770706,0.002047475148295,-0.0015533587429672,0.0015459632268175,-0.0005299933254718
1772808576786419200,2.339419189453125,0.0768991152852773,-0.0086947813753969,-0.0034868877011118,-0.0007670957129448,-0.0024552508257329,0.0016091712750494
1772808576806468000,2.359468017578125,0.080040335920453,-0.0038578536050859,-0.0018495825225953,9.02307219803e-05,0.0031221080571413,-0.0004720091819763
1772808576826520600,2.3795205078125,0.0834843388944864,0.0033798060308676,-0.0066525577909545,-0.0005382965318858,-0.0017082190606743,-0.0004056091420352
1772808576846569500,2.399569580078125,0.0794452926367521,0.0004604753849096,0.0033976841808529,-0.0001202635467052,0.0013727392069995,0.0009453913662582
1772808576866618600,2.41961865234375,0.0833370393782854,-0.0161258629579097,-0.0029081151321996,-0.0006348704919219,-0.0005674755666404,-0.0009369766339659
1772808576886668800,2.439668701171875,0.0810901372343301,-0.0072691142201423,-0.0003160162797663,-0.0017735438887029,-0.0015806490555405,-0.0005902159027755
1772808576906717400,2.459717529296875,0.0894692585229873,-0.0070398172426037,0.0064967142086941,0.0036846753209829,-0.0009473242680542,0.001542791724205
1772808576926766600,2.4797666015625,0.0686696316003799,0.0004319616764783,0.0043652094721794,0.0020986152812838,-0.0003498623846098,-0.0022022682242095
1772808576946815500,2.4998154296875,0.0749520728707313,-0.0030510398673824,0.0004434785843361,-0.0028345107566565,-0.0030257538892328,-0.0002253525890409
1772808576966864600,2.51986474609375,0.0789905346065759,-0.0018107026837766,0.0073290322804125,-0.0013489052653312,0.0014158046105876,-0.0006084335036575
1772808576986913800,2.539913818359375,0.0730021078467369,0.0008479220662266,-0.0039995270980987,-0.0003436228726059,0.0032791537232697,0.0004763111937791
1772808577006962400,2.55996240234375,0.0810848765373229,0.0035443032770417,-0.0015210492545505,0.0007067823316901,0.0009255935437977,0.0017781225033104
1772808577027011600,2.580011474609375,0.0800391668766736,-0.0077405950562562,-0.0001330106959445,-0.0007445022929459,0.000769939739257,-0.0012433012016117
1772808577047061800,2.600061767578125,0.0816869340837001,-0.0039814617184456,-0.0040431287778075,0.000107567757368,0.0008240269380621,-0.0017432812601327
1772808577067110700,2.620110595703125,0.0779436559021472,-0.0088494056815281,0.0007675868390128,-0.0004472688306123,-0.0013109010178595,-0.0002465797588229
1772808577087159600,2.64015966796875,0.0878191532284021,0.0007752586888149,-0.0009526336828712,0.0015335506759583,0.0002602788445074,0.0019814795814454
1772808577107208400,2.66020849609375,0.0746510440975427,-0.0046346923296339,-0.0028646778492722,-0.0020918445661664,0.0014146533794701,0.0005150104407221
1772808577127257600,2.680257568359375,0.0807861858516931,-0.0051445415479131,-0.0029703347474103,-0.0001463994849473,0.0011349245905876,-0.0008395998738706
1772808577147306800,2.700306640625,0.0810883836686611,-0.0030062234781216,-0.0074503845046041,0.0018827011808753,-0.0007161545800045,-0.0014206231571733
1772808577167355600,2.720355712890625,0.0749549954801797,-0.0027756295926403,0.0024140754044055,0.0013674870133399,5.20916946697e-05,0.0018218946643173
1772808577187404500,2.740404541015625,0.0794423700273036,-0.0019676376780029,0.0037503107105381,0.0001408213283866,0.0005241181934252,0.0002234447747468
1772808577207454700,2.760454833984375,0.0864759219259023,-0.0067471818384248,0.0045075314191635,7.81822018325e-05,-0.0010854622814804,-0.003963416442275
1772808577227503600,2.780503662109375,0.0760012896627187,0.0054351037260144,0.0050471684209303,-0.0010528180282562,-0.000133107532747,0.0015350277535617
1772808577247552500,2.800552490234375,0.0845277104675769,-0.0061449416289571,0.0007459138633217,-0.0005390963051468,0.0004249788180459,0.0006111408583819
1772808577267601400,2.820601318359375,0.074200962242484,-0.0088232117943465,-0.0038970485377358,-0.0012687831185758,-0.001307979109697,0.0012816966045647
1772808577287650600,2.840650634765625,0.0876654239714145,-0.0027152777075301,-0.0087473792123142,0.0013208733871579,-0.0017799430061131,-2.40225344896e-05
1772808577307699700,2.86069970703125,0.0713514180302619,-0.0055319334303028,0.0036206016499549,-0.0018417545361444,0.0011508023599162,0.0022300488781183
1772808577327748600,2.88074853515625,0.0800315680921077,-0.0006698894850444,0.0082086646591546,-0.0025743767619132,0.0005763539811596,-4.53488901257e-05
1772808577347797800,2.9007978515625,0.0897574278146028,-0.0076153064424637,-0.0066733996495837,0.0009181427303701,-0.0006447110790759,-0.0018954505212605
1772808577367847700,2.92084765625,0.0818301419466733,-0.0023218488099984,0.0034215308473212,0.001244852785021,-0.0014863391406834,0.0002173273824155
1772808577387896600,2.940896484375,0.0915554171472787,-0.0044102450571488,-0.0009959431016352,-0.0009947777725756,-0.0004763194301631,0.001430261414498
1772808577407945700,2.96094580078125,0.0840717833936214,-0.0009096256582066,0.0050887699397979,-0.0016817268915474,-0.0034011222887784,-0.0009691971354186
1772808577427994400,2.980994384765625,0.086465400531888,-4.18572471942e-05,-0.0036600568775087,0.0020903092809021,0.0011435780907049,-0.0009437766857445
1772808577448043500,3.00104345703125,0.0752431647717952,-0.0043556013936176,-0.0065989370407303,-0.000543289585039,0.000150997453602,0.000524936011061
1772808577468092700,3.0210927734375,0.0688075787663459,0.0019864063105545,0.0125697642117971,-0.0006369978655129,-0.0008931774646043,0.0002798191271722
1772808577488141600,3.0411416015625,0.0813777220040559,-0.0112406208001542,-0.0073048522538039,0.0002766407560557,-0.0001462565851397,-0.000427464954555
1772808577508190700,3.061190673828125,0.0750952807337045,-0.0114104244091082,0.0010219269262626,-0.0023664666805416,0.0023486551363021,0.0021687801927328
1772808577528240600,3.08124072265625,0.088559742462635,-0.0008936152383219,-0.0087329625278944,0.0005425240378826,7.50587787479e-05,0.0011771006975322
1772808577548289500,3.10128955078125,0.0842208364754915,0.0020847064527217,-0.0041177512168651,-8.08252952992e-05,0.0009770195465534,0.0011378156486898
1772808577568338700,3.121338623046875,0.0827250449597835,-0.0022160868805833,-0.0063622239417163,0.0006085860077291,0.0003758084785658,-0.0001763082109391
1772808577588387600,3.1413876953125,0.0848217249780893,-0.006278687543841,-0.0059693339003017,0.0010945864487439,0.0009429166093468,0.0003638612106442
1772808577608436500,3.1614365234375,0.0948509515613317,0.000439140335936,-0.0036040021416032,-0.0002451019827276,0.0013327555498108,0.000818510306999
1772808577628485600,3.181485595703125,0.0728542238086462,-0.0089409016235731,-0.0025124120791908,0.001116574043408,0.0012986665824428,-0.000470632687211
1772808577648534500,3.201534423828125,0.0743500153243541,-0.0049866201729979,-0.0087002841009991,-0.0003778841346502,0.0005103552248328,0.0013971389271318
1772808577668583700,3.221583740234375,0.0933539910018444,-0.0064938737976364,0.00076412080687,0.0007416184525936,0.0006135710864327,-0.0011690650135278
1772808577688632600,3.241632568359375,0.0885632495939731,0.0016749018091242,0.0018924855159828,0.0010344611946493,0.0005372401792556,0.0020236084237694
1772808577708682500,3.2616826171875,0.0788368053495884,-0.0046083614451345,-0.0006131634622812,-0.0024444228038191,0.0029888784047216,0.001440615626052
1772808577728731600,3.281731689453125,0.0837754307955503,-0.0075925192219205,-0.0033550643152557,0.0017476321663707,-9.38036246225e-05,0.0006015878170728
1772808577748780500,3.301780517578125,0.0824292768836021,0.0034338469062,0.000688813381223,0.000141701195389,-0.0019481461495161,0.0011582125443965
1772808577768829700,3.32182958984375,0.0730015233248472,-0.0023290092031471,-0.0011979365137172,0.0002149860374629,0.001501312945038,0.0005012671463191
1772808577788878600,3.341878662109375,0.0867664293050766,-0.004555361749418,-0.0010707162377424,0.0009853709489107,-5.35879953531e-05,-0.0015350640751421
1772808577808927500,3.361927490234375,0.076888593891263,-0.0067762344029732,-0.0075489769077161,-0.0042137284763157,0.0015992912231013,0.0015817715320736
1772808577828976000,3.38197607421875,0.0795849933683872,-0.0028875290018972,-0.0006188397178193,0.0035670902580022,0.0011460364330559,0.0001974273473024
1772808577849026000,3.402026123046875,0.0851233382731676,0.0004719557601492,-0.0054718783727148,0.0038132751360535,-0.0002012568002101,0.0007256551180034
1772808577869075000,3.422074951171875,0.0656722033500671,-0.0051311158107593,-0.0042458665419835,0.0002591828815639,0.000959392869845,-0.0016154279001057
1772808577889124000,3.4421240234375,0.0768938545882701,-0.0005150642495136,-0.000764294336806,-0.0031600366346538,-0.0007716299733147,-0.001352235674858
1772808577909173000,3.462173095703125,0.0783890615820884,-0.0044938682199921,-0.0001581223043147,-0.0018374022329226,-0.0018402354326099,-0.0012731472961604
1772808577929222100,3.48222216796875,0.0851221692293882,-0.0009728818864561,-0.0060883754363982,2.11412552744e-05,-0.0006232906598597,-0.0003902507014572
1772808577949271000,3.50227099609375,0.0797358000159263,-0.0036196335355751,0.002748590888665,0.0007874141447246,-0.0011106313904747,-0.0002177734859287
1772808577969320000,3.52231982421875,0.0761450820475816,1.20557639747e-05,0.0002746385231846,0.0015279771760106,0.0021784845739603,-4.48613427579e-05
1772808577989369000,3.542369140625,0.0747971745699644,0.0047085064845159,-0.0022982898378977,-0.0012646787799894,-0.0018478173296898,0.0005824922118335
1772808578009419000,3.5624189453125,0.0861696324557066,0.0011287209021393,-0.003104181126994,0.0004921278450638,-0.0011942158453166,0.0003457032144069
1772808578029468200,3.58246826171875,0.0703115535885095,-0.0070093307727947,-0.0075063387758098,-0.001753223594278,0.0010861938353627,-3.23927961289e-05
1772808578049517000,3.60251708984375,0.0842266816943883,-0.0055959659766871,0.0046743850192055,-0.0042193615809082,0.0002333132724743,-0.0029172571375966
1772808578069566000,3.62256591796875,0.0804822344690561,-0.0043397736368235,-0.0012667228670325,0.0015179694164544,0.0010329151991754,0.0007848709356039
1772808578089615000,3.642614990234375,0.0876642549276351,-0.0028467038011644,-0.0067090006859274,0.0001185035798698,-0.0011665322817862,-0.001847758423537
1772808578109664000,3.6626640625,0.0776397045195102,-0.0018445318881422,-0.0074498045492917,0.001540025928989,-0.0004421360790729,0.0005123110022395
1772808578129713200,3.682713134765625,0.0887117181539535,-0.0014078940365463,-0.0015425167342647,0.0002072583884,0.0001207213499583,-0.0002638758160173
1772808578149762000,3.702761962890625,0.086319854581356,-0.0052446226552128,-0.0016371133822714,0.0006934863049536,-0.0009284680127166,-1.9073486328e-06
1772808578169812000,3.72281201171875,0.0767407098531723,-0.00282750591035,0.0026445185928372,0.0002209241501986,-6.86549610691e-05,-0.0003134668804705
1772808578189861000,3.742861083984375,0.0712035339921712,-0.0051526700554415,-0.0036066233569523,-0.000306850997731,-0.0004714138340204,-0.0016602645628154
1772808578209910300,3.76291015625,0.0831727887272834,-0.0011861410446465,-0.0115376035858877,-0.002873957157135,0.001272648689337,0.0003094542771577
1772808578229959000,3.782958984375,0.0836199479728937,-0.0028739388679619,-0.0004572468147845,-0.0021138368174433,0.0001037429319694,-0.0021746475249528
1772808578250008000,3.803008056640625,0.0843704740792512,-0.0106161139599513,0.0011808986139483,0.003157649654895,-0.0043317563831806,0.0018480357248336
1772808578270057000,3.823056884765625,0.0845212807267904,-0.0003179251090623,-0.005441446701833,0.0009505038615316,-9.84477082965e-05,-1.07707455754e-05
1772808578290106000,3.843106201171875,0.0900567030221223,0.0003892733122222,0.0008622291527921,-0.0017679994925856,-0.0005684506613761,-8.15060921013e-05
1772808578310155300,3.8631552734375,0.0833189191997051,0.0010250961308833,-0.0004777096475008,0.0008208625949919,-0.0003830979112535,-0.0011736918240785
1772808578330204000,3.883203857421875,0.0854144301742315,0.00034814671739,-0.0039555692253634,0.0007491209544241,-0.0007248427718877,-0.0015078033320605
1772808578350254000,3.903254150390625,0.0860118115454912,0.001063455379894,-0.0068140365295577,-0.000246605835855,-0.0017610251670703,-0.0001109782606363
1772808578370303200,3.92330322265625,0.0782324097156524,-0.0019981698135845,-0.0057898582807043,-0.001090828096494,-0.0011068722233176,-0.0003494978882372
1772808578390352100,3.94335205078125,0.0825701466590166,-0.0062643484912347,0.0007245742477709,0.0007477239705622,-0.0024557872675359,-0.0019475603476166
1772808578410401000,3.963401123046875,0.0822743785828351,4.79490612633e-05,-0.0064781602052738,0.0018340179231017,-0.001442588167265,0.0010072225704789
1772808578430450000,3.983449951171875,0.0800286454826593,0.0019488599122967,-0.0017215493958676,0.0015801882836967,0.0011028704466298,-0.0006421734578907
1772808578450499000,4.0034990234375,0.084667411199212,-0.005825354285771,-0.0018866128976223,-0.0012225692626088,0.0006101459730416,7.65356235206e-05
1772808578470548200,4.02354833984375,0.0827209533065557,-0.0087835008384659,-0.0006778033634414,-0.0016736581455916,-0.0016392923425883,-0.0009119766764342
1772808578490598000,4.043597900390625,0.0786801534831523,-0.0077629256190732,0.0002447320086881,-0.0013976250775158,0.0020772188436239,-0.0031923498027026
1772808578510647000,4.06364697265625,0.080626026853919,-0.002892661834741,-0.0016430864653317,0.0004735882394015,0.0013859830796718,-9.55108553171e-05
1772808578530696200,4.0836962890625,0.0809264711052179,-0.004777690130053,0.0032294971402501,-0.0002702812198549,0.0017394971800968,-0.0006886138580739
1772808578550745000,4.1037451171875,0.0821206493258476,-0.000825737633882,-0.0085839322789106,0.0006929985247552,0.0011792951263487,-0.0011297049932181
1772808578570794000,4.1237939453125,0.081672321036458,-0.0005930248565506,0.0024588826605118,-0.0010368875227868,-0.0018126250943168,0.0020247506909072
1772808578590843000,4.1438427734375,0.0779290428549051,-0.0019294610920827,0.0049000561343971,0.0003998409956693,0.0011538504622876,0.0011820741929113
1772808578610892000,4.16389208984375,0.0812239927470684,-0.0028731442835181,-0.0031130585531936,-0.0015837138053029,-0.0034119673073291,0.0009175473824143
1772808578630941200,4.183941162109375,0.0803214909493923,0.0021107176768127,0.0042786271672695,-0.0018292615422978,-0.0015670846914872,-0.0003584958612918
1772808578650990800,4.203990966796875,0.0822667797982692,-0.0126991125127766,-0.0039102733454899,-0.00170354754664,-0.0007970789447426,0.0007333415560424
1772808578671040000,4.2240400390625,0.0919885478675365,-0.0106328093664255,-0.0052404670699033,6.6186767071e-06,0.0010799397714436,1.74832530319e-05
1772808578691089200,4.244089111328125,0.0846621505022049,-0.0073874433701857,0.0012940903645707,-0.0005440725944936,0.0022838853765279,0.000101211015135
1772808578711138000,4.264137939453125,0.0717909784913063,-0.0051301476963795,-0.011372923676623,-0.0006721289828419,-0.0015947896754369,0.0012106562498956
1772808578731187200,4.284187255859375,0.0812187320500612,0.0006277856426779,-0.0035023638314567,-0.0009841830469667,-0.00202253065072,0.0023178556002676
1772808578751235800,4.30423583984375,0.0837590641826391,0.0047536790668033,-0.0101823393522994,-0.00169492023997,-0.0017218850553035,0.0013383668847382
1772808578771285000,4.324284912109375,0.0877957723528146,-0.0016299484225455,-0.0080435326587408,-0.0007044591475278,0.0006632332224398,-0.0014544865116477
1772808578791334100,4.344334228515625,0.0752250445932149,-0.0006063227295409,-0.0021958569433074,0.0011128182522952,-0.0006691963644698,0.0004141991958022
1772808578811384000,4.364384033203125,0.091838325741887,-0.005320765764499,-0.0004598040980519,0.0005387205164879,0.0018493069801479,-0.0013861139304935
1772808578831429600,4.3844296875,0.0821136350631713,-0.0074664725563023,0.0036914292633067,3.01911495625e-05,0.0001766970090102,-0.0025099189952015
1772808578851478500,4.404478515625,0.0773275698304176,-0.004177422681963,-0.0032644497226225,0.0032589707989245,0.0006625720998272,-0.0010362141765654
1772808578871527700,4.424527587890625,0.0813695386976003,-0.0060742236134596,0.0005897688869619,-0.0010481290519237,0.0012155591975897,-0.0001573171466588
1772808578891576800,4.444576904296875,0.0828647456914186,-0.0050493375451304,0.0014208448496647,0.0016776090487837,0.0014389405259862,0.0011562958825379
1772808578911625700,4.464625732421875,0.072839610761404,-0.0082018741587642,-0.0075218514387728,-0.0027782046236097,0.0012117859441787,-0.0010642702691257
1772808578931674600,4.484674560546875,0.0726852969825267,-0.0047967875561676,-0.0023410101681947,0.0001560719683766,-0.0007990711601451,-0.0007987855933606
1772808578951724800,4.504724853515625,0.0845072522014379,-0.0022420159062836,-0.0021554427345283,-0.0009645340032875,0.0009957301663234,0.0012524018529802
1772808578971773700,4.524773681640625,0.0827104319125413,-0.0057699982361868,0.0027734878679038,-0.0006527574732899,0.0019022562773898,0.0007183572743088
1772808578991822600,4.544822509765625,0.0738794752031564,-0.0020765962115023,-0.004180354424566,-0.0026284302584826,0.0029826643876731,-0.000253623817116
1772808579011871500,4.56487158203125,0.0865998405665159,-0.0095222634417936,-0.0100570142058888,0.0045639695599675,-7.33791966922e-05,0.0005710481200367
1772808579031920600,4.584920654296875,0.0786731392204761,-0.0038979390203021,-0.0027994534262223,-0.0013024217914789,0.0022823472972959,0.0001487485133111
1772808579051969800,4.6049697265625,0.077026541057229,-0.0125907111017033,0.002895611843653,0.0008956473320722,-0.0007152608595788,-8.42800363898e-05
1772808579072018700,4.625018798828125,0.0842103150814771,-0.0002901694524567,-0.00457745028364,0.0003131791017949,-0.0001011844433378,-0.0001909886486828
1772808579092067800,4.64506787109375,0.0800239693075418,-0.0053142903579398,-0.0041664720296859,0.0019207606092095,0.0005930924089625,-0.0005813417956233
1772808579112117800,4.66511767578125,0.086308748665452,-0.0041603071503806,-0.0046685535000404,0.0002568368799984,-4.21988952439e-05,0.0002313698641955
1772808579132166700,4.685166748046875,0.0785246706604957,-0.004323489222303,-0.0087751531352289,-0.002075812080875,-0.0003845429746434,-0.000393122434616
1772808579152215800,4.7052158203125,0.0719353553980588,-0.0033374099275562,-0.0018562908245949,0.0006111196707934,-0.0032675617840141,8.89631919562e-05
1772808579172264400,4.725264404296875,0.0794201581954956,-0.0059671739092562,0.0031324802062939,-0.0002021652180701,-0.0017999792471528,-0.0008082310669124
1772808579192313600,4.745313720703125,0.0866004250884056,0.0013017850472591,-0.005965123516065,-0.001659576781094,0.0007733977399766,0.0004032342694699
1772808579212362800,4.76536279296875,0.0901964037537574,-0.0085317728334106,-0.0027782553745666,0.0004066883120685,-0.0005824186373502,0.0016662760172039
1772808579232411600,4.78541162109375,0.0839133779615163,-0.0043722876669373,-0.0078464391840621,0.0026849671266973,-0.001161060295999,0.001336557092145
1772808579252460800,4.805460693359375,0.0714969639807939,-0.0089205529552884,0.0010556236998876,0.0029017382767051,-0.0003540557809174,-0.0007823538035154
1772808579272510700,4.8255107421875,0.0870616128593683,-0.003175807891367,0.0009957193393493,-0.0007655413355678,0.0012325226562097,0.000706001650542
1772808579292559600,4.8455595703125,0.0866103619605302,-0.0091718243026174,-0.0063289564263541,0.0004637939855456,0.0001094971958082,-0.0016132560558617
1772808579312608800,4.86560888671875,0.0800321526139974,-0.0004110284863039,-0.0034704617226962,0.0001992287579923,-0.001091428217478,0.0007332449313253
1772808579332657700,4.88565771484375,0.0728477940678596,-0.0009509440492838,-0.0010041081417817,-0.0006834487430751,0.0006876725237816,-0.0008992459625005
1772808579352706600,4.90570654296875,0.0879652837008237,-0.0046614068066235,-1.37179980985e-05,-0.0035061880480498,0.0010967121925204,-0.0015847836621105
1772808579372755700,4.925755615234375,0.0854249515682458,0.0007158840512391,-0.0047603462696075,-0.0012030450161546,-0.0003752415650524,0.0005691843107342
1772808579392804600,4.9458046875,0.0721083738774061,0.0043985728856641,0.0025311761451652,0.0032068237196654,0.0015385181177407,-0.0001156600192189
1772808579412853800,4.965853759765625,0.0731546680599451,-0.0120995209181215,-0.0091803775018313,-0.0008736418094485,-0.0013914722949266,-0.0001947027631103
1772808579432903700,4.985903564453125,0.0824339530587196,-0.0055615887830499,-0.0067708595415344,0.0022185223642736,0.0003717116196639,-0.0005020094104111
1772808579452952600,5.00595263671875,0.071812021279335,2.78104555327e-05,0.0034906825268175,0.0033301308285444,-0.0006804480217397,0.0007321736775338
1772808579473001700,5.026001708984375,0.0816910257369279,-0.0053400001879315,0.0051414134424878,0.0025946891400963,0.0007399310125038,-0.0006911237724125
1772808579493050600,5.046050537109375,0.0824397982776165,-0.0053020610640291,-0.0060106659911107,-0.0017099548131227,-0.000914767733775,0.0018935790285468
1772808579513099800,5.066099853515625,0.0806423934668302,-0.0017833580191247,-0.0028506858565378,-0.001799514866434,-0.0019601434469223,-0.0015464406460523
1772808579533148700,5.086148681640625,0.0845376473397016,0.0034264399178791,-0.0015743229449028,0.002061519306153,-0.0025542208459228,0.0009262934327125
1772808579553197600,5.106197509765625,0.0719651660144329,-0.0067925096843391,-0.0026945134807145,-0.0010384889319539,-0.0031465052161365,0.0019784707110375
1772808579573247700,5.126247802734375,0.0813894124418497,-0.0015920732307247,-0.0021414370420621,0.003520296420902,-0.0029022232629358,0.0020876806229352
1772808579593296600,5.146296630859375,0.0872246944665908,-0.0013765764496754,-0.0018346224154811,0.0020537402015179,-0.0002501458511687,0.0009833890944719
1772808579613345500,5.166345458984375,0.0818418323844671,0.000320263196621,-0.0002731041532242,0.0017173350788652,-9.36966098379e-05,-0.0005044764839112
1772808579633394700,5.186394775390625,0.0845341402083635,0.0001724339574575,-0.0053329996249871,-0.0002410663291811,-0.0007717579137533,-0.003205478657037
1772808579653443600,5.206443603515625,0.0810971514970064,-0.0041641156758181,-0.0042002418685471,0.002899884013459,0.000190547609236,0.0001944112591445
1772808579673492700,5.22649267578125,0.0761591105729341,-0.0003438632679171,-0.0010988737531471,-0.0008866558782756,0.0010525905527174,-0.0012312056496739
1772808579693542000,5.2465419921875,0.0842372030884027,-0.0044786980503238,-0.0075242443252587,-0.0007490671705454,-0.0012050792574882,-0.0011819121427834
1772808579713590500,5.266590576171875,0.0866325737923383,-0.0033717231891117,-0.0086670531182549,0.000355786178261,-5.5473530665e-05,-0.0009537618607282
1772808579733640700,5.286640625,0.0740653531640768,0.0037584848838392,0.0028590152934659,-0.003041016170755,0.000792876642663,0.0024322345852851
1772808579753689900,5.30668994140625,0.0763064100891351,-0.0002712181568145,0.0011586182834813,0.0017473066691309,-0.0021765232086181,0.0013968006242066
1772808579773738500,5.326738525390625,0.0867798733085393,-0.0060274253296665,-0.0079712254743557,-0.0001682117581367,-1.87924306374e-05,0.0018088978249579
1772808579793787600,5.34678759765625,0.0830401022583246,7.01426267623e-05,-0.0031370148175163,0.0016526977997273,-0.0025031492114067,0.0025766012258827
1772808579813836500,5.36683642578125,0.0887280847668647,-0.0040082583938259,0.0017578536851098,-0.0038819843903183,0.0014512453926727,-0.0009242077358067
1772808579833885400,5.386885498046875,0.0748158792704343,-0.0002731726518832,-0.0069136518459767,-0.0029794569127261,0.0042941039428114,-0.0006865188479423
1772808579853934600,5.4069345703125,0.0787029498368501,-0.0035166024193633,-0.0069892743654549,-0.0003420922439545,-0.0002337300247745,0.0002805297262966
1772808579873984500,5.426984619140625,0.0740694448173046,0.009733458507061,-0.0077767303821397,0.0025415075942873,-0.000669473723974,-0.0023575806990265
1772808579894033400,5.447033447265625,0.0797533356726169,-0.0059876047759316,-0.003844373069005,-0.0019982666708528,-0.0004622519481927,0.0012756038922816
1772808579914082600,5.46708251953125,0.0743646283715963,-0.0040164690997451,0.0010523083647945,0.0009206382092088,-0.0013421127805486,0.0025622202083468
1772808579934131500,5.48713134765625,0.0879804812699556,-0.0067741885763593,-0.0029888248187489,-0.0036471970379352,0.0051189819350838,-0.0006943107582628
1772808579954180400,5.507180419921875,0.0819938080757856,0.0044700124203693,-0.01418231397497,-0.0041218567639589,-0.0013909307308495,0.0016716171521693
1772808579974229500,5.5272294921875,0.0767518157690763,-0.0015620434186421,1.69831008417e-05,-0.0003975410945713,0.0016268228646367,6.57788477838e-05
1772808579994278400,5.5472783203125,0.0861766467183828,-0.0094243925578892,0.0037352729716105,-0.0040304060094058,0.0020021768286824,-0.0007194457575678
1772808580014327600,5.56732763671875,0.086174308630824,0.0006651859104633,-0.0044118342260364,-6.07222318649e-05,0.0003707843134179,0.0005807871930301
1772808580034377500,5.58737744140625,0.0839268219649791,-0.005184380367957,-0.0032412789095891,-0.00189654098358,-0.0015557631850242,0.0009057887364178
1772808580054426400,5.60742626953125,0.076743047940731,0.0071443370630033,-0.0011622487124055,0.0005200151354074,-0.0008328753756359,0.0006268445868045
1772808580074475500,5.6274755859375,0.0837765998393297,0.0013638265659566,-0.0010820413493551,-0.0030217664316296,0.0002145700273104,-0.0004709963686764
1772808580094524400,5.6475244140625,0.0810831229716539,-0.0023301691137719,0.0015419961444567,0.0012030724901705,6.80449011269e-05,-0.0012872209772467
1772808580114573600,5.667573486328125,0.0875192934989929,-0.0001428790694102,0.0051928605019347,-0.0004620640538632,-0.0023184712044894,-0.0023873788304626
1772808580134622500,5.68762255859375,0.0743523534119129,-0.0039430659368168,0.0006806437744991,-1.44329387694e-05,-0.0017506590811535,-0.0002711662091314
1772808580154671400,5.70767138671875,0.0742038848519325,-0.0055382535732351,-0.0047160778696183,0.0009587833192199,-0.0004888061084784,0.0023873024620115
1772808580174720500,5.727720458984375,0.0779436559021472,-0.0057389637771062,-0.006191876910068,0.0002426004502922,0.0012801862321794,-0.0010595833882689
1772808580194770700,5.747770751953125,0.0843804109513759,-0.0112795554379001,-0.0027629938733531,0.0008770995773375,-0.0005280956975184,0.0001961439847946
1772808580214819300,5.7678193359375,0.0888689545422792,-0.0016060012913774,-0.0065312557991128,0.0023235902190208,0.0017899520462378,0.0011724384967237
1772808580234868500,5.787868408203125,0.0706160894930362,0.0002000526167452,-0.0015618150897789,-0.0013477203901857,-0.0009195951279252,-0.0001575434580445
1772808580254917400,5.80791748046875,0.0920142668306827,-0.0045606681121978,-0.0025177869406295,0.0005353628657758,-0.0006227864651009,-0.0017213001847267
1772808580274966500,5.827966552734375,0.0806435625106096,-0.0002385579962283,-0.0033281534754438,-0.0017042928375303,0.0017778135370463,0.0004287706688046
1772808580295015700,5.848015625,0.0846849468559026,-0.0086227847182657,-0.0045857568876817,-0.0014173206873238,0.0015895208343863,0.002200155518949
1772808580315064300,5.868064208984375,0.083787121233344,-0.0043244390703737,-0.0013934727855492,0.0029238620772957,-0.0004887991817668,0.0003650356084108
1772808580335114500,5.888114501953125,0.0769037914603948,-0.007805677915411,-0.002266159400274,0.0009543139021843,-0.0003112981794402,-0.0009337235242128
1772808580355163600,5.90816357421875,0.0789987179130315,0.0054064164876472,-0.0004308656979352,-0.001082319766283,-8.5518870037e-05,0.0014933163765817
1772808580375212500,5.928212646484375,0.0825958656221628,-0.001823151173396,-0.0055090092124417,-0.0021799975074827,-0.0003985240182373,0.0014147937763482
1772808580395261400,5.948261474609375,0.0796054516345262,-0.0034397743234876,-0.0064897273454815,0.001957929925993,-0.0021576851140707,1.23470090329e-05
1772808580415310300,5.968310302734375,0.0742184978991746,-0.0038620731224771,0.0014792650725925,-0.0016946149989962,6.61991361994e-05,0.0002788044512271
1772808580435359500,5.988359375,0.0810983205407857,-0.0018696937288623,0.0003716097913682,-0.0015054715331643,-0.0008231648243963,-0.0007496480830013
1772808580455408600,6.00840869140625,0.0818441704720258,-0.0060464222910813,0.0026001268952619,-0.0036128768697381,-1.73613952938e-05,0.0007070952560752
1772808580475458300,6.028458251953125,0.0763023184359073,-0.0036975028110668,0.0014901152601698,0.0010480780620127,-0.0001357708242721,-7.93617218732e-05
1772808580495507500,6.048507568359375,0.0782487763285636,-0.0033049598295241,-0.0005881066528381,-8.52781813591e-05,-0.0019173425389453,0.0006105112843215
1772808580515556600,6.068556640625,0.0749585026115179,-0.0063235861314926,-0.0036926850720541,0.0021730149164795,-1.03099737316e-05,0.0005435710772871
1772808580535605500,6.08860546875,0.0816939483463764,0.0005349471269175,0.003400565691106,-0.0001905099488794,-0.0015253877500072,-0.0001297947019338
1772808580555654400,6.108654296875,0.0815431416988372,-0.0076912303560413,-0.0048252601654035,0.0005850498564541,-0.0004205949662718,-0.0005194270052015
1772808580575703300,6.128703369140625,0.082593527534604,-0.0013268007575068,0.0005344630697276,-0.0009079752489924,0.0043026846833527,-0.0013347570784389
1772808580595752400,6.14875244140625,0.0739163000822067,-0.0030064518069848,-0.0014438740988029,0.001955111278221,0.0027198016177862,-0.0016812235116958
1772808580615801600,6.168801513671875,0.0819973152071237,-0.0017658680282067,-0.0041765093665104,0.0017232170794159,0.0038467918056994,-0.0001483024097979
1772808580635851300,6.188851318359375,0.0864905349731445,0.0017852577152661,0.0075449811526108,0.0035163077991455,0.001587328617461,-0.0012980601750314
1772808580655900400,6.208900390625,0.0760164872318506,-0.0053380730923265,-0.0159470312257064,0.0004721160512417,-0.002422921359539,-0.0013708863407373
1772808580675949600,6.228949462890625,0.0800537799239158,0.0009551361672114,-0.0021751246825326,-0.0001845983788371,0.0005553098162636,-0.000490796752274
1772808580695998500,6.24899853515625,0.0769143128544092,-0.001188059007097,0.0007578189302468,0.0031594459433108,-0.0043577165342867,8.98679718375e-05
1772808580716047600,6.269047607421875,0.0829004015266895,-0.0073864478563424,-0.0098269591765245,0.0006900765001773,0.0003747551818378,-0.0014882101677358
1772808580736096300,6.28909619140625,0.078113751772046,-0.0009671279991045,0.0035656063599744,-0.00021349824965,0.0010036646854132,-0.0006716111674904
1772808580756145400,6.3091455078125,0.0815554166585206,0.0015779807732906,0.0017164256961783,0.0012771259061992,-0.0015718848444521,-0.002530715893954
1772808580776195600,6.329195556640625,0.0784147805452346,-0.0065638154949992,0.0049281953834928,0.0008685991633683,0.0022936547175049,0.0024546412751078
1772808580796244500,6.349244384765625,0.0790156690478324,-0.0057979548221919,0.0032529054153012,0.0009127410594373,-0.0017635308904573,-0.0021947496570646
1772808580816294700,6.369294677734375,0.0852998638838529,-0.0094044092157855,0.0009883625833783,-8.17941036075e-05,-0.0009600295452401,0.0021081040613353
1772808580836343600,6.389343505859375,0.0842506470918655,0.0040603173746261,-0.0023757572545902,-0.0008428285364061,0.0011184733593836,0.0007546066772192
1772808580856392700,6.409392822265625,0.0817056387841701,0.0009645981153007,-0.0085362069799331,-0.0015401274431496,-0.0001232035574503,-0.0028772358782589
1772808580876441600,6.429441650390625,0.0882926159590482,-0.0026081823375541,0.0072799141753697,0.0013869828544557,-0.0006348451133817,0.0012538810260593
1772808580896490500,6.449490478515625,0.0884399154752492,-0.008707102000853,-0.0023670168257085,-0.0005347544793039,-0.0003601583885028,-0.0018790620379149
1772808580916540700,6.469540771484375,0.0788636933565139,-0.0034424777372274,0.0009220878475578,-0.0001792204566299,-0.0010366700589656,-0.0001094187609851
1772808580936589800,6.48958984375,0.0791612149983644,0.0077215250296052,-0.0029103481884812,-5.0521921366e-06,0.0004224763833917,0.0001585581339895
1772808580956638500,6.509638427734375,0.079160045954585,-0.0037581195576582,4.34829486999e-05,-0.0002208407968282,-0.0019640445243567,0.0005988259799778
1772808580976687600,6.5296875,0.0773661482751369,-0.0014389102293178,-0.0038319291459629,5.59750478714e-05,0.0001714000536594,0.0007888441905379
1772808580996736500,6.549736572265625,0.0864922885388135,-0.005789488387946,-0.0021215176320401,-0.002973667345941,0.0009340499527752,-0.0001120069064199
1772808581016785700,6.56978564453125,0.0776648389607667,0.0018032043639104,-0.0051994683392345,0.0010982854291796,-0.000390722125303,1.99084170162e-05
1772808581036834800,6.589834716796875,0.0818581989973783,-0.0010620306077878,-0.0050481639347737,-0.0019399989396333,0.0007591160247102,-0.0003665434196591
1772808581056884500,6.609884521484375,0.0773649792313575,0.0005398972966708,-0.0123767167245736,0.000440644333139,-0.0001211263879667,0.0004031409043818
1772808581076933600,6.62993359375,0.0776654234826564,0.0011631985604763,-0.007732124055433,0.0002126009203493,0.0031071377452462,-0.0013132812455296
1772808581096982800,6.649982666015625,0.0778162301301956,-0.0044958957802969,0.0020397119669476,-0.001276463503018,0.001015159767121,-0.0035359789617359
1772808581117031700,6.67003173828125,0.0769166509419679,0.0017817414507735,-0.0063212845765519,-0.0030133000109344,0.0001589393650647,0.0009903677273541
1772808581137080600,6.69008056640625,0.0803618229597806,-0.0026655933469068,-0.0063611370963277,-0.0012844752054661,0.0003076829598285,-0.0005177692510187
1772808581157129500,6.71012939453125,0.081554832136631,-0.0032333102322649,0.00144653184677,-0.0004926170222461,0.0003244323597755,-0.0011124112643301
1772808581177178600,6.7301787109375,0.0812561414510011,-0.0063872807511594,0.0077202874871669,-0.0012810176704078,-0.0015287942951545,-0.0009250896982848
1772808581197228500,6.750228515625,0.0842483090043067,-0.0019615823965519,-0.0023313518572831,-0.0020431657321751,0.0002045590663328,0.000676930649206
1772808581217277400,6.77027734375,0.0773649792313575,-0.0007029515044298,-0.0030864673737902,-0.0014266930520534,-0.0003244400722905,-0.0011843121610581
1772808581237326600,6.79032666015625,0.0709305622696876,0.0012365012587048,-0.0015150350722949,0.0005231203977018,-0.0009210273856297,-0.0007605804130434
1772808581257375700,6.810375732421875,0.0870925925195217,-0.0034296547882724,-0.0023575640107737,0.0019680738914757,0.0008311463170684,-0.0003261538222432
1772808581277424600,6.830424560546875,0.0752700527787208,-0.0037945151784457,-0.0118745713221374,0.0004642903804779,-0.0018082649912685,0.0008999989368021
1772808581297473800,6.850473876953125,0.0823012665897607,-0.0022845764063764,-0.0112155137583613,-0.0030152359977364,-4.1799939936e-05,-0.0001876377500593
1772808581317522400,6.8705224609375,0.0770592742830514,-0.002471760408394,0.0023797027773456,-0.0017520685214549,0.0011794629972428,-0.0004575550556182
1772808581337572600,6.890572509765625,0.0778115539550781,-0.0036915662606246,-0.0018478152571944,0.0012648929841816,0.0003601766366045,0.0015891434159129
1772808581357621800,6.910621826171875,0.0728735130310058,-0.0009670001349411,-0.0072781058107735,0.0003946395590901,0.0007408533710986,-0.0010133148171007
1772808581377670400,6.93067041015625,0.0802069246590137,-0.0018967004667967,-0.0147736172318924,0.0017552480567246,-0.0033176976721733,0.0019412988331168
1772808581397719600,6.950719482421875,0.0860410376399755,-0.0042089320650789,-0.0034597302661277,-0.0007334284018725,-0.0011899014934897,-0.0004651574417948
1772808581417768700,6.970768798828125,0.0840963333129882,-0.0036035683167632,-0.0034808278530836,0.0026549771428108,0.0003504366613924,-0.0012605935335159
1772808581437817600,6.990817626953125,0.0827478413134813,-0.000958287105523,-0.0122932031595846,-0.0001028650440275,0.0005726768285967,-0.0012897704727947
1772808581457866800,7.01086669921875,0.0796048671126365,-0.0022371388017665,0.0001732331084785,0.000349077861756,0.0023410615976899,0.0004531168378889
1772808581477916700,7.030916748046875,0.0748170483142137,0.005899341970589,-0.0015894017830258,-0.0003152103163301,0.0006344513967633,-0.0005676578730344
1772808581497965600,7.050965576171875,0.0790074857413768,0.0010097889638971,-0.0027246254911879,0.0030222879722714,-0.0006695316405966,-0.0001589893363416
1772808581518014700,7.0710146484375,0.0731710346728563,-0.0068977692902553,-0.0023354709099745,0.0005049118772149,-0.0008679671445861,-0.0012535071000456
1772808581538063600,7.091063720703125,0.0875362446337938,-0.0030998017793986,-0.0062715865161968,0.001642026240006,-0.0011102904099971,0.0001568654552102
1772808581558112500,7.111112548828125,0.0755658208549022,-0.0055878557354677,0.0036573580303462,0.0005266906227916,4.70142695121e-05,0.0014678023289889
1772808581578161700,7.13116162109375,0.0791559543013572,0.004570769381104,-0.000500305071799,-0.0026689921505749,-6.45561958663e-05,0.0004688918124884
1772808581598210600,7.15121044921875,0.0776613318294286,-0.0021332948348019,-0.0048191272521391,0.0002990455832332,-0.0006493286928161,0.0019004696514457
1772808581618260700,7.1712607421875,0.0757142894148826,-0.000576530379476,-0.0024084311149083,-0.0003603764344006,-0.0008988981135189,-0.0002135061658918
1772808581638309600,7.1913095703125,0.0722702864408493,-0.0015449918191414,-0.0056916860027005,-0.0008499671239405,-0.0012647613184526,0.0007095788605511
1772808581658358500,7.211358642578125,0.0813975957483053,-0.0039862200919538,-0.0022263662460027,0.001123335910961,0.0005154598038643,0.0001518516801297
1772808581678407700,7.23140771484375,0.0831950005590915,-0.0043008207327686,0.0030207132277777,-0.0014798853080719,0.0004192615742795,0.0021451646462082
1772808581698456600,7.25145654296875,0.0781061529874801,0.0003709887368604,-0.0057651804971741,0.0010537144262343,-0.0003783779975492,0.0006752402987331
1772808581718505700,7.271505615234375,0.0731657739758491,0.0034075251548551,0.0015985075380885,-0.0025700335390865,0.0003795649972744,0.0025588895659893
1772808581738555600,7.2915556640625,0.0802016639620065,-0.0021009634677786,-0.0079905192632926,0.0030080752912908,0.0030846574809402,0.0001678108237683
1772808581758604500,7.3116044921875,0.0776607473075389,0.004415852814028,-0.0076372808122541,0.0009013693779706,-0.0040128640830516,-0.0004874453879892
1772808581778653700,7.33165380859375,0.0799035577982664,0.0026757585478946,-0.0049983288771007,0.0020527017768472,0.000490979233291,-0.0008816267363727
1772808581798702600,7.35170263671875,0.0712245767802,-0.0027040804600808,-0.0019919455687748,-0.0007659094408154,-0.0009368160972371,-0.0004574218764901
1772808581818750700,7.371750732421875,0.0799041423201561,0.0058576308538671,0.0031044094558572,0.0009993538260459,-0.0012485928600654,0.000137607101351
1772808581838799400,7.39179931640625,0.0800543644458055,0.0003510327942203,-0.0009303031200543,-0.0005666119977831,-0.002374252770096,-0.0006272462196648
1772808581858848500,7.4118486328125,0.0842442173510789,-0.0026148495403584,0.0001672280593775,0.0029747909866273,-0.0015630542766302,-0.0007207300513982
1772808581878898700,7.431898681640625,0.0839455266654491,-0.0036723409703467,-0.0007548917542211,-0.0016788605134934,-0.0003124295035377,0.0011336728930473
1772808581898947600,7.451947509765625,0.0776630853950977,-0.0087817198733333,-0.0012576536445878,0.0007012288551777,-0.0008062489796429,-0.0004293927922844
1772808581918996500,7.47199658203125,0.0915799670666456,0.0056899278704542,-0.0042761566489702,-0.0010170720051974,-0.0034761850256472,-0.0003867815248668
1772808581939045600,7.492045654296875,0.0712286684334278,0.0043523043248336,-0.0071939163923496,-0.0008263420313596,0.0010404939530417,-0.000104664824903
1772808581959094500,7.512094482421875,0.0776660080045461,-0.005407576398272,-0.0017342307809274,0.0050387112423777,-0.000753361149691,-0.0013578566722571
1772808581979143700,7.532143798828125,0.0733271020174026,0.0006293382789473,0.0001158083993941,-0.0007726238109171,-0.000279911851976,0.0005827529821544
1772808581999192600,7.552192626953125,0.07497311565876,-0.0055020771481562,0.0052377453898545,-0.0016476183664053,0.0015719658695161,0.000318472739309
1772808582019242500,7.572242431640625,0.0779687903434038,-0.0006060396017506,-0.0080318833201425,-0.0002982399892061,-0.0004738271236419,0.0002054492942988
1772808582039291600,7.592291748046875,0.0823094498962163,0.0004204539017751,0.0009769963725702,0.0028617857024073,0.000509496545419,0.000849854433909
1772808582059340500,7.612340576171875,0.0841039320975542,-0.0035259639027528,-0.0066705272724851,0.000503088813275,-0.0016961494693532,9.87192615866e-05
1772808582079389700,7.6323896484375,0.0844049608707428,-0.0006163326669018,0.0004242441609036,0.0009576077573001,-5.76300080865e-05,0.001301075099036
1772808582099438600,7.6524384765625,0.0820113437324762,-0.0019115966418292,0.005800334008946,0.0003424687311053,-0.0009116779547184,-0.0014915177598595
1772808582119487500,7.672487548828125,0.0894938084423542,0.0098544728045351,0.0012488492836244,-0.0003662477247416,0.0030951788648962,0.0003783758729696
1772808582139537700,7.69253759765625,0.0809673876374959,0.0055912989347241,-0.0051303760252427,0.0004095057956874,-0.0039004478603601,-0.001469325274229
1772808582159586600,7.712586669921875,0.0764765059590339,-0.0037103622926399,-0.0069192641694331,0.0005418627988547,0.0023321672342717,-0.0009042704477906
1772808582179635500,7.732635498046875,0.0799222624987363,-0.0012439539127983,-0.0010436958000762,0.0006419022101908,0.0008767310064285,-0.0001439284533262
1772808582199684600,7.7526845703125,0.0821662420332431,-0.0038854631312191,-0.0143083149748155,-0.0010954709723591,0.000497052911669,-0.0023439028300344
1772808582219733500,7.7727333984375,0.088451605913043,0.0007174184211995,0.0042906463986262,-0.0002129210624843,-0.0020117280073463,-0.0008380901999771
1772808582239782700,7.79278271484375,0.0782744952917098,0.0043460937797557,-0.0035054691039957,-0.0005729102995246,-0.0001046338729793,0.0008325334638357
1772808582259831600,7.81283154296875,0.0746831928014755,-0.0014454769674222,-0.0069045917566865,-0.0005354292225092,0.0010280812857672,-0.0025105215609073
1772808582279881500,7.832881591796875,0.0826128167569637,0.0085665062200743,0.0043864029572578,-0.0007243070285767,0.0009395949309691,0.0012897143606096
1772808582299930600,7.8529306640625,0.0841103618383407,0.0033904096232727,-0.0040515404131263,0.0033130152150988,-0.0005960091948509,-0.000133326742798
1772808582319979800,7.872979736328125,0.0721416916251182,0.0016144220598507,-0.0025183349299011,0.0011844425462186,5.08147350046e-05,-0.0014882711693644
1772808582340028400,7.8930283203125,0.0848649795979261,0.0074819349869154,0.0008261805918766,0.0015905778855085,0.001314626657404,-0.0014169728383421
1772808582360077600,7.91307763671875,0.0878594852387905,0.0039869050785433,-0.0035476460115984,0.0022955790627747,-5.106267053633928e-07,-0.001371422316879
1772808582380126500,7.93312646484375,0.0842711053580045,-0.0007696326656267,-0.0004462504967348,0.0005627744831144,0.0009540694882161,-0.0006915652193129
1772808582400176600,7.9531767578125,0.0826256762385368,-0.0039197672596201,-0.0051919700193684,0.0008057001978158,0.0010543667012825,0.0004192381165921
1772808582420225500,7.9732255859375,0.0754401486486196,0.0032778617600444,-0.0027101448746863,7.93931540101e-05,-0.0022901671472936,-0.0002868701703846
1772808582440274400,7.9932744140625,0.0793313108682632,-1.42477210611e-05,-0.0019888448628131,0.0008037560619413,0.0011715632863342,0.0013353812973946
1772808582460323600,8.013323486328124,0.0854652835786342,4.99857547227e-05,-0.0044048701957101,-0.0002469748724251,0.0013504668604582,-0.0002681803889572
1772808582480372700,8.033372802734375,0.0772375534594058,0.0013906323744915,-0.0061805426653008,-0.001972874160856,0.0032798894681036,-0.0005042916163802
1772808582500421600,8.053421630859376,0.0775344905793666,-0.0008748648720793,-0.006812410828052,0.0013679559342563,0.0002617685531731,0.0010927733965218
1772808582520470500,8.073470458984374,0.0817231744408607,0.0048766569925006,0.0020021062031853,0.0010304155293852,0.0001161226828116,-0.0011272341944277
1772808582540520700,8.093520751953125,0.0776841281831264,0.0036172497822437,-0.0043193747361889,-0.0017614489188417,-0.0001094114268198,0.0006782019045203
1772808582560569600,8.113569580078124,0.0836725549429655,0.0025735494155902,-0.0009670732001774,-6.0683581978e-05,-0.0004681579302996,-9.97730530798e-05
1772808582580618500,8.133618408203125,0.0781383016914129,0.0065357493111398,-0.0032435119658708,-0.0039798230864107,0.0035335756838321,-0.002004244364798
1772808582600667400,8.15366748046875,0.0899555807352066,-0.0026234164393041,0.0023352288813795,-6.92594330757e-05,0.0012401370331645,0.0005082264542579
1772808582620716500,8.173716552734374,0.0731996762454509,0.0003097692020703,-0.0002454672276275,-0.0021203679498285,-0.0018152168486267,-0.0019725742749869
1772808582640765700,8.193765625,0.0700543639570474,-0.0055509395248722,-0.0094089575267396,-0.0019757091067731,0.0011537895770743,-0.0005359295755624
1772808582660815400,8.2138154296875,0.0889063639432191,-0.0041182855064049,-0.005084207929112,0.0018684091046452,0.0009915793780237,-0.0018929596990346
1772808582680864500,8.233864501953125,0.0778366883963346,0.0011651804550085,-0.0012932318480452,-0.0006797753740102,-0.0023624442983418,0.0008098378311842
1772808582700913700,8.25391357421875,0.0800830060184001,-0.0028744137919973,-3.39296690654e-05,-0.0008777529001235,0.0013305919710546,0.0016617842484265
1772808582720962600,8.273962646484375,0.0847235253006219,-0.0078944704437162,-0.0032476218854077,0.0032087715808302,0.0015363090205937,0.001202586106956
1772808582741011700,8.29401171875,0.086075524431467,7.80062728095e-05,-0.0048501251786015,0.0017370665445923,0.0003691918682307,0.0015318957157433
1772808582761060400,8.314060302734376,0.0753033705264329,-0.0042334728512912,8.94729483174e-05,-0.0002416472416371,-0.0006038599531166,0.001298607327044
1772808582781109500,8.334109619140625,0.0884679725259542,-0.0050547809052281,0.0066767971830675,-0.0039300685748457,0.0006723357364535,-0.0004333383403718
1772808582801159700,8.35415966796875,0.0827823281049728,0.0063666489550843,-0.0034711512758629,-0.0018254573224112,0.0020258033182471,-0.0001559341326355
1772808582821208800,8.374208740234375,0.0757470226407051,0.0036251590940635,0.0035107435007346,0.0001618943642824,2.92393378913e-05,-0.0012724171392619
1772808582841257700,8.3942578125,0.086525021764636,0.0024887024100404,0.0016642479843692,0.0002209618687629,0.0033387658186256,-0.0038205198943614
1772808582861307000,8.414306884765624,0.0815875653624534,0.0057106875306926,-0.0104418899042066,0.0006987315136939,-0.0004926475230604,-0.0010358435101807
1772808582881355800,8.434355712890625,0.0842845493614673,-0.003364544529654,-4.04005090473e-05,-9.27313230931e-05,-0.0007971059530973,5.5404379963e-06
1772808582901405000,8.454405029296876,0.0827881733238697,-4.30445572827e-05,-0.0067129188092192,-0.0005244363564997,-0.000671123387292,-0.0001760073937475
1772808582921454800,8.474454833984375,0.0757592976003885,0.006927470308775,-0.0002030665577389,0.0002630145754665,0.0023514018394052,-0.0023350473493337
1772808582941503700,8.494503662109375,0.088179218712449,0.0012702208652161,0.0012949899802915,-0.0002617365680634,-0.0001996209321077,2.20970250666e-05
1772808582961553000,8.514552978515624,0.0733656804621219,-0.0015790493523702,-0.0033550825815647,-0.0005371337756514,0.0017936767544597,-0.0008440501987934
1772808582981602000,8.53460205078125,0.0850397516429424,0.0032001203487161,-0.0021196042361669,-0.0004413935821503,0.0016785440966486,-0.0002855472266674
1772808583001650700,8.554650634765625,0.0844429547935724,0.0038930253831669,-0.008651124896761,0.0021953142713755,-0.0007840761682018,-0.0011860411614179
1772808583021699800,8.574699951171874,0.0827951875865459,3.88067735824e-05,-0.00686595851304,0.0001257027033716,0.0002107665350195,-0.0024075536057353
1772808583041750000,8.59475,0.082945994234085,0.0022000033954624,-0.0090928042496554,-0.0002396397758275,-0.0014261273900046,-0.0013821055181324
1772808583061799000,8.614798828125,0.0857937848806381,-0.0062520369989331,-0.000617688940349,0.0014286928344517,0.0006869090721011,-0.0006870115175843
1772808583081847800,8.634847900390625,0.0739718296617269,0.0043306404822971,-0.0006604047040687,-6.48845452815e-05,0.0010128343710675,-0.0010335072875022
1772808583101896700,8.654896728515626,0.0844458774030208,0.0017457842214033,-0.0034181652798783,-0.0007125614210963,0.0006070997333154,0.003827657084912
1772808583121945900,8.67494580078125,0.0822007288247346,0.0055918012582231,-0.0037828338738065,-0.0021266737021505,0.001213091192767,0.0009629176929593
1772808583141995000,8.6949951171875,0.078309566605091,-0.0011998042438179,-0.0070108331767143,-0.0054008895531296,0.002029538154602,0.0007545922417193
1772808583162044000,8.7150439453125,0.0748655636310577,-0.0021924502766691,0.0031841601611813,-0.0012701384257525,0.0020728700328618,-0.0003150654956698
1772808583182093800,8.73509375,0.0833919844359159,0.0016258385030087,-0.0094479560965672,-0.0021247370168566,0.0003387206525076,0.0038078646175563
1772808583202143000,8.75514306640625,0.076655369657278,0.000495601497218,-0.0033918937608832,-5.94432931393e-05,0.0010695821838453,0.0009144749492406
1772808583222191900,8.77519189453125,0.0970060837686061,-0.0038546661341562,-0.0080984594500623,5.445163697e-05,-0.0002343903470318,-0.0002875621430575
1772808583242241000,8.795240966796875,0.0766524470478296,0.0034053971298504,0.003079471377423,-0.0030798316001892,-0.0016258044634014,0.0005974995438009
1772808583262289700,8.81528955078125,0.0745545979857444,0.002767382354103,-0.0016048368141753,-0.0017083713319152,0.0011161911534145,-0.001330925617367
1772808583282338800,8.8353388671875,0.0738099170982837,-0.0032976076401304,-0.0074034126908751,4.81388997286e-05,0.0005544858286157,2.76141799986e-05
1772808583302389000,8.855388916015626,0.0848842688202858,-0.002013760108361,-0.005493606147333,0.0010414214339107,-0.0006110367248766,0.0013443157076835
1772808583322438000,8.87543798828125,0.0853337661534547,0.0004675901122856,-0.0139766033689957,0.0010741744190454,0.0009972610278055,-0.0003119031898677
1772808583342486800,8.89548681640625,0.0784527744680643,0.0025113982990384,-0.007307733764057,-0.0003777414094656,-6.91513414494e-05,0.0004541180096566
1772808583362536000,8.915535888671876,0.072018942028284,0.0026829280741978,-0.0094024684204487,0.0006086323410272,0.0008058010134845,0.0002044299617409
1772808583382584800,8.935584716796875,0.0851899737685918,0.0009235628520138,0.0021475105898221,0.0020573877263814,-0.002904858905822,0.0025971848517656
1772808583402634000,8.955634033203125,0.0789040253669023,-0.0020374332448933,0.0002972476472146,-0.0007557657081633,-0.0006126149091869,0.0005793953314423
1772808583422684000,8.975683837890625,0.0974561656236648,0.0047621729005128,-0.008212541683251,-0.0009377205278724,0.002202998381108,-7.4986834079e-05
1772808583442732800,8.99573291015625,0.0854834037572145,-0.0016850578769575,0.0001443906064843,-0.0027946531772613,0.0011878383811563,0.0003473781980574
1772808583462782000,9.015781982421874,0.0841401724547147,-0.0022578527962323,-0.0060158216568408,0.0006505593191832,-0.0004747697093989,-0.0014347005635499
1772808583482830800,9.035830810546877,0.0793523536562919,0.0013523370575625,-0.0032782636188436,0.0018651520367711,-0.0007291488582268,0.0015956999268382
1772808583502879700,9.055879638671875,0.0810018744289875,0.000929362405138,-0.0065112815901637,0.0008554442320019,0.0006384829757735,0.0003375886008143
1772808583522929000,9.075928955078124,0.0863876591205596,0.0012505571835208,-0.003225729714008,-0.0009269868023693,0.0015378766693174,-0.0009840922430157
1772808583542977800,9.095977783203123,0.076664722007513,0.005360431054607,-0.0092811664286069,0.0010495083406567,-0.0007843682542443,-0.0014009727165102
1772808583563028000,9.116028076171874,0.081752400535345,-0.0050738052661065,-0.0077251554585294,-0.0002268098760396,-0.000439459196059,0.0005931002087891
1772808583583076900,9.136076904296877,0.0814542943716049,-0.0031210363636724,-0.0139096573463175,0.0005670948885381,0.0003333429049234,-0.0002463953569531
1772808583603125800,9.156125732421875,0.0772650259882211,0.0011351780423894,-0.0047317777622491,-0.0019164225086569,-0.0004977882490493,-0.00115328701213
1772808583623175000,9.1761748046875,0.0805558842271566,-0.0018498199846129,-0.0003985069314483,-0.0003576737362891,-0.0004738718271255,0.0019036042504012
1772808583643223800,9.196223876953123,0.0830968008816242,0.0036352420966606,-0.0009061596260638,-0.00016003055498,-5.48399402759e-05,-0.0023483866825699
1772808583663273000,9.21627294921875,0.0730687433421611,0.0023528650027699,-0.0021610504914075,0.0008650715462863,0.0017901470419019,0.0015849019400775
1772808583683323000,9.236322998046877,0.0784574506431818,0.0063653337808325,-0.0113373500397428,0.0009663896635174,-0.001765786204487,0.0007585026323795
1772808583703371800,9.256371826171875,0.0845925923973321,0.0024274554757867,-0.0035336768517503,0.0015811705961823,0.0021990146487951,-0.001740223262459
1772808583723421000,9.2764208984375,0.088335870578885,-0.0026341296295635,-0.0044621396411675,0.0018378898967057,0.0012060711160302,0.0003481837920844
1772808583743470000,9.296469970703123,0.0801098940253257,6.15026625804e-05,-0.0016114035522798,0.0021107937209308,0.0015660785138607,0.0005453298799693
1772808583763518700,9.316518798828126,0.0872936680495738,-0.0001682327063754,-0.0049367348829749,-0.0005322229117155,7.6499156421e-05,-0.0002871146425604
1772808583783568000,9.33656787109375,0.0790635998427867,0.0046006713290233,-0.0045808478171238,-0.0031683379784226,0.0019767461344599,0.0001614522188901
1772808583803616800,9.35661669921875,0.0718792412966489,0.0029441180273424,-0.0026751511931186,0.0004373795818537,-0.0004164435667917,-0.0006406409665942
1772808583823670500,9.37667041015625,0.0747235248118639,-0.0035517467979807,-0.0050657680901233,-0.0013928320258855,-0.0027447615284472,0.0026405551470816
1772808583843719700,9.3967197265625,0.0826508106797933,-0.0010807079087942,-0.0060102823986206,-0.000834907637909,0.0007171251927502,-0.0002111736685037
1772808583863768600,9.4167685546875,0.0823497819066047,-0.0017121285469736,0.0032130072297528,-0.0005254673305898,-0.0012900526635348,0.0016353740356862
1772808583883817700,9.436817626953124,0.0866881033718585,0.0022477332610171,-0.0024454295238945,-0.0043337373062968,0.0013584470143541,-0.0003341324627399
1772808583903866600,9.45686669921875,0.0845896697878837,0.0026093787807971,-0.0079363139911787,-0.0013711475767195,-0.0007920934003777,0.0001212586648762
1772808583923915500,9.47691552734375,0.0793500155687332,0.0049710481445305,-0.0039257312095258,-1.7003621906e-06,0.0002236061263829,-0.0006561949849128
1772808583943965700,9.496965576171876,0.0783043059080839,0.0043996779973618,-0.0007847160703269,0.0029485221020877,0.0013816328719258,0.0016001982148736
1772808583964014600,9.5170146484375,0.0848877759516239,-0.0034426330008544,-0.0035941155018284,0.0002244671341031,0.0032223460730165,-0.0013423366472125
1772808583984063700,9.537063720703124,0.0733645114183425,0.0046554519898723,-0.0047435503984335,0.0002191870007663,-0.0009538806043565,0.0003350479528307
1772808584004112600,9.557112548828124,0.0791986243993043,0.002115841376502,0.0069294019709574,-0.000260715605691,0.0009322636760771,-1.568114385e-05
1772808584024161500,9.57716162109375,0.0827887578457593,0.0022174933863803,-0.0022674380419077,-0.0020942243281751,-0.0006920942105352,0.0016880265902727
1772808584044210700,9.597210693359376,0.0799479814618825,-0.000627319851797,-0.0078807524456176,0.0024306317791342,0.0003550070978235,0.0013454337604343
1772808584064260600,9.617260498046877,0.0745616122484207,-0.0054794086586218,-0.0008453465166501,0.0010963575914502,-0.0006303653353825,0.0015739744994789
1772808584084309500,9.6373095703125,0.0824953278571367,0.0001981711869128,0.0038758276531938,-0.00118945306167,0.0022712424397468,-0.00230343779549
1772808584104358700,9.657358642578124,0.0672357994049787,-0.0010590440662577,-0.0093664563921513,0.0020923644769936,-0.0012913492973893,-0.0004800506867468
1772808584124407600,9.677407470703123,0.0801034642845392,0.0047157399429008,-0.0029462734518107,-0.000255407532677,-0.0015520062297582,-0.000183917582035
1772808584144456700,9.697456787109376,0.0765104082286357,0.0026764526676386,-0.0006017561522778,0.000760440248996,-0.0016442848136648,0.001969407312572
1772808584164505600,9.717505615234376,0.0772550891160964,-0.0014133739292621,0.0047590447950875,0.0009957996662706,3.73605871573e-05,7.79018737375e-05
1772808584184554500,9.737554443359375,0.0838373901158571,-0.0030381164537277,-0.0157561254632193,0.0025276017840951,-0.0001760199811542,0.0003817165270447
1772808584204604700,9.757604736328124,0.0830932937502861,-0.0029177232107613,-0.0050625029873801,-0.0007381148170679,-0.0009539023740217,-0.0005882075056433
1772808584224653800,9.77765380859375,0.0868318957567215,5.12735295109e-05,0.0014287130622891,0.0002804510295391,0.0005949806072749,0.0001779193989932
1772808584244702500,9.797702392578126,0.0762105484992265,0.0018026289751753,-0.0002444625806296,0.0006983829662203,-0.0001002264616545,0.0010217858944088
1772808584264751600,9.817751708984376,0.0868342338442802,-0.0002407682196237,-0.0107288810188882,0.0001355595886707,-0.0027849632315337,-0.0005769710987806
1772808584284800500,9.837800537109375,0.0787543877631425,0.0001329513304401,-0.0049855150613002,-0.00238814111799,0.0003207467088941,-0.0004813079722225
1772808584304849700,9.857849609375,0.0812999805927276,0.0008179653193801,-0.0054620465318672,0.0019518171902745,-0.0001758417201926,0.0017418295610696
1772808584324899600,9.877899658203123,0.0772580117255449,-0.0030335498764645,-0.0082200993686215,-0.0008503468707203,0.0013693721266463,0.0012408278416842
1772808584344948500,9.897948486328126,0.0763590170592069,0.0104615353195928,-0.0032669796064263,0.0005855706986039,0.0017991757486015,0.0011088196188211
1772808584364997600,9.91799755859375,0.0721697486758232,0.0118525695528835,-0.0081819547487422,0.001737221609801,0.0009637384791858,0.0006638828199356
1772808584385046800,9.938046875,0.0905780965477228,0.0042547348350286,0.0008545344701036,-1.40962656587e-05,-0.0004755762056447,0.001981706591323
1772808584405095700,9.958095703125,0.0715741208702325,-0.0097612232968211,-0.0007346937829861,-0.0003379229456186,0.0024268785491585,-0.0012070755474269
1772808584425144600,9.97814453125,0.0759159494668245,-0.0042971035388763,-0.0014664740896783,-0.0008521666750311,-0.0005437689833343,0.0029732487164437
1772808584445194800,9.99819482421875,0.0817494779258966,0.0017645345876459,0.0023515361287863,-0.001735873054713,0.000180829752935,0.0005319230258464
1772808584465243600,10.01824365234375,0.0889332519501447,0.0003307115253992,0.002811490923888,-0.0018928104545921,0.0003728008014149,-0.0021807067096233
1772808584485292800,10.038292724609375,0.0790524939268827,6.47083998192e-05,0.0090968822031514,-0.0006134682334959,-0.0008618423016741,-0.0016651158221065
1772808584505341400,10.058341552734374,0.0784539435118436,0.0036541385933756,-0.0046364047961076,-0.0014234543778002,-0.0024221083149313,-0.001134852413088
1772808584525390600,10.078390625,0.0793500155687332,0.0019139438625425,0.0012899210795294,-0.0007059790659695,-0.0002659497840795,0.0001698532141745
1772808584545439700,10.098439697265626,0.0777022483617067,0.0007028875723481,-0.001934931851644,-0.0009782274719327,-0.0018835586961358,0.0006573759019374
1772808584565488600,10.118488525390624,0.0797948367267847,0.008305097071221,-0.0092985468216706,0.0014624190516769,-0.0019576153717935,0.0009380613919347
1772808584585538600,10.13853857421875,0.0812912127643823,0.0038008079219143,-0.0033437529033748,0.0001564465928822,0.0002169948711525,-0.00138975167647
1772808584605587700,10.158587646484374,0.071714990645647,-0.0008335464810021,-3.77473276574e-05,-0.0004039406776428,0.0001365720236208,0.0003284104168415
1772808584625636600,10.17863671875,0.0763502492308616,-0.00481477073743,-0.0043537108306307,0.001872576540336,0.0022671080660074,0.0013595048803836
1772808584645685800,10.198685791015626,0.0811368989855051,0.008074092193786,0.0014888777177315,-0.0003046263009309,-0.002069863025099,0.0010148268193006
1772808584665734700,10.218734619140625,0.080540102136135,0.0002560662534553,-0.0069355166179127,0.0009806859306991,-0.0015180981718003,-0.0009816801175475
1772808584685783600,10.238783447265623,0.0770990217715501,0.0010678301609121,-0.0077960150379221,-0.0008380257058888,0.0008646670030429,0.0013653603382408
1772808584705833700,10.258833740234374,0.0827858352363109,0.0015332009166479,-0.0073607517260825,0.000780182890594,0.0002447360893711,-0.0008607795462012
1772808584725882600,10.278882568359377,0.0826391202419996,-0.003248599132942,-0.0051041501720203,0.0020364709198474,0.0032081552781164,-0.001115639694035
1772808584745931500,10.298931640625,0.0797901605516672,-0.0080876640614122,-0.0064391799017554,-0.0033329278230667,0.0022015196736902,0.0002919258549809
1772808584765980700,10.318980712890625,0.0812847830235958,0.0063158868822269,0.0110540989518398,-0.0012103882618248,-0.000532308127731,-0.001071966253221
1772808584786029600,10.339029541015623,0.0745505063325166,-0.0004501549202948,-0.0012470683184918,-0.0005991093348711,-0.0011987431207671,-0.0002788198180496
1772808584806078700,10.35907861328125,0.0757446845531463,0.0012271032426971,-0.0122107399073662,-0.0008833883330225,-0.0016189862508326,-0.0008589401841163
1772808584826124800,10.379124755859374,0.0776870507925748,0.0024446714720688,0.0009159458011388,-0.0007783556357026,-0.0008272221311926,0.000686930026859
1772808584846173700,10.399173583984377,0.0793318953901529,-0.004338239266863,-0.000416928504128,-0.0002065647859126,-0.0012464325409382,0.0026596311945468
1772808584866222800,10.419222900390626,0.0758913995474576,0.0061853649708908,-0.0067638635451672,-0.0002318071201443,-0.0016164096305146,-0.0001384993083775
1772808584886271700,10.439271728515624,0.0719996528059244,0.0051946277673356,-0.006037220637896,-0.0019470781553536,2.7655914891e-06,-0.0012712934985756
1772808584906321000,10.45932080078125,0.0770925920307636,-0.0022181875061243,0.0032582346109673,0.001628091558814,0.0015139991883188,-0.000912195071578
1772808584926369800,10.479369873046876,0.0833779559105634,0.0021072562112472,-0.0051815308237448,0.0008216321002691,0.0011396389454603,0.0001735733821988
1772808584946418700,10.499418701171876,0.0666167907238006,-0.001115441295458,-0.0003787336518988,-0.0008404378313571,-0.0007099189679138,0.0022203619591891
1772808584966468900,10.51946875,0.0805348414391279,-0.0110843890588264,-0.0029278610122855,-1.40944030135e-05,0.0013142768293619,-0.0007715891115367
1772808584986518000,10.53951806640625,0.0776934805333614,-0.0048042950091883,-0.0031457187137799,0.0005433643236756,0.0025083268992602,0.0026926980353891
1772808585006566700,10.559566650390623,0.0823351688593626,0.0020204090448562,-0.0017651373758446,0.0013167588040232,0.0003296402283012,0.0012210521381348
1772808585026615800,10.57961572265625,0.086525021764636,-0.0009953311802819,0.0003839121505152,0.0031404111068695,-0.0004313606186769,0.0017370928544551
1772808585046664700,10.599664794921877,0.0785959823310375,0.0022010537082329,-0.0005219004156766,-0.0018795097712427,0.0005858538788743,0.0018304784316569
1772808585066713900,10.6197138671875,0.0778483788341283,0.0027270320774056,0.0019070528974523,0.0006650744471698,-0.0001383950002491,0.0003363322466611
1772808585086763800,10.639763671875,0.079796005770564,0.0004525112741626,-0.0010947227344149,0.0007947841659188,0.0023016086779534,-0.0002477271482348
1772808585106812700,10.659812744140623,0.0823410140782594,0.0021317330653779,-0.0071499448198825,0.0002154849935323,0.0017017126083374,-0.0005968012847006
1772808585126861800,10.67986181640625,0.0818909322232007,0.0049764093062374,-0.0025490040628006,-0.0003718186635524,0.0027152150869369,-0.0007068566046655
1772808585146911000,10.699910888671877,0.0887754310399293,0.0085624693657737,-0.0024583666372811,0.0005246873479336,-0.0013667469611391,-0.0009549856185913
1772808585166959900,10.7199599609375,0.0790489867955446,-0.0033138737883418,-0.0037524067695019,0.0021899798884987,0.0021991906687617,-0.0011062039993703
1772808585187008800,10.7400087890625,0.0871282483547925,-0.0040520610029343,0.0019736335939494,-0.0017453155014663,-0.0002070212212856,-0.000218388158828
1772808585207057700,10.7600576171875,0.0769517222553491,0.0056193559854291,-0.0065419552896404,0.0019874204881489,0.001189773203805,0.0017605500761419
1772808585227107800,10.78010791015625,0.0777063400149345,-0.0020142624318599,-0.008236278751865,0.0078301802277565,0.0285216812044382,-0.0001790695823729
1772808585247156700,10.80015673828125,0.0416676429063081,-0.0001185209462884,0.0129010511259315,0.0071594552136957,0.0211535301059484,-0.002084850333631
1772808585267205600,10.82020556640625,0.0463268668889999,0.0006114007634576,0.0076037598518538,0.0034858614671975,0.0022522811777889,0.000180875416845
1772808585287254800,10.8402548828125,0.0738508336305618,0.0080553418275434,0.0022292180735035,-0.0008283171337097,-0.0039672832936048,0.0023632838856428
1772808585307304000,10.860303955078123,0.0859644652724266,0.0057678702111821,0.0048148072700481,-0.0001644240692257,-0.0043571493588387,0.0012054431717842
1772808585327352800,10.880352783203126,0.0870025761485099,0.0030585199209395,-0.0042939845666056,-0.0007276651449501,-0.0057878042571246,-0.0002900855615735
1772808585347402000,10.900402099609376,0.0691857644289731,0.0061182636845856,0.0065511843422893,-0.0015993050765246,-0.0010050295386463,-0.0006254608742892
1772808585367452000,10.920451904296876,0.0886345612645149,-0.0070351684669498,-0.0080135211129672,-0.0028404651675373,-3.37738456437e-05,-0.0008582891896367
