time,seconds_elapsed,accel_z,accel_y,accel_x,gyro_x,gyro_y,gyro_z
1772808597936114000,0.129114013671875,0.0869113907337188,-0.0062242813423275,0.0003697968601947,0.0042575281113386,-0.0003750098403543,0.001362248789519
1772808597956162800,0.149162841796875,0.0885591579407453,-0.0004268927757162,-0.0022201054685749,-0.0031072301790118,0.001859831274487,0.0001508123241364
1772808597976211700,0.169211669921875,0.090055533978343,-0.0065658613216131,-0.001723951415508,-0.0006720502860844,-0.0016997654456645,-0.0006858762353658
1772808597996260600,0.189260498046875,0.0884136119902133,-0.0028772268035914,-0.0022785074251936,0.0009720595553517,0.0005026768194511,-2.98451632261e-05
1772808598016309800,0.209309814453125,0.0750958652555942,-0.0072886865702923,-0.0081557471618289,0.0005065808072686,-0.0002004003181355,-0.0002071540802717
1772808598036359000,0.22935888671875,0.1006856490641832,0.0077610167897772,-0.0027358181720599,-0.0003145828377455,-0.0012283592950552,0.0001065847463905
1772808598056408600,0.24940869140625,0.0869178204745054,-0.0036903424179181,-0.0001573916519526,0.0021023340523242,-0.0014693676494061,-0.0012830151244997
1772808598076457700,0.269457763671875,0.0896124663859605,-0.0010155245849397,-0.0049453154816525,0.002007846487686,-0.0016462331404909,-0.0010814126580953
1772808598096507000,0.2895068359375,0.0851601631522178,0.0074700527528766,0.0002349504001904,-0.0001249518245458,0.0022012705449014,-0.0004599466919898
1772808598116555800,0.3095556640625,0.0864525410503149,-0.0094981062480714,0.0051447379107354,-0.0010961366351693,-0.0003314108180347,-0.0004163458943367
1772808598136604700,0.329604736328125,0.0870604438155889,0.0016265965548343,-0.0022133652005344,-0.0005225632339715,0.0023951053153723,8.36253166198e-05
1772808598156653600,0.349653564453125,0.0903559782296419,-0.005088719707448,0.0014662092281971,0.002411919645965,-0.0018589938990771,-0.0006567346863448
1772808598176703700,0.369703857421875,0.0851157394886016,-0.0034837595956865,0.0039924945691134,0.0021646940149366,0.0010473176371306,-0.0015234411694109
1772808598196753000,0.3897529296875,0.081233929619193,0.0006923570451792,-0.0027298085563816,0.0014676435384899,-0.004927278496325,5.10020181536e-05
1772808598216801500,0.409801513671875,0.0921598127812147,-0.0066274370494298,0.006134319770243,-0.0002559514250606,4.94233099743e-05,0.0003002537414431
1772808598236850700,0.4298505859375,0.0828892956107854,-0.0082562529608141,0.0042327969978563,-0.0011406259145587,-0.0003918789152521,7.90781341493e-05
1772808598256899800,0.44989990234375,0.0938181013822555,-0.0028121165449731,0.0006901194223202,-9.99507028609e-05,-0.0009586536325514,0.0022579827345907
1772808598276949800,0.46994970703125,0.0846867004215717,-0.0005714797450229,-0.0021768371490063,-0.0004855873994529,-0.0003215824544895,-0.002055749297142
1772808598296998700,0.48999853515625,0.0852910960555076,-0.0017854403783567,-0.0031071676685241,-0.0008053968194872,0.0009990079561248,-0.0005975910462439
1772808598317047800,0.5100478515625,0.087395959380269,0.0020116320833563,0.0136853790371911,0.0016148497816175,-0.0011004178086295,-0.0006019659340381
1772808598337096700,0.5300966796875,0.0773702399283647,-0.001121706639463,-0.0004001782987266,-0.0006875097751617,-0.0010653699282556,-0.000601930078119
1772808598357145900,0.550145751953125,0.0881453164428472,-0.0044943796766456,0.006938452927093,0.0020604629535228,-0.0028289738111197,-0.0009815054945647
1772808598377195800,0.57019580078125,0.0856026462227106,0.0078096599707845,0.012187902454473,0.0055675888434052,-0.0020729526877403,-3.02805565297e-05
1772808598397244700,0.59024462890625,0.0815676916182041,0.0025334183346014,0.0041354923695325,0.0025475393049418,0.0005212610703893,0.0004204588476568
1772808598417293800,0.6102939453125,0.0856061533540487,0.0068703058945946,0.0031942248974693,-0.0002386437263339,0.0021665836684405,-0.0001527299173176
1772808598437342700,0.6303427734375,0.0889034413337707,0.002273689686181,-0.0018843296089908,0.0002613568212836,-0.0015722386306151,0.0004599685780704
1772808598457391600,0.6503916015625,0.0847124193847179,-0.0001392258075997,0.0029707548725185,0.0011201461311429,-0.000922366278246,-0.0004261997528374
1772808598477441800,0.67044189453125,0.092795188075304,0.0010911288381088,0.0115994624414946,0.0006692158058285,-0.0019282540306448,0.0007205770816653
1772808598497490700,0.69049072265625,0.0851613321959972,0.0023233740468043,-0.0024806241348618,-0.0004291338846087,-0.0013738642446696,-0.0017292257398366
1772808598517539800,0.710539794921875,0.0868067613154649,0.0003450962437782,0.0010341607867507,0.000611645868048,0.0011247372021898,4.54285182058e-05
1772808598537588700,0.730588623046875,0.0814198075801134,-0.0005636708979029,0.0016394286369439,-0.0013003682252019,0.0009579019388183,-0.0012373547069728
1772808598557637600,0.7506376953125,0.0832166278690099,-0.0008621606541331,0.0012397754946025,0.0020021731033921,0.0010748533532023,0.0014938281383365
1772808598577686800,0.770686767578125,0.0893465089261531,0.003911419556383,0.0044917356284102,0.0010090610012412,-0.0005569821223616,-1.67395919561e-05
1772808598597737000,0.790737060546875,0.0794704270780086,0.0023457594085484,-0.0002657747967168,0.0010192012414336,-0.001942855771631,-0.0020749815739691
1772808598617785600,0.81078564453125,0.0948807621777057,0.0030641824767459,0.0006898271613754,-0.0008203445468097,0.0032435648608952,-0.0014830073341727
1772808598637834800,0.830834716796875,0.0751262603938579,0.001211987871956,0.0013503094972576,-0.0013021307531744,0.0012732532341033,-0.000756396446377
1772808598657883600,0.850883544921875,0.0851531488895416,0.0029617541487328,-0.0024426302120322,0.0009525774512439,0.0007096858462318,-0.002084344625473
1772808598677933600,0.87093359375,0.0859007523864507,0.005240512735676,-0.0019783782677259,0.0018441823776811,-0.0002324411470908,-0.0007779169827699
1772808598697982700,0.890982666015625,0.0867974089652299,0.007415071162628,0.0071966517721302,-0.0019131900044158,0.0002675457508303,0.0012015611864626
1772808598718031600,0.911031494140625,0.0857493612170219,-0.0016573661524336,-0.0002786160119809,-0.0006392628420144,0.0005675400607287,0.0008047583978623
1772808598738080800,0.931080810546875,0.0790162535697221,0.001821068814164,0.006931027672463,0.0015482660382986,0.0007851084810681,0.0012476001866161
1772808598758130000,0.9511298828125,0.0770686266332864,-0.0065229172290302,0.0104707415393553,-0.0010246329475194,0.0013780934968963,-0.0015507731586694
1772808598778179600,0.9711796875,0.0866466023176908,-0.006980479137646,0.0041238612972432,0.0011009846348315,0.0029286898206919,-0.0017161360010504
1772808598798228700,0.991228759765625,0.0800643013179302,0.0044347858433611,0.0092702294760616,0.0020005938131362,0.0005030725733377,0.0009952744003385
1772808598818278000,1.01127783203125,0.0866477713614702,-0.0058220115512143,-0.0027188168049091,0.0003333366475999,0.0001522881211712,0.0006754924543201
1772808598838327000,1.0313271484375,0.0772211868464946,0.0025683891832828,0.0033524613662157,-0.0017670721281319,0.0005543335573747,0.0001765922643244
1772808598858376000,1.0513759765625,0.0863514187633991,-0.000471188575169,-0.0015087103627854,0.0019392492249608,-0.0003796568489633,0.0010929722338914
1772808598878426000,1.071426025390625,0.0836556038081645,-0.0019653817888349,-0.00182471294282,0.0006708076689392,0.0002263520291307,-0.0002854722552001
1772808598898475000,1.09147509765625,0.0844037918269634,0.0026532727214507,0.0010472211977234,-0.0016015339642763,0.0011728797107934,-0.0009345710277557
1772808598918524000,1.11152392578125,0.0809592043310403,0.0010532079805154,0.0105709687771275,-0.0024368208833038,0.0016857231967151,0.0022064207587391
1772808598938572800,1.13157275390625,0.0876911429345607,0.0006985675902571,0.0075699968628585,0.0004294433165341,-0.0014517970848828,-0.0004106285050511
1772808598958622000,1.1516220703125,0.0733241794079542,-0.0021086718501988,-0.004463847541064,-0.0013593500480055,-0.0001420271582901,0.0002339263446629
1772808598978672000,1.171672119140625,0.081409286186099,-0.0012316606868058,0.0001871794354403,0.0010456284508109,-0.0004760491137858,-0.0006509888917207
1772808598998720800,1.191720703125,0.0930851109325885,-0.0012069281043484,0.0059056484137894,0.0031426660716533,-0.0001181266488856,0.0016594019252806
1772808599018770000,1.21177001953125,0.0817184982657432,0.0011278167198412,0.0090743598440894,0.0003900970332324,2.08555138669e-05,-0.0013366462662816
1772808599038819000,1.231819091796875,0.0772305391967296,0.0049860265179537,0.0009148132899776,0.0008921204134821,0.0008762785000726,-0.0002412819303572
1772808599058868000,1.251867919921875,0.0763315445303916,0.0026529713273514,0.0063528167925542,2.15622130781e-05,-0.0005129478522576,-0.0003600534982979
1772808599078918000,1.27191796875,0.083512980467081,-0.0003767882899846,0.0142944736791308,0.0014930609613656,-0.0014275937573984,-0.0013351272791624
1772808599098967000,1.291967041015625,0.0706470691531896,0.0048919824257958,0.0030684796259505,-0.0011495416983962,-0.0010408600792288,-0.0016221161931753
1772808599119016000,1.312015869140625,0.0790256059199571,-0.0024916615521069,0.002008832771494,-0.0028879067394882,0.0013974277535453,0.0003252164460718
1772808599139065000,1.332065185546875,0.0734913526684045,-0.0037169564302079,0.0024071570398518,0.0007935971952974,0.001024309080094,0.0001473794691264
1772808599159114000,1.352114013671875,0.0838163473278284,-0.0015371099067851,0.0015671625517541,-0.0007881275378167,-0.0003117356973234,0.001574438996613
1772808599179164000,1.372163818359375,0.0790256059199571,-0.0049897893776185,0.012138154161768,-0.0006445555482059,-0.001543867518194,-0.0003239447250962
1772808599199213000,1.392213134765625,0.0797714558511972,-0.0038640915496274,0.0046669643311528,-0.0016149366274476,0.0017873370088636,-0.0001729037612676
1772808599219262000,1.412261962890625,0.068398997965455,0.0045668055920396,-0.0027714055086718,0.0042042410932481,0.0002255906147183,0.002393634058535
1772808599239311000,1.43231103515625,0.0832137052595615,-0.0004394782626535,-0.0019595639694016,-0.0021688572596758,0.0021877225954085,0.0024425310548394
1772808599259361000,1.452361083984375,0.07797580460608,-0.0001691916876006,0.0084041095994412,-0.0012944133486598,0.0004512677260208,-0.0002731764689087
1772808599279410000,1.472409912109375,0.090848145660758,0.0012118052088655,-0.0007034675276605,0.0024655892048031,0.000969607674051,3.47071327269e-05
1772808599299459000,1.492458984375,0.0957838484972715,-0.0054607222244609,0.0051443086524726,-0.0025730435736477,0.0005300771445035,-0.0001650750637054
1772808599319508000,1.512508056640625,0.0787228235810995,-0.0063829151032958,0.0089042046086862,0.0007211330812424,-0.0010676035890355,6.27539120614e-05
1772808599339556900,1.532556884765625,0.0956289501965045,-0.000420052042976,0.0029023886443115,-0.0024364320561289,0.0006704742554575,-0.0001608827151358
1772808599359607000,1.55260693359375,0.0739338357388973,-4.64786233846e-05,0.0068123377628158,0.0013490219134837,-0.0027851909399032,0.0016119545325636
1772808599379656200,1.57265625,0.0754302117764949,-0.0062438080267049,-0.0041099789023632,-0.0018679555505514,0.0016485516680404,-0.0011433856561779
1772808599399704800,1.592704833984375,0.0823141260713338,-0.0048479606209788,0.0078743227048311,0.0001371318940073,-0.0006190556450746,0.0002095564268529
1772808599419754000,1.61275390625,0.0808200881212949,-0.0041191622892394,-0.0009841019667917,-0.0005466351285576,0.0015341322869062,0.0008175536058843
1772808599439803000,1.632802978515625,0.079324296605587,0.0099793321600649,-0.0015284425431396,0.0004300710279494,-0.0003879960859194,0.0003846795298159
1772808599459853000,1.65285302734375,0.0815694451838731,0.0096062975965905,0.0107660164251923,-0.0003958758898079,-0.0001380870671709,-0.0024493746459484
1772808599479902000,1.67290185546875,0.0746826082795858,-0.0010260003131814,-0.0081912705663591,-0.0013532019220292,-0.0008362400112673,-0.0011960291303694
1772808599499950800,1.692950927734375,0.079022098788619,-0.0020155410734936,0.007336224639602,0.0007586234714835,-0.0007084734970703,0.001517801079899
1772808599520000000,1.713,0.0797714558511972,-0.0001779595159459,-0.0010906265146099,0.0001680988352745,0.0012850152561441,0.0008761568460613
1772808599540050000,1.7330498046875,0.0745341397196054,-0.0094307309671305,0.0030836817616596,0.0006227090489119,-0.0003342539421282,0.0015866952016949
1772808599560098800,1.753098876953125,0.0823123725056648,-0.0038097218807321,0.0051755440409528,0.000641874037683,-0.0003556672600097,-0.0014023156836628
1772808599580148000,1.77314794921875,0.0806681124299764,-0.0003141348499339,0.0030417377494974,-0.0004855629522353,-0.0019359088037163,0.0016169403679668
1772808599600197000,1.793197021484375,0.0803694217443466,0.0071668959546834,0.0068706620876211,-0.0006797227542847,0.0001675852399785,-0.0012024124152958
1772808599620246000,1.81324609375,0.0815630154430866,0.0015886026320047,0.0016735409690998,-0.0003052654210478,-0.0014108287869021,-0.0028062867932021
1772808599640296000,1.8332958984375,0.0791688137829303,-0.0043792197312228,-0.0029191708157537,-0.0013923863880336,0.0001621286646695,0.0013877453748136
1772808599660345000,1.853344970703125,0.088893504461646,-0.0004375420338939,0.008918776556733,0.0015044966712594,0.0004760421288665,-4.45218756794e-05
1772808599680394000,1.87339404296875,0.087845456713438,0.0008340031387284,0.0041592979368055,-8.68248753249e-05,-0.0016991095617413,0.0003505880013108
1772808599700443100,1.893443115234375,0.0766150376468896,-0.0033131614022888,0.0022496375237358,-0.0016083901282399,-0.0015627993270754,-0.0021994467824697
1772808599720493000,1.9134931640625,0.0802051710933446,-0.0085403305992018,0.0063207502870121,0.0009834172669798,0.0001407449017278,0.0006608504336327
1772808599740542000,1.9335419921875,0.0854413181811571,-0.0002227119731251,0.0089770917483838,-0.0040286821313202,0.0013427142985165,-0.0007741809822618
1772808599760591000,1.953591064453125,0.0816980399996042,0.0022601817506365,-0.0023245704900473,1.68094411492e-05,-0.0006111873080953,-0.002881156746298
1772808599780640000,1.973639892578125,0.0834936912447214,0.0005344813360366,-0.0014792239733971,-0.0002715466544032,0.0008859115187078,-0.0009262235835194
1772808599800689000,1.99368896484375,0.0924754546016454,-0.0004456157424952,-0.0023370463791303,0.0007910872809588,0.0012959182495251,0.0002469588071107
1772808599820739000,2.013739013671875,0.083199676734209,-0.0017029862592928,-0.0036523987274384,-0.0001280952710658,0.0007166671566665,0.0003786701709032
1772808599840787500,2.033787353515625,0.0858919845581054,-0.0028120069471187,-0.0018163013075012,-0.000217399559915,0.0012306770076975,-0.0010642362758517
1772808599860836600,2.053836669921875,0.0812555569291114,-0.0016156093699391,0.0117075259258504,0.0004903837107121,-0.0014814813621342,-0.0006310995668172
1772808599880885500,2.073885498046875,0.085294018664956,-0.0029140151500236,0.0035386772538535,0.0005456763319671,-0.0025403159670531,0.0026630270294845
1772808599900935400,2.093935302734375,0.0842477244824171,0.0063339613950345,0.000241416673595,0.0023827441036701,-0.0006366205634549,0.0011683339253067
1772808599920984600,2.113984619140625,0.0772182642370462,-0.0031724651568103,0.0086735011253505,0.000698443269357,0.0001366661890642,0.0005849921144545
1772808599941033700,2.13403369140625,0.0724281073510646,0.0013587211325764,0.0052792875432176,-0.0009677915368229,-0.0005902465200051,-0.0004851473495364
1772808599961082400,2.154082275390625,0.0881371331363916,0.0056462531255092,0.0001252566477516,-0.0020777946338057,0.003006127430126,0.0008452627807855
1772808599981131500,2.174131591796875,0.07736030305624,0.0010083915912546,-0.0002162411331431,-0.000805402174592,4.5934721129e-05,-0.0034246668219566
1772808600001181400,2.194181396484375,0.0803542241752147,0.0012986889078747,0.0054415562996873,7.83742871135e-05,0.0013837058795616,0.0007494615856558
1772808600021230300,2.214230224609375,0.07855389675498,0.0059313445440493,0.0003259120526956,-0.0001025677192956,0.0008012731559574,0.0003406791947782
1772808600041279500,2.234279541015625,0.0743663819372653,-0.0072268642473034,0.0071334914420032,0.0018084857147186,-0.0004254719242453,-0.0003677387721836
1772808600061328400,2.254328369140625,0.0725718997359275,0.0005513685387559,0.0100964876997517,0.0005104900337755,-0.0014531789347529,0.001146581955254
1772808600081378600,2.274378662109375,0.0797539201945066,0.0071434602801688,0.0095105958368862,-0.0009190521668642,0.0009580788901075,0.0013012506533414
1772808600101427500,2.294427490234375,0.0828945563077926,-0.0022422259688377,0.0064798133062431,0.0007190480828285,0.0009552763658575,0.0011088054161518
1772808600121476400,2.314476318359375,0.0831967541247606,0.0028652897706255,0.0003724546081619,-0.0020108125172555,-0.0005656639114022,-0.0001396117731928
1772808600141525500,2.334525390625,0.0766097769498825,-0.0059488162686582,0.0048901375285815,-0.000183030962944,-0.0007338311406783,-0.0009752041660249
1772808600161574400,2.354574462890625,0.0885796162068843,-0.0068094334196764,0.0088616760746343,0.0019000018946826,0.0023541469126939,-0.0016773948445916
1772808600181624300,2.374624267578125,0.0784036746293306,-0.006755374278035,0.0012266054857755,0.000600402476266,0.0003247101558372,-0.0009032860398292
1772808600201673500,2.394673583984375,0.0710720165669918,-0.0058060924628749,-0.0018525873304344,-0.0014631452504545,0.000750943319872,-4.3649226427e-05
1772808600221722400,2.414722412109375,0.0819943925976753,0.0017604520675726,0.004454495190829,-0.0005822926759719,-0.0003035241679754,0.0005318000912666
1772808600241771500,2.434771484375,0.0793038383394479,0.0003555080399382,-0.001336554966541,0.0031752793584018,0.0023434073664247,0.0013622790575027
1772808600261821400,2.454821533203125,0.0849918208479881,-0.0037275143568404,-0.0010363116446416,-0.0022409930825233,-0.0016252965433523,0.0004922004882246
1772808600281870300,2.474870361328125,0.0790069012194871,-0.0057624907831661,3.26875600498e-05,-0.0003258977085351,0.0002593516546767,0.0025439031887799
1772808600301919500,2.49491943359375,0.0754179368168115,-0.0013255129827186,0.0061269493145402,0.0028784384485334,0.0021662975195795,0.0009533045813441
1772808600321968600,2.51496875,0.0817044697403907,0.0070960044092498,0.0026202335349516,0.0008985418826341,0.00139203784056,-0.0013861712068319
1772808600342017500,2.535017578125,0.0806570065140724,0.0054191207055933,0.0007118289306294,-0.001296411268413,0.0005535082309506,-0.0002607624046504
1772808600362067500,2.5550673828125,0.0733183341890573,0.0004715813008137,0.0072349379559047,-0.0020391209982335,0.0005144323222339,-0.001036827918142
1772808600382116600,2.57511669921875,0.0775070180505514,-0.0070686597445979,0.009417935417639,-0.0021137781441211,0.0007368801743723,-0.0005556331016123
1772808600402165500,2.59516552734375,0.0790004714787006,-0.0079175133925862,-0.0005222657418577,-0.0008027674630284,0.0019804562907665,-0.0005190204828977
1772808600422214400,2.61521435546875,0.0812473736226558,0.0015937628643121,-0.0042467981237452,0.002035942627117,0.0009197572362609,0.0019638421945273
1772808600442264600,2.6352646484375,0.0843874252140522,-0.000364613795001,0.0025403184328461,-0.0010645797010511,0.0005211771931499,-0.0003473237156867
1772808600462313500,2.6553134765625,0.0740624305546283,0.0044511341899633,-0.0048964850709773,0.0021739765070378,-0.0012627283576875,0.0013473720755428
1772808600482362600,2.675362548828125,0.0867845494836568,-0.0040586368741933,-0.0006839591095922,-0.0031123070511966,0.0015387772582471,0.0013383144978433
1772808600502411300,2.695411376953125,0.0733130734920501,-0.0055095115359406,-7.82209019409e-05,-0.0012211529538035,0.0031597709748893,0.0021308788564056
1772808600522460400,2.71546044921875,0.072565469995141,-0.007706026066374,-0.0027612814068794,0.001611860236153,0.0003036693087778,0.0003245365805923
1772808600542510600,2.735510498046875,0.090221538195014,-0.0020933098842855,0.0010393529850989,-0.0006700996309518,-0.0016842184122651,0.0013894336298108
1772808600562559500,2.7555595703125,0.0921668270438909,0.0028928170983679,0.0080610911483177,0.000160604249686,-0.003320264397189,0.0002541639842092
1772808600582608400,2.7756083984375,0.078846742221713,-0.0062474978211335,-0.0032957673094933,-0.0019666096195578,-4.08802734455e-05,0.0007699572015553
1772808600602657500,2.795657470703125,0.0851344441890716,-0.0029987982234917,-0.0033178786766016,0.0019277143292129,-0.0031343917362391,-0.0012554745189845
1772808600622707500,2.81570751953125,0.0697211864799261,-0.0064788132258225,-0.0030509165697963,0.0005230035167187,0.0005675341235473,-0.0015518749132752
1772808600642756400,2.83575634765625,0.0896229877799749,-0.0071220886985771,0.0029261531123891,-0.0010075897444039,-0.0005653934204019,-0.0014236643910408
1772808600662805500,2.855805419921875,0.0709177027881145,-0.0036978681372478,0.0036374934192514,0.0003559202887117,7.13005429133e-05,0.0005119200795888
1772808600682854400,2.8758544921875,0.0815390500456094,0.0018774477770552,-0.0037558454021811,-0.0016783373430371,0.0007781103486195,0.0002022124826908
1772808600702903600,2.895903564453125,0.0766027626872062,-0.0052566875523421,0.0001940841002622,-0.0017768151592463,-0.0007897760369814,-0.0025310916826128
1772808600722953500,2.915953369140625,0.0890209302335977,-0.0102801508706994,-0.0018328916826983,-0.000301050255075,0.0006795601802878,-3.23052518069e-05
1772808600743002400,2.93600244140625,0.0745078362345695,0.005034322639089,0.0002491250560153,0.0006831334903836,-0.0020486265420913,0.0013654651120305
1772808600763051500,2.956051513671875,0.0861830764591693,-0.001991776605416,-0.0008321628080913,-0.0006019473075866,0.0009253406897187,0.0012747403234243
1772808600783100400,2.976100341796875,0.0766086079061031,-0.0028018234798219,0.0025797097283182,0.0024738742504268,-0.0003939131565857,-0.00257826782763
1772808600803150300,2.996150390625,0.0866349118798971,-0.0046896008546464,0.0045961641172645,0.0002618373837321,-3.01474356092e-05,0.00100818881765
1772808600823199500,3.016199462890625,0.0718155284106731,-0.0101850199331529,-0.0034422813744051,-0.00061602354981,0.0030562651809304,-0.0023240852169692
1772808600843249200,3.036249267578125,0.0812426974475383,-0.0021916008932981,0.0060102002002298,-0.0006292457692325,9.42614424275e-05,-0.0010614856146275
1772808600863298000,3.056298095703125,0.078699442705512,0.0078524396665859,-0.0040883470258675,0.0019268842879682,0.0012222866062074,-0.0013267449103295
1772808600883348000,3.076347900390625,0.0785574038863182,-0.0030927601172588,0.0063932812336832,4.55067493021e-05,0.0018925965996459,0.0002113184891641
1772808600903397000,3.096397216796875,0.0790051476538181,-0.0015901370019651,0.0018522859363351,-0.0015319644007831,-0.0020647714845836,0.0013244480360299
1772808600923446000,3.116446044921875,0.0719739338427782,0.0041350996438879,0.0008356379733886,-0.000352079514414,-0.0015726888086646,0.000432051019743
1772808600943495000,3.136494873046875,0.0784077662825584,-0.0137423744880128,-0.001159568131552,0.0017044087871909,0.0005130391800776,0.0008503790013492
1772808600963544000,3.1565439453125,0.07137362986207,0.0045449316869489,-0.0002978595685679,-0.0022968063130974,-0.0023191946092993,-0.0003037829883396
1772808600983594000,3.176593994140625,0.0902285524576902,-0.0050956883043516,-0.0001276358345057,-0.0007365846540778,-0.0025573296006768,-0.0012466413900256
1772808601003643100,3.19664306640625,0.0814005183577537,0.0009408153809141,0.0018343210213817,0.0003312192857265,0.0013590232701972,-0.0017710211686789
1772808601023692000,3.216692138671875,0.085294018664956,-0.0030042324504349,-0.0058717507107648,0.0001010324340313,0.0007254584925249,0.0003149539697915
1772808601043741000,3.236740966796875,0.0825982037097215,-0.003214642064413,0.0037908801829442,-0.0011932756751775,0.0003901150485035,-0.0015466138720512
1772808601063791000,3.256791015625,0.0814028564453124,0.0036239991834387,-0.000332286994555,-0.001910027465783,-0.0014332707505673,-0.0004874486476182
1772808601083840300,3.27684033203125,0.0782575441569089,-0.0032131259607616,0.006242629849771,0.0041996594518423,-0.0016952611040323,0.0018521291203796
1772808601103889000,3.296888916015625,0.092326986041665,0.0055766036890912,-0.0014698898894712,0.002984766382724,-0.0016710187774151,0.0020638566929847
1772808601123938000,3.31693798828125,0.0680845251888036,0.0048012993345037,-0.0023761956460075,-0.0003768254537135,-3.686916898e-06,-0.0001341551542282
1772808601143987000,3.336987060546875,0.0737713386535644,-0.0058153534815646,-0.0021116949243471,-0.0021630581468343,-0.0015706924023106,4.8871152102e-06
1772808601164036900,3.357036865234375,0.0800526108801364,-0.0020577179810963,-0.0084112243268173,-0.0021337461657822,0.0020258901640772,-0.0010089506395161
1772808601184086000,3.3770859375,0.08334697625041,-0.0092517942036502,-0.0002561530184233,0.0003238678909838,0.0023273592814803,0.0007360693998634
1772808601204135000,3.397135009765625,0.0763116707861423,0.0030261337549891,0.003391733930679,-0.0020090343896299,0.0013721667928621,-0.0015895771794021
1772808601224184000,3.41718408203125,0.0824497351497411,-0.0027052495038602,-0.004716767422785,0.0030731412116438,0.0011424561962485,0.0010772054083645
1772808601244234000,3.43723388671875,0.0691343265026807,0.0020952552461996,0.0027867263753898,0.0004255960229784,0.0005162986344657,-0.0008635940030217
1772808601264283000,3.457282958984375,0.0752688837349414,-0.0102002997006755,0.0057182680489495,0.0026317953597754,0.0009956483263522,-0.0005217548459768
1772808601284332000,3.47733203125,0.0809516055464744,-0.0075938983282539,-0.007038885660842,-0.0031344010494649,0.0013074023881927,-0.0001818281598389
1772808601304381200,3.497381103515625,0.0803495480000972,-0.0030532683570869,0.0062931909932289,-0.0020268154330551,-0.0007704969029873,0.0021279419306665
1772808601324430000,3.51743017578125,0.0887298383325338,-0.0025550365113653,-0.0004767689325846,0.0004069965798407,6.54919422231e-05,0.0001429072581231
1772808601344480000,3.53747998046875,0.079755089238286,-0.0092921718798112,6.31192309316e-05,0.0027521159499883,-0.0013914430746808,-0.0027763480320572
1772808601364529200,3.557529052734375,0.075568158942461,-0.0056083961999975,-0.0005961529619758,0.0005954187363386,-0.0017035068012773,7.45658762753e-05
1772808601384578000,3.577578125,0.0824520732372999,-0.0052950559345073,0.0058026127310004,-0.0006689634174108,0.0008470060420222,-0.0011839028447866
1772808601404627200,3.597627197265625,0.0721282476216554,0.0083568729242309,0.0088618724374566,0.0009418255649507,-0.0005803212989121,-0.0014906134456396
1772808601424677000,3.617677001953125,0.073622870093584,-0.0023780177103355,-0.0037265873416559,7.7411532402e-05,0.0009229109855368,-0.001437759026885
1772808601444726000,3.63772607421875,0.0845475842118263,-0.0009368515918496,-0.0026512725606095,-2.6511028409e-05,-0.0005700323963537,0.0029104813002049
1772808601464775200,3.657775146484375,0.0833463917285203,-0.0005498889677226,0.0012425382738467,-0.0008682617917656,-0.0022434284910559,0.0008721321355551
1772808601484824000,3.677823974609375,0.0864841052323579,-0.0071919481975492,0.011403775472613,0.0002101864665746,0.0011277752928435,0.000178899616003
1772808601504874000,3.6978740234375,0.0876823751062154,0.0021169282218907,-0.0024974337057676,-0.0018977138679474,0.001973042730242,0.0008488034363836
1772808601524923100,3.717923095703125,0.0822948368489742,0.0031643457824364,0.0064601633242797,0.0005439105443656,-0.0003725272836163,0.0012621111236512
1772808601544972000,3.737971923828125,0.0861842455029487,-0.0006518789043184,0.0072655979556497,-0.0003264164552092,0.0016231829067692,0.0013534342870116
1772808601565021000,3.75802099609375,0.0782522834599018,-0.0026063648398034,0.0043079719927627,-0.0002817180939018,0.0012320921523496,0.0021440128330141
1772808601585070000,3.778070068359375,0.0819990687727928,-0.0081483356069307,0.0028791219331556,-0.0006460174918174,0.0022222923580557,-0.0008233711123466
1772808601605120000,3.7981201171875,0.0869376942187547,0.0008237374730408,0.0011686373539967,0.0005111210048198,-0.0016625307034701,-0.0007117176428437
1772808601625169200,3.818169189453125,0.0799012197107076,-0.0002085829830728,-0.0034849788718158,0.0008524544537067,0.0040418040007352,-0.0001206207089126
1772808601645218000,3.838218017578125,0.0742184978991746,0.0005334675558842,0.0050378252038499,0.0018926504999399,-0.0026547387242317,0.0006061266176402
1772808601665267000,3.858266845703125,0.0715279436409473,-0.0033647637253627,-0.0079611790043767,0.0019884258508682,0.0026468078140169,-0.0012242491357028
1772808601685317000,3.878317138671875,0.0833487298160791,-0.0005870061077177,0.0017402403966058,-0.0005373680032789,-0.0006906553753651,-0.0034501389600336
1772808601705366000,3.898365966796875,0.0820002378165721,-0.0035765433125197,0.0051410937820794,0.0015024580061435,-6.0613718233e-05,-0.0021226247772574
1772808601725415000,3.918414794921875,0.0806570065140724,0.0027078067871276,0.0033836008565733,0.000534810591489,0.0022730270866304,-0.0023293606936931
1772808601745464000,3.938464111328125,0.0854495014876127,0.0023345438947901,-0.003610957038775,-0.0011042964179068,9.83036443358e-05,0.001095984596759
1772808601765514200,3.95851416015625,0.0852986948400735,-0.0019909454883541,-0.0061555726208258,-0.0038336704019457,0.0015920756850391,0.0001620515249669
1772808601785563000,3.97856298828125,0.0787158093184232,-0.004117299125716,-0.0004285413101082,-0.0002169953659176,0.0016402553301304,-0.000626990571618
1772808601805612000,3.998612060546875,0.0826069715380668,-0.0018655198772437,-0.0045534392203902,0.001684745773673,-0.0001265208702534,6.45495019853e-05
1772808601825661000,4.018660888671875,0.0760211634069681,-0.0009205854436382,0.0003876795767573,-0.0017821560613811,0.0011091517517343,2.14143656194e-05
1772808601845709000,4.038708984375,0.0861959359407424,0.0008429810296278,0.0026255216314224,0.0001012184657156,-0.0001323440810665,-0.0013891733251512
1772808601865759200,4.05875927734375,0.0784130269795656,-0.0036184279591776,-0.0002416952348081,0.0006462913006544,0.0003423822345212,-0.0022565773688256
1772808601885807900,4.078807861328125,0.0826046334505081,0.0050670558649115,-0.0031415357290068,-0.0002209900412708,0.000816902378574,0.0003620837815105
1772808601905857000,4.09885693359375,0.0712327600866556,-0.0063868332265876,-0.0096200201612664,-0.003758696373552,3.69396584574e-05,-0.0017647538334131
1772808601925906200,4.11890625,0.0794593211621046,-0.0033493104279041,0.0054025896959006,0.0023907786235213,0.0013822457985952,0.0011967364698648
1772808601945956000,4.1389560546875,0.0790109928727149,0.0043351887932512,0.002154986076802,-0.0020940792746841,0.000278268213151,0.0001404932700097
1772808601966005000,4.1590048828125,0.0832014302998781,-0.0027699305042158,0.0007366756775183,-0.0003996414598077,0.0002985816972795,0.0006554275751113
1772808601986054100,4.17905419921875,0.0812561414510011,0.0058226234725676,-0.0040836845504818,-0.0020149683114141,0.0011557440739125,0.0012854773085564
1772808602006103000,4.19910302734375,0.083796473583579,-0.0022556243065278,-0.0039957825047429,-0.0039241570048034,0.0007360161980614,0.0018840210977941
1772808602026152200,4.219152099609375,0.0819990687727928,-0.0083607727812137,-0.0032163042985368,-0.0002788060810416,-0.0009081023745238,4.52995300292e-05
1772808602046202000,4.2392021484375,0.0972615198343992,-0.0038250473140273,-0.0056165338406804,0.0003961692564189,9.65162325883e-05,-0.0012366129085421
1772808602066251000,4.2592509765625,0.0754173522949218,-0.0009457107517402,0.0023685511956689,-0.0003663504030555,0.0005682104965671,0.0003917103167623
1772808602086300200,4.279300048828125,0.0843926859110593,-0.004779251899477,-0.0015976033557904,0.00052499352023,-0.0006389457848854,-0.0005590328946709
1772808602106349000,4.29934912109375,0.0803530551314353,0.0038107173945754,0.0070361913802567,0.0015313089825212,-0.000409728847444,-0.0002830037847161
1772808602126399000,4.31939892578125,0.0908259338289499,0.001305894966796,0.0024059012311045,-0.0011123600415885,-0.0004549917648546,-0.0005684979259967
1772808602146448100,4.3394482421875,0.0827443341821432,-0.0026836404602508,-0.0044365120095666,-0.0011532441712915,-0.0002714792790357,0.0001136236824095
1772808602166497000,4.3594970703125,0.0861865835905075,-0.003286392126372,0.0018801877234131,0.0001087333075702,0.0029939932283014,0.0011511440388858
1772808602186546200,4.379546142578125,0.0861865835905075,-0.0031563177396077,-0.0020022203676169,-0.0026624989695847,-0.0007138759829103,0.0011020291130989
1772808602206596000,4.39959619140625,0.0752636230379343,0.0003686415161471,0.003003679894586,-0.0008740266785025,-0.0006505817873403,0.0002361992374062
1772808602226645000,4.41964501953125,0.0727256289929151,-0.004648921784386,-0.0059694891639286,-0.0002731520216912,0.0002143497404176,-0.0005830973386764
1772808602246694100,4.439694091796875,0.0787117176651954,-0.0027171865368261,-0.006282765497337,-0.0007552951574325,0.0010190097382292,-0.0003871582448482
1772808602266743300,4.459743408203125,0.0719751028865575,-0.0047799825518392,-0.000176936602639,0.0007886588573455,0.0010367493377998,0.0003172275610268
1772808602286792000,4.4797919921875,0.0956195978462696,0.002212196156755,-0.0096347062737448,-0.0002387631684541,0.0004053725861012,0.0003582967910915
1772808602306842000,4.499842041015625,0.0701788671195507,-0.0042038631643168,6.64254328701e-05,-0.0002347414847463,-0.0025889095850288,0.0001203725114464
1772808602326891300,4.519891357421875,0.091573537325859,-0.0076423497130163,-0.001316722321487,0.0006209039129316,-0.0003133640275336,-0.0009442279115319
1772808602346940200,4.539940185546875,0.0863362211942672,-0.0136629799757152,0.0006435860000085,-0.0022894027642905,-0.0015399920521304,0.001185034867376
1772808602366989000,4.559989013671875,0.0792979931205511,-0.0084990944065153,0.0047547339461511,-0.0007005815859884,0.0005638609291054,0.0005678532179445
1772808602387039200,4.580039306640625,0.0843868406921625,0.0037444563584867,-0.00879460675437,-0.002726717852056,0.0012673286255449,-0.0014211433008313
1772808602407088000,4.600088134765625,0.0854343039184808,-0.0052414625837467,-0.0014331289425026,-0.0004801179748028,0.002015185309574,0.0014873647596687
1772808602427137000,4.620136962890625,0.0809434222400188,-0.0045876109180506,-0.0048356491286773,0.0019009304232895,0.0006312418263405,-0.0016447631642222
1772808602447186000,4.64018603515625,0.0843809954732656,-0.0045349582822062,0.0002877537330845,-0.0005849057342857,-0.0002522792201489,-0.0016764122992753
1772808602467236000,4.660236083984375,0.0774994192659854,-0.0094024729870259,-0.0031980608223704,0.0015774392522871,0.0020444157999008,-0.0021174433641135
1772808602487285200,4.68028515625,0.0692728581905365,-0.0012035762366373,-0.0059353494323091,0.001707655377686,-0.000812733429484,-0.0012213410809636
1772808602507334000,4.700333984375,0.0775029263973236,-0.0047659448933321,0.0075516757548786,-0.0002205609343945,0.0009359871619381,0.0007957506459206
1772808602527383000,4.720383056640625,0.0860346078991889,-0.0009157540048938,0.0044425901239039,-0.0013787110801786,0.0016811657696962,0.0014239333104342
1772808602547432200,4.74043212890625,0.0837882902771234,0.0014783471905626,-0.0064797676404705,-0.0011696524452418,-0.0010710692731663,0.0006723634433001
1772808602567482000,4.760482177734375,0.0891764130562543,-0.0042749830386135,0.0022134565320797,0.0018691895529627,-2.18889181269e-05,0.0004253422375768
1772808602587531000,4.780531005859375,0.0810989050626754,-0.00682469492089,-0.0027442983060376,-0.0004996671341359,0.0010703842854127,-0.0005718665197491
1772808602607580200,4.800580078125,0.0822948368489742,-0.0037547037578653,0.0030174070258392,0.0001388164237141,-0.0025214678607881,0.0003935706336051
1772808602627629000,4.820629150390625,0.0921738413065671,0.001542416269565,0.0040350870352471,0.0019437577575445,0.0019600240048021,-0.0008933171629905
1772808602647679000,4.840678955078125,0.0724234311759471,-0.0006484722376801,0.0045477949308929,0.0013534273020923,0.001141597982496,0.001576111651957
1772808602667728100,4.86072802734375,0.0837970581054687,0.0037936657950747,-0.0060365173849975,0.0027185045182704,-0.0004277928092051,0.0002606632187962
1772808602687777000,4.880777099609375,0.0772124190181493,-0.00204376252098,0.0091125912289367,0.0013996050693094,-0.0016374876722693,-0.00116683030501
1772808602707826200,4.900826171875,0.0757148739367723,-0.0010976316441316,-0.0118381848345045,0.0004608449526131,0.0008478213567286,-0.0003530262038111
1772808602727875000,4.920875,0.0848421832442283,-0.0061977769278921,-0.0067031737333396,0.00230412511155,0.0003991382545791,0.0013203287962824
1772808602747925000,4.940925048828125,0.0755658208549022,-0.0090763463051989,-0.0008634803949622,-0.0009660916402935,0.001734048477374,0.0013488307595252
1772808602767974100,4.96097412109375,0.0805021082133054,-0.00406978845587,-0.0076111828231951,0.0022903652861714,0.0001387168013025,0.000484658870846
1772808602788023000,4.98102294921875,0.0811029967159032,-0.0054597084443084,-0.0006544955530902,-0.0018626134842634,0.0005854787304997,4.54313121736e-05
1772808602808072200,5.001072265625,0.0831967541247606,0.0058811213273089,-0.0094766205020481,-0.0052821850404143,0.0031342795118689,-0.0013721124269068
1772808602828122000,5.0211220703125,0.0858914000362157,-0.0017019450796768,-0.0002832830539438,-0.002089207060635,-0.0010593046899884,0.0006268387660384
1772808602848170800,5.041170654296875,0.0772118344962596,-0.0068419565829448,-0.0051434775354107,-0.0025189334992319,0.0012764857383444,-0.0002240044996142
1772808602868220000,5.061219970703125,0.0767599990755319,0.0059678223632276,-0.0025651103808078,-0.0011909920722246,-0.0006331698386929,0.0011507251765578
1772808602888268800,5.081268798828125,0.0769113902449607,0.0002826985320542,-0.0044451291408622,-0.0005097030662,-0.0016049174591898,-0.0014104382134974
1772808602908318700,5.101318603515625,0.0766074388623237,-0.0058349714974872,-0.0018323117273859,0.0022755418904125,0.0004641576379071,-0.001271619927138
1772808602928367900,5.121367919921875,0.0846872849434614,-0.006511044128146,-0.0139091413230868,-0.0020688236691057,0.000696642906405,-0.0016312417574226
1772808602948416800,5.141416748046875,0.0787058724462985,-0.0073492576511111,-0.0007668287871871,0.0005303090438246,0.0009041322045959,0.001338830217719
1772808602968466000,5.1614658203125,0.0876823751062154,-0.0060000715318601,-0.0065491156827891,-0.0008175645489245,-0.0003329954924993,-0.0019908174872398
1772808602988514600,5.1815146484375,0.0935147345215082,1.38458622619e-05,-0.0036208071459317,0.0018697865307331,-0.0007972893072292,-0.001415358390659
1772808603008564700,5.201564697265625,0.0763075791329145,-0.0024738336344715,-0.0064638942179037,-0.0014472787734121,0.0005707404343411,-0.0016986043192446
1772808603028614000,5.22161376953125,0.0854325503528118,-0.0047929516312666,-0.0068912801839644,-0.0003837863914668,9.65034560067e-05,0.0015887643676251
1772808603048662800,5.241662841796875,0.0863303759753704,-0.0086489694722928,-0.006865419656923,-0.0017301365733146,0.0012428937479853,-0.0011064214631915
1772808603068711700,5.261711669921875,0.0872235254228115,-0.0061917216464411,-0.0011619290519971,0.000296571990475,-0.0006620760541409,-0.0011709174141287
1772808603088761900,5.281761962890625,0.0849766232788562,-0.0088396423393394,-0.0001988561735022,-0.0015798150561749,0.0002745671081356,8.79494473338e-05
1772808603108810800,5.301810791015625,0.0825824216187,0.003495376968244,0.000170447496348,0.0013465182855725,0.0010584807023406,-0.0035048336721956
1772808603128859600,5.321859619140625,0.0812368522286415,-0.0001565422685816,-0.0048417500759009,-0.0002404435072094,-0.0004565817653201,0.0003422084264457
1772808603148908800,5.34190869140625,0.0806423934668302,-0.0043427053794264,-0.003615779344365,0.0002299291081726,0.0016759400023147,0.0006451401859521
1772808603168957700,5.361957763671875,0.0818430014282464,-0.0063734074894338,0.0013375139477662,-0.0004633537027984,-0.0001421589695382,0.001894159708172
1772808603189008000,5.3820078125,0.0731646049320697,-0.0114067437478341,-0.0045812725088093,0.0020877148490399,-0.000126657745568,0.000604715431109
1772808603209056800,5.402056884765625,0.0755576375484466,-0.0108801077915355,-0.0031132868820568,0.0006112765986472,-0.0017620305297896,0.0002393056638538
1772808603229105700,5.422105712890625,0.083639821717143,-0.0024144407305866,0.0004393366987584,-0.0009203604422509,-0.0007451134733855,0.0004934773314744
1772808603249154800,5.44215478515625,0.0830389332145452,0.0009590816899668,-0.0014325078879948,0.0008417952340096,0.0010258501861244,-0.0003314320929348
1772808603269204700,5.462204833984375,0.0799018042325973,0.0043176348702516,-0.0047424909525085,-0.0003666824195533,-0.0027695544995367,0.001156504265964
1772808603289253600,5.482253662109375,0.0875362446337938,0.0066335471298079,0.0039775207622675,7.16161448508e-05,0.0018381389090791,-0.0015220288187265
1772808603309302800,5.502302734375,0.0812567259728908,-0.0024489001226145,-0.0099166193545097,0.0017527432646602,0.0011495985090732,-0.0007373034022748
1772808603329351700,5.5223515625,0.0848474439412355,-0.003706599432975,-0.0096820160141913,0.000227736774832,-0.0006920497398823,-0.0003782170824706
1772808603349401600,5.542401611328125,0.0784141960233449,-0.0021967154598329,-0.0041623940761899,0.004244047217071,3.3612595871e-06,0.0025186017155647
1772808603369450800,5.56245068359375,0.0818599525630474,0.0003548321865033,-0.0033548085869289,0.0006958562880754,-0.0018232399597764,-0.0003013247624039
1772808603389499600,5.582499755859375,0.0812625711917877,0.0003936754927039,-0.0054793721260037,-0.000294147292152,0.0005281290505081,0.0023654061369597
1772808603409548800,5.602548828125,0.0808177500337362,0.0024806835003662,-0.0029057679114863,-0.0001013837754726,0.0023254097905009,-0.0010649780742824
1772808603429598700,5.6225986328125,0.0778255824804306,-0.0017354363573249,-0.003114054067037,-0.0020664117764681,0.0016221523983404,0.0024923344608396
1772808603449647600,5.642647705078125,0.0882961230903863,0.000961063584499,-0.0048449923457577,0.0015950640663504,0.0023759440518915,-0.0014488832093775
1772808603469696800,5.66269677734375,0.0742325264245271,-0.0024844554931856,-0.0077121315801749,-9.19674057513e-05,0.0007402441697195,0.0025376812554895
1772808603489746000,5.682745849609375,0.0796224027693271,0.0078180716061033,-0.0088535977994557,0.0017591489013284,-0.0003112457343377,-0.0007369737140834
1772808603509794800,5.702794921875,0.0806710350394249,-0.00185469708913,-0.0095207108055241,-0.0005560829304158,0.0004956285702064,-0.0010166754946112
1772808603529844700,5.7228447265625,0.0818704739570617,-0.005100519743096,-0.0068592045452678,0.000927981454879,0.0006843745941296,-0.0010976581834256
1772808603549894000,5.742893798828125,0.0872539205610752,0.0009248871594201,-0.0060514592258026,0.0021702495869249,-0.0013236365048214,-2.49734148383e-05
1772808603569942800,5.76294287109375,0.080821841686964,0.0043492629843764,-0.001688848136086,5.17228618264e-05,-1.63335353136e-05,0.0010864466894418
1772808603589991700,5.78299169921875,0.0770855777680873,0.005888793177111,-0.0092970398511737,0.0005276449955999,-0.0006337867234833,-0.0013626520521938
1772808603610041900,5.803041748046875,0.0860638339936733,-0.0062704037726856,-0.0012595579073065,0.0011204888578504,0.0003507788933347,0.0009958690498024
1772808603630090800,5.8230908203125,0.0823275700747966,0.0069631352772004,-0.0061642217181622,0.0015236099716275,-0.0016099787317216,-0.0012376862578094
1772808603650140000,5.843139892578125,0.0761895057111978,0.003634328781208,-0.0017081875907955,-0.0027621621266007,-0.000846535549499,-0.0002490887418389
1772808603670188500,5.8631884765625,0.0793324799120426,-0.0003350315074902,0.0004281714173499,-0.0002058162353932,-0.0014113241340965,0.0014053678605705
1772808603690238700,5.88323876953125,0.0763385587930679,-0.0022351660403888,-0.00329260267145,0.000170022714883,0.0008461643010377,0.0002628243528306
1772808603710288000,5.903287841796875,0.0889051948994398,-0.0066441141895949,-0.0066132760933367,-0.000178879359737,-0.0036346386186778,0.0004453633446246
1772808603730336800,5.923336669921875,0.078729253321886,0.0036473891921807,0.0074654039772227,0.000826820032671,-0.0004947675042785,-0.0020802593789994
1772808603750385700,5.9433857421875,0.0865086551517248,-0.0079390585041139,-0.0054936335467966,0.0004812404513359,0.0017507125157862,0.0026304200291633
1772808603770434800,5.963434814453125,0.0790267749637365,-0.0027992935960181,-0.0002074367721797,0.0011256642173975,0.0008156941039487,-0.0006566094234585
1772808603790484700,5.983484619140625,0.079775547504425,0.001994881877955,-0.004405025459337,0.0015509277582168,-0.0009023786988109,-0.0025483584031462
1772808603810534000,6.003533935546875,0.0693026688069105,-0.0037156960548833,-0.0050382407623808,0.0018127381335943,-0.0013999944785609,0.001430360134691
1772808603830582800,6.023582763671875,0.08336568095088,-0.0052784427264239,-0.006900696466281,1.62760261446e-05,-0.0007295785471796,-0.0004148413427174
1772808603850632700,6.0436328125,0.0736392367064952,-0.0026828367426525,-0.0021075895713875,-0.002133167348802,0.0027358029037714,-0.0014132503420114
1772808603870682600,6.0636826171875,0.0761830759704113,-0.0008254362397827,-0.0005508890481432,0.000445099081844,-0.0025353697128593,-0.0013196603395044
1772808603890731800,6.083731689453125,0.0833662654727697,0.0001846449850592,-0.0026224528915015,0.0005969312041997,0.002242958638817,0.0009433850646018
1772808603910780700,6.10378076171875,0.0818675513476133,-0.007745883152727,0.0019275339964777,-0.0014946376904845,-0.0013948087580502,-0.0014550816267728
1772808603930829800,6.123829833984375,0.0883025528311729,-0.0011339815991465,0.0036623584324494,0.000627472763881,0.0001163757115136,-0.0009511387906968
1772808603950879700,6.143879638671875,0.0787257461905479,-0.0048122591199353,-0.0043280192669481,0.0003934192936867,-0.0012860198039561,0.0001063556410372
1772808603970928600,6.1639287109375,0.0776823746174573,-0.000538600388728,-0.0070636913085356,-0.0023715244606137,0.0028294990770518,-0.0007290006615221
1772808603990977800,6.183977783203125,0.0787298378437757,-0.0043388877208344,0.0036010749655775,0.0023734956048429,-3.70237976312e-05,-0.0004135379567742
1772808604011027000,6.20402685546875,0.0845657043904066,0.0007661985995247,0.0001248319560661,-0.0001022221986204,0.0007721704314462,-0.0009128251112997
1772808604031076600,6.22407666015625,0.0811263775914907,-0.0048251734004355,0.0019440467398613,-0.0018145362846553,0.0009173491271212,-0.0016483524814248
1772808604051125800,6.244125732421875,0.078434654289484,0.0011421831719111,0.0025268150638788,0.000913206487894,-0.0021391911432147,0.0020381195936352
1772808604071175000,6.2641748046875,0.0812754306733608,0.0028763043549843,-0.0055976099445018,7.05090351402e-05,-0.0010132911847904,-0.0012224530801177
1772808604091223800,6.284223876953125,0.0787280842781066,-0.0053034401703625,0.002979248706228,-0.0004387695807963,0.0008229370578192,0.0001828647218644
1772808604111272700,6.304272705078125,0.0845627817809581,-0.0051667990454938,-0.0032112627972383,-0.0006719622761011,-0.0017400248907506,0.0013894473668187
1772808604131323000,6.324322998046875,0.0775280608385801,-0.0039389194846618,-0.0081458285560132,0.000918535515666,0.0012913602404296,-0.0010573961772024
1772808604151371800,6.344371826171875,0.0779734665185213,-0.0044988731886725,0.0011737382207997,6.1346217989e-06,-0.0007418751483783,-7.82674178481e-05
1772808604171421000,6.3644208984375,0.0848573808133602,0.0008345602611545,-0.005524526441982,-0.0003438417334109,-0.0015911934897303,-0.0006811702623963
1772808604191469600,6.384469482421875,0.0854576847940683,-0.0086576185696292,-0.0106865488476585,0.0018874676898121,0.0018332022009417,-0.0013351459056138
1772808604211519700,6.404519775390625,0.0806657743424177,-0.0041491190360859,-0.0074646550585515,-0.0023742741905152,-2.1065643522e-06,0.0004831370897591
1772808604231569000,6.42456884765625,0.0719856242805719,-0.0070443290209397,0.003131996149104,0.0009279195219278,-0.0010639952961355,0.0004326028283685
1772808604251617800,6.44461767578125,0.0878460412353277,-0.0050203854452818,-0.0022084926625946,-0.0013958408962935,0.0002946187451016,-0.0008183005265891
1772808604271666700,6.464666748046875,0.0703361035078763,-0.0018306312269531,-0.0004353546433849,-0.0012481382582336,-8.51332151796e-05,-0.00066235428676
1772808604291716900,6.484716796875,0.0779699593871831,-0.0060945540154352,0.0024522337240166,-0.0013978460337966,-0.0001065946562448,0.0005191892851144
1772808604311765800,6.504765869140625,0.0788648624002933,0.001203676701337,0.0010520891690859,-0.0014172650407999,-0.0004838434397242,-0.0002607372589409
1772808604331814700,6.524814697265625,0.0803624074816703,-0.0017615571792703,-0.0024116596850333,-0.0005969367921352,-0.0002171455998905,-0.0013233586214482
1772808604351863800,6.54486376953125,0.0745271254569292,-0.0019401834154967,-0.0002958822406129,0.0012822491116821,0.000532484264113,-0.0022656847722828
1772808604371912700,6.56491259765625,0.0724275228291749,-0.0004790978869888,-0.0048584591821068,0.0006128901150077,0.0011778005864471,0.0003597009927034
1772808604391963000,6.584962890625,0.0851478881925344,-0.0015855064926203,0.0031438783831428,0.000193734653294,0.0006405184976756,-0.0004262179136276
1772808604412011800,6.60501171875,0.0688362203389406,-0.0025732388883363,-0.0030265356137882,-0.0010860457550734,0.0003306525759398,0.0001012152060866
1772808604432060700,6.625060791015625,0.0902384893298149,-0.0025903270204551,0.0018714381613768,0.0019657863304018,0.0006747700972482,0.0005197564605623
1772808604452109800,6.64510986328125,0.0838052414119243,-0.0036499373422935,-0.0027940465987427,0.0015698538627475,0.000100073259091,0.0001354678533971
1772808604472159700,6.66515966796875,0.0692921474128961,-0.0022159498832654,-0.0008434194210451,-0.0016600787639617,0.0001355205895379,-0.00186049612239
1772808604492208600,6.685208740234375,0.084704820600152,-0.006437595299445,0.0012146136538824,-0.0016810509841889,0.0007220937404781,-0.0020135808736085
1772808604512257800,6.7052578125,0.0818628751724958,5.62236992642e-05,0.0022845490069128,0.0007764857728034,-0.0025728307664394,-0.0001104772090911
1772808604532306700,6.725306640625,0.0806640207767486,0.0017760788949672,-0.0074381780435796,-0.0026930207386612,0.0022879356984049,-0.0005354196764528
1772808604552356600,6.745356689453125,0.0682429306209087,0.0023026600523386,-0.0097288827966433,0.0004165736027061,0.0003754287026822,-6.63162209093e-05
1772808604572405800,6.76540576171875,0.074680270192027,0.0015303331061266,0.0016054304692195,0.0009249297436326,-0.002125006634742,-0.0013149920850992
1772808604592454700,6.78545458984375,0.0707908615380525,-0.0021062698305584,-0.0003148792020278,0.0011299517937004,-0.0003361549752298,-0.001016822643578
1772808604612503800,6.80550390625,0.0832131207376718,0.000316966127837,-0.0075683711613528,0.0024464949965476,0.000847905583214,0.0004251226782798
1772808604632553700,6.8255537109375,0.0710959819644689,-0.0031087979366071,-0.0039643644531723,0.0006650832947343,0.0010327708441764,0.0002535041421651
1772808604652602600,6.8456025390625,0.0814209766238927,-0.003533151695365,-0.0034914131791796,-0.001237699529156,-0.0007654827786609,-0.0009151073172688
1772808604672651800,6.86565185546875,0.0745347242414951,-0.0062480732098687,-0.0001840695963241,-9.33175906538e-05,-0.00318368175067,0.0001927791163325
1772808604692701000,6.885700927734375,0.0859083511710167,0.005017143175425,-0.0012737005970906,0.0017883079126477,-0.0019383593462407,0.0005633763503283
1772808604712749800,6.905749755859375,0.0811187788069248,0.0081182418627664,-0.0026884810321498,-0.003912890329957,0.001276716357097,0.0010287065524607
1772808604732799700,6.9257998046875,0.0808200881212949,-0.0076794211872387,0.0008550413601798,0.0014638111460953,-0.0006043615285307,0.0011325783561915
1772808604752849000,6.945848876953125,0.0809714792907237,0.0059699047224596,-0.0048106562513159,0.0006383035797625,-0.000182641801075,0.0001830854453146
1772808604772897800,6.965897705078125,0.0773784232348203,-0.0024583438043948,-0.0074517864438239,-0.0006340625695884,-0.0010595230851322,0.0005183813627809
1772808604792946700,6.98594677734375,0.0740858114302158,-0.0004498900588136,-0.00796916594801,-0.0007993122562766,0.0024112821556627,-0.0014599589630961
1772808604812996900,7.005996826171875,0.0736363140970468,0.0042823808937799,-0.0007169617634732,3.6311103031e-05,0.0022756680846214,-0.0001802523620426
1772808604833045800,7.026045654296875,0.078874799272418,-0.0024163860925007,-0.0047924401746131,-0.0009231432341039,-0.0003888361970894,0.0002507525496184
1772808604853095200,7.04609521484375,0.0818669668257236,-0.0008152984382584,-0.0007068970271851,0.0002552871592342,0.0014969115145504,-0.0006309514865279
1772808604873144000,7.06614404296875,0.0746808547139167,-0.0015344886914361,0.0037451185121899,-0.0011536488309502,-0.0016740957507863,0.0003767199814319
1772808604893194200,7.0861943359375,0.0778249979585409,-0.0007114818707574,0.0063675896700005,0.000973793445155,-0.0001150721218436,0.0002247174270451
1772808604913243100,7.1062431640625,0.0703425332486629,-0.000215926039312,0.0019262827543076,0.0010350416414439,-0.0007737582200206,-0.0014033140614628
1772808604933292000,7.1262919921875,0.0734872610151767,-0.0087393603026401,-0.006216550127021,0.000163005432114,-0.0004276589024811,0.0043021533638238
1772808604953341000,7.1463408203125,0.0862041192471981,-0.0015495857958681,0.0043048164878739,0.0011292966082692,0.0002266282972414,0.0016429689712822
1772808604973390000,7.16639013671875,0.0848567962914705,-0.000419531453168,-0.00343037630748,0.0006258692592382,-0.0007828415837138,0.0013324914034456
1772808604993440300,7.186440185546875,0.0799175863236188,-0.000923097061133,-0.0085212103402009,0.0006689657457172,-0.0024307279381901,0.0004832304548472
1772808605013489000,7.206489013671875,0.08515607149899,-0.00420842974158,0.003180337936012,0.0006565598305314,-0.0018598743481561,-0.000339139252901
1772808605033538000,7.2265380859375,0.0791688137829303,0.0002121997122652,0.007920563866198,0.002481777453795,-0.0014256788417696,0.0004662023857235
1772808605053587200,7.246587158203125,0.0764770904809236,-0.0012546945025213,0.0004108503897907,-0.000121490098536,-0.0004802965559065,0.0009534452110528
1772808605073637000,7.26663720703125,0.080812489336729,-0.0030395777584519,0.0008974237637594,-0.0011408305726945,-0.0018792611081153,-0.0007205908186733
1772808605093686000,7.28668603515625,0.0861965204626321,0.0007867299309,-0.0043902114826953,-0.0016718485858291,0.000978889176622,0.0025441944599151
1772808605113735200,7.306735107421875,0.0730284113317728,0.0037677276362199,-0.0130654890066012,-0.000582052161917,0.0005652280524373,-0.0010533188469707
1772808605133784000,7.3267841796875,0.085450670531392,-0.0086899134040344,-0.0013157633402617,0.0013312152586877,0.0032199854031205,0.0024935577530413
1772808605153834000,7.346833984375,0.0745253718912601,-0.002401051526051,-0.004367145700939,-6.89134467393e-05,-0.0003051866660825,-0.0012106834910809
1772808605173883100,7.366883056640625,0.0814069480985403,0.0008760795816313,-0.0013831477543571,0.0020028541330248,0.0008368088165298,0.0002991976216435
1772808605193932000,7.38693212890625,0.0797615189790725,-8.66097043734e-05,-0.0080964136234484,0.003661599708721,-0.0037270779721438,-0.0007178387604653
1772808605213981200,7.406981201171875,0.0730289958536624,-0.0082554766426794,-0.0040221088226651,0.0001054133754223,0.0019430327229201,0.0002756062895059
1772808605234031000,7.427031005859375,0.0900882672041654,-0.0031456228156574,-0.0002819815794238,0.0010045634116977,4.37591224908e-05,-0.0022927401587367
1772808605254080000,7.447080078125,0.090087098160386,0.0024944380310829,0.0042700968009419,-0.0002174677792936,-0.0011582898441702,-4.80134040117e-05
1772808605274129200,7.467129150390625,0.0790139154821634,0.0007114910039119,0.0004423963055247,-6.36861659586e-05,0.0006200975039973,3.53520736098e-05
1772808605294178000,7.487177978515625,0.0832025993436575,-0.0002212963341735,-0.0039305809145793,0.0017418093048036,-8.95297562237e-05,-0.0004439712502062
1772808605314227200,7.507227294921875,0.089039050412178,-0.0081926588058471,-0.008977858933364,0.0018533437978476,-0.0023773685097694,0.0004725155886262
1772808605334277000,7.527277099609375,0.079314944255352,-6.46444677375e-05,0.0029008131751557,3.64067964255e-05,0.0008681355393491,0.0003686123527586
1772808605354326000,7.547325927734375,0.0788689540535211,0.0003516355824191,-0.001836234417255,0.0024314853362739,0.0006310296012088,-0.0008241501636803
1772808605374375200,7.567375244140625,0.0906938318818807,4.14462552405e-05,-0.0026041317835217,-0.000114222522825,0.0011044895509257,-0.0007873624563217
1772808605394424300,7.58742431640625,0.0736363140970468,-0.0014753058501053,-0.0020066773470258,0.0008223291952162,-0.000169329039636,0.0005928368773311
1772808605414474000,7.607473876953125,0.0790215142667293,0.0075146316801197,0.0048663639273494,-0.000505733070895,-0.0002666509535629,-0.0011949865147471
1772808605434523100,7.627523193359375,0.0808148274242877,-0.0029779198322445,-0.0052574273378588,-0.0011916847433894,-0.0008216610876843,-0.0007336437702178
1772808605454572300,7.647572265625,0.0791705673485994,-0.0012241532337851,-0.000165241598268,0.0005648145452141,0.0009410895290784,0.0010706621687859
1772808605474621200,7.66762109375,0.0790191761791706,-0.0037705315146595,0.0013736629733815,0.0003353655338287,-0.0018876562826335,0.0001702453009784
1772808605494671000,7.687671142578125,0.0811152716755867,-0.0012296787922736,-0.0033581832875264,0.0004145253915339,0.001508169923909,-0.0002284036017954
1772808605514720300,7.70772021484375,0.0692962390661239,-0.0065140032702125,0.0033282539401436,0.0004453831352293,0.0003223436069674,6.62175007164e-05
1772808605534769200,7.72776904296875,0.0905477014094591,-0.0071846325407736,-0.0043419747270643,-0.0006999208126217,0.0004574071499519,0.0006192943546921
1772808605554818000,7.747818115234375,0.0660036272615194,-0.0036802320158574,-0.0041020330579252,-0.0001524442341178,-0.0019452883861958,-0.0003715204074978
1772808605574868200,7.7678681640625,0.0935351927876472,-0.0005722834626212,0.0088069365129806,0.0008213527034968,-0.0001079412177205,0.003656696062535
1772808605594917000,7.787917236328125,0.070042088997364,-0.0016138649374246,-0.0047526744198054,-0.0021200873889029,-0.002172642853111,0.0001959977671504
1772808605614966300,7.80796630859375,0.078719900971651,0.002235567899188,-1.47683108691e-05,0.00192716345191,0.0009320402750745,0.0021168680395931
1772808605635015000,7.828014892578125,0.076028762191534,-0.0035807080309838,-0.0031735748350853,0.0014962123241275,0.0001908773265313,-0.0003209160640835
1772808605655064000,7.84806396484375,0.0818646287381649,-0.002864586517727,-0.008329770288174,-0.001010820036754,-2.81371467281e-05,-2.1711923182e-05
1772808605675114200,7.8681142578125,0.0833645119071006,-0.0051516288758255,-0.0002104096139781,0.0026477335486561,0.0009496645070612,-0.0008558686822652
1772808605695163100,7.8881630859375,0.0797737939387559,-0.0022445275237783,-0.0053229714213171,-0.0005477303639054,-0.0011475950013846,-0.0015080505982041
1772808605715212000,7.9082119140625,0.0830623140901327,0.0021828330649528,-0.0016501463937805,-0.0006431301590055,-0.0015475932741537,-0.0002554249949753
1772808605735261200,7.92826123046875,0.0764765059590339,-0.0025691655014175,-0.0086692222424549,-0.0002387859858572,-0.000166077632457,0.0025716386735439
1772808605755311000,7.94831103515625,0.0725876818269491,-0.002581613991037,-0.0018302156684221,0.002151389606297,-0.0018694999162107,-0.0021079764701426
1772808605775360000,7.968360107421875,0.0709422527074813,-0.0057182315163314,0.0026745712378062,-0.000377096934244,0.0004016677266918,0.0008016808424144
1772808605795409200,7.9884091796875,0.0743839175939559,0.0047676436600741,-0.0045079424111172,0.0011782431975007,-2.89414601866e-05,0.0003256145864725
1772808605815458000,8.0084580078125,0.082317633202672,0.0007788754180073,-0.001267791446112,0.0035088201984763,-0.0017808817792683,-0.0007621818222105
1772808605835508200,8.02850830078125,0.0797761320263147,0.0011931279078591,0.0010002676503034,0.0006392078939825,5.96561294514e-05,0.0011116885580122
1772808605855556400,8.048556396484376,0.0790291130512952,0.006022749154549,-0.0067160925804171,0.0014208066277205,-0.0027387030422687,0.0015741498209536
1772808605875605200,8.068605224609374,0.0803758514851331,0.0010999423322267,-0.0031263792590703,-0.000181864015758,0.0003981583286076,0.0023356899619102
1772808605895654100,8.088654052734375,0.0815729523152112,0.0010977138425223,-0.0050632336397422,0.0013523576781153,0.0002296026505064,-9.98275354504e-05
1772808605915704300,8.108704345703124,0.0782815095543861,7.25172469392e-05,0.0009483684997074,-0.0003666789270937,0.0028822782915085,0.000137316994369
1772808605935753500,8.12875341796875,0.0728968939065933,-0.0038936099050566,-0.0061407677773386,0.0013370336964726,0.0019439485622569,0.0002312064170837
1772808605955802000,8.148802001953126,0.0769353556424379,-0.0097585107499267,-0.0057152541079558,-0.0017101836856454,0.0006110475515015,-0.0030140927992761
1772808605975851300,8.168851318359375,0.0794791949063539,0.00048418505406,0.0010220684901578,0.0009978706948459,-0.0005085836746729,0.0016616322100162
1772808605995901400,8.1889013671875,0.0874088188618421,-0.0023066055750939,-0.0032971783818677,-0.0034148069098591,-0.0003411989600863,-1.95992179214e-05
1772808606015950000,8.2089501953125,0.0811228704601526,0.0031869320735801,0.0013282529290765,0.001084858784452,-0.0012004007585346,4.38727438449e-05
1772808606035999200,8.228999267578125,0.085762220698595,-0.0024497495059855,-0.0049371778409695,0.0012216647155582,-0.0025425234343856,-0.0013059852644801
1772808606056048000,8.249048095703126,0.0860632494717836,-0.0010496277839411,0.0029506573659833,-0.0018290702719241,0.0008766816463321,8.04672017693e-05
1772808606076097300,8.26909716796875,0.0710953974425792,-0.0061541478487197,0.0020502881598891,-0.0021477018017321,-0.0006254287436604,-0.0020519951358437
1772808606096147200,8.289147216796875,0.0730365946382284,-0.0044721678448375,0.0072418928530765,-0.001420171232894,4.66569035779e-05,0.0001059076748788
1772808606116196000,8.309196044921874,0.0838093330651521,0.0018113054719753,-0.0077624278621515,-0.0002142060548067,0.0012422634754329,0.0006786724552512
1772808606136245200,8.329245361328125,0.0821621503800153,0.0053437813139054,0.0015751494953874,-0.0022209119051694,0.0018262455705553,0.0007160091772675
1772808606156294400,8.34929443359375,0.0864987182796001,-0.0028073125056922,0.0087675406509311,0.0001231406349688,0.0007838364690542,-0.0015071188099682
1772808606176344000,8.369343994140625,0.0806616826891899,-0.0034990210969001,-0.0081914851954905,-0.001396938227117,-0.0007632405613549,-0.0004052114672958
1772808606196393200,8.389393310546875,0.0811082574129104,-0.002476600980293,0.0043074925021501,0.0002282678615301,-0.0009134053252637,-0.0002782270312309
1772808606216442400,8.4094423828125,0.0843985311299562,0.0017400486003607,-0.0036683954475913,0.0005742965731769,0.0002970268542412,-0.0010587531141936
1772808606236491300,8.4294912109375,0.0745230338037014,-0.004401988685457,0.0033252262994181,0.0007579992525279,-0.0013465696247294,0.0003019226714968
1772808606256541200,8.449541259765626,0.0876917274564504,-0.0019586780534125,0.0052578383298125,0.0005110541824251,0.0016136888880282,0.0010849148966372
1772808606276590300,8.46959033203125,0.0772159261494875,-0.0034784806323703,0.0002592765572713,-0.002733533270657,-0.001052105333656,-0.0009067710489034
1772808606296639200,8.48963916015625,0.08215338255167,-0.0004078318822197,-0.0096986474885838,-0.0006076374556869,0.000768476515077,0.001652758102864
1772808606316688400,8.5096884765625,0.0834983674198389,-0.0025589637678116,0.0001211238953284,0.0007779449224472,0.0022831589449197,-0.0001230682246387
1772808606336738300,8.52973828125,0.0843973620861768,-0.0015864837401546,0.0013643380226101,0.0001895725727081,-0.0005038193194195,-0.0014196401461958
1772808606356787200,8.549787109375,0.0743704735904932,-0.0058036082448437,-0.0020224457383155,-0.0017975817900151,-0.0008440769161097,0.0001945211552083
1772808606376836400,8.56983642578125,0.0827490103572607,-0.0067531092557124,-0.0013270884518744,0.0014438573271036,-0.0004141898243688,-0.0019140099175274
1772808606396885200,8.58988525390625,0.0802034175276756,-0.0045955567624885,-0.0067375509269768,-0.000755769200623,-0.0023185405880212,-0.001483014319092
1772808606416934100,8.60993408203125,0.080204586571455,-0.0082333744087256,0.0017840886714868,0.0005585229955613,-8.23903392301e-05,-0.000378084834665
1772808606436984300,8.629984375,0.0817062233060598,-0.0063908152819611,0.0037830074037425,0.0012279413640499,0.0009680874645709,0.0023269141092896
1772808606457033200,8.650033203125,0.0835024590730667,-0.0067064479692373,0.0050596808426314,0.0013425634242594,0.0011109884362667,-0.0001759999431669
1772808606477082400,8.670082275390625,0.0761690474450588,-0.0036012941612862,-0.0075806735204998,-0.0009102078620344,-3.76460084225e-05,0.0012175391893833
1772808606497131300,8.69013134765625,0.0852946031868457,0.0010534911083057,0.0065964619558537,5.96130266785e-05,0.0006634660530835,-0.0008718119934201
1772808606517181200,8.71018115234375,0.069730538830161,-0.0075335099105257,-0.0055629678893834,-0.0008052906487137,0.0004522117378655,0.0015720615629106
1772808606537230300,8.730230224609375,0.0932189664453268,-0.0050484424959868,-0.0008190841308096,-0.0038084294646978,0.0023633542004972,-0.0024386015720665
1772808606557279200,8.750279296875,0.0778051242142915,-0.0066135181219317,0.002496036333125,-0.0009954234119504,-0.0010707277106121,-0.0001515345647931
1772808606577328000,8.770328125,0.0804986010819673,0.0002244746719487,-0.0015497136600315,0.0027679638005793,-5.12060942128e-05,9.31224785745e-05
1772808606597378300,8.79037841796875,0.0793032538175582,0.0015225425253156,-0.00407499435395,0.0011970242485404,-0.0010886897798627,-0.0011673863045871
1772808606617427500,8.810427490234375,0.0752624539941549,-0.0031657705545425,-0.0051065384919289,-0.0007188552990555,-0.0012133768759667,0.0033915180247277
1772808606637476000,8.83047607421875,0.0848386761128902,-0.0045677371738012,-0.0017301893600495,-0.0015730892773717,0.0014055713545531,-0.0001585055142641
1772808606657525200,8.850525146484374,0.077651394957304,-0.0010421203309204,-0.0049990412631537,-0.0029470261652022,0.0010785823687911,-0.000274977646768
1772808606677575400,8.870575439453125,0.0807902775049209,-0.0067378477544989,0.004519043760444,0.0008800067007541,0.0005255186697468,0.000197066925466
1772808606697624300,8.890624267578126,0.0797428142786026,2.57189631462e-05,0.0040871140500064,-0.0007221202831715,0.0011842870153486,-0.0012097312137484
1772808606717673200,8.910673095703125,0.08138882791996,-0.0020230485265143,0.0058902453486807,-8.73461831361e-05,0.0010710330680012,-0.0007302486337721
1772808606737722000,8.93072216796875,0.0754074154227972,-0.0053684042985085,0.003430202777544,0.0012672545854002,0.0003984430804848,0.000112185254693
1772808606757772300,8.950772216796874,0.0788531719624996,-0.0060909829520154,-0.0005761376538313,-0.0026510180905461,0.0015439621638506,-0.0008044349960982
1772808606777821200,8.9708212890625,0.0831938315153121,-0.0012057681937236,0.0015946990126511,0.0005087801255285,-0.0021723643876612,-0.0020432183519005
1772808606797870000,8.9908701171875,0.0843885942578315,0.0029431407798081,-0.0011359315276378,0.0006700064986944,-0.0020240489393472,-0.0013611307367682
1772808606817919200,9.010919189453125,0.0728664987683296,0.0013251841891556,-0.0071943776166532,0.0018644412048161,-0.001112577621825,0.0003731853794306
1772808606837968400,9.030968505859375,0.094115623024106,-0.0018979608421213,0.0044064730643294,-0.0012617222964763,-0.0006472733221016,0.0003406768664717
1772808606858019300,9.051019287109376,0.0745130969315767,-0.0018037980189546,-0.0003305197291541,0.000648533925414,0.0022685532458126,0.0017242459580302
1772808606878068500,9.071068359375,0.07900164052248,-0.0048585916128475,-0.0048836758217541,-0.0002409873995929,0.0008571540238335,0.0005304748192429
1772808606898117400,9.091117431640624,0.0691273122400045,0.0015721355543937,-0.0134575707638403,-0.000647759065032,-0.0014577063266187,-0.0025152536109089
1772808606918166300,9.111166259765625,0.0812497117102146,-0.0017152155532035,0.0092196089670993,0.0017439546063542,-0.0011602526064962,0.0007830634713172
1772808606938216400,9.131216552734376,0.0858867238610982,0.0019641762124374,-0.0031914529850706,-3.41900158673e-05,0.0002549463533796,0.001169582363218
1772808606958265300,9.151265380859376,0.0767570764660835,-0.0054564753076061,-0.0044920233227778,-0.0001934431493282,-0.000577924423851,0.0015028514899313
1772808606978314500,9.171314453125,0.0801940651774406,-0.0098964670490473,-0.0006813424608204,0.0011417199857532,-0.0009205125970765,0.0012902538292109
1772808606998363400,9.19136328125,0.0800455966174602,-0.0049767563661094,0.0011884699990507,0.0020384369418025,0.0005917403032071,0.0010180277749896
1772808607018413300,9.211413330078123,0.0782522834599018,-0.000879267052561,-0.0089081272985553,0.0012178674805909,0.0019215205684304,0.0005610000807791
1772808607038462500,9.23146240234375,0.0900719005912542,-0.0017010865631513,-0.0080727313537616,0.0017075126525014,0.0002664994390215,-0.0011140191927552
1772808607058511600,9.25151171875,0.076157357007265,-0.0005409658757504,0.0019349409847985,-0.0013648928143084,-0.0001834618597058,-2.25342810153e-05
1772808607078560300,9.271560302734375,0.0848415987223386,-0.0025736772797536,-0.0028922554093645,0.002483045682311,7.98203982412e-05,-0.0008634887635707
1772808607098610400,9.2916103515625,0.0808019679427146,-0.0056711135721299,0.0077675652615725,-0.0027745373081415,-0.0006639585481025,-0.0005306615494191
1772808607118659600,9.31165966796875,0.0866366654455661,-0.000917060045991,-0.0001603690603282,0.0006546508520841,0.0014681493630632,0.0011124741286039
1772808607138708500,9.33170849609375,0.0749678549617528,0.0075571739139035,-0.0058137734458316,0.0001293926034122,0.0020534277427941,5.01275062561e-05
1772808607158757400,9.35175732421875,0.087384853464365,-0.0057485627225134,0.0009187496795784,-0.0006305703427642,0.0032193483784794,-0.0014539882540702
1772808607178806300,9.37180615234375,0.08275017940104,0.0008771938264835,-0.0019438640767708,0.0018316595815122,-0.0014091408811509,4.37991693615e-05
1772808607198856400,9.3918564453125,0.0757125358492136,-0.0042992589633446,-0.0027902015406871,0.0012668031267821,-0.0011560963466763,0.0011408806312829
1772808607218905300,9.4119052734375,0.081849431169033,-0.0094198351137805,-0.0050435334254289,-0.0004516295157372,0.0008424447732977,0.0001936824992299
1772808607238954200,9.431954345703126,0.0839414350122213,0.001638771049818,-0.0043871381761971,-0.0011081213597208,0.0012121680192649,-0.0008157421834766
1772808607259003400,9.45200341796875,0.082895725351572,-0.0027130035520531,-0.0019211727543501,0.0020864591933786,0.0019803119357675,-0.001550574786961
1772808607279053600,9.472053466796876,0.0763110862642526,-0.0023631489347666,0.0069285023552365,-0.0006575374864041,-0.0005752692231908,-0.0008064820431172
1772808607299102200,9.492102294921876,0.0734691408365964,0.0083416296893265,0.0059247732393676,0.0008669425733387,0.0011457747314125,-0.0001143752597272
1772808607319151400,9.5121513671875,0.0843938549548387,-0.008060401595151,0.0043528203480644,-0.0011798101477324,0.0005432291654869,0.0003580441698431
1772808607339200500,9.532200439453124,0.0799012197107076,-0.0048448827479034,0.0038875591901829,-0.0021678926423192,8.97832796908e-05,7.5883232057e-05
1772808607359250400,9.55225048828125,0.0787041188806295,-0.0043056156388949,-0.0019159211904974,-0.0001865059603005,-5.83928631385e-05,-0.0001676832325756
1772808607379299300,9.57229931640625,0.0806435625106096,-0.0053407765060663,0.0063940849512815,-0.0027243858203291,0.0004153241752646,0.000434452202171
1772808607399348500,9.592348388671876,0.0725660545170307,-0.0083473927098326,-0.0079979399513453,0.0029890316072851,-0.0009379611583426,-0.0011202711611986
1772808607419397400,9.6123974609375,0.0858878929048776,-0.0083224774642847,0.0057717609350103,-0.0018996680155396,0.0001173831842606,-0.000872288364917
1772808607439447300,9.632447265625,0.0769131438106298,-0.0003382189784198,-0.0061872829333413,-0.0010300104040652,6.40921352896e-05,-0.0009078262373805
1772808607459496400,9.652496337890623,0.0743704735904932,-0.0036573260643053,-0.0018078668392961,-0.0025578360073268,-0.0023205652832984,-0.0017254534177482
1772808607479545300,9.67254541015625,0.0857400088667869,-0.0041405338708311,-0.0029691474373219,0.0006396325770765,0.0002615643606986,-0.0006307195872068
1772808607499594500,9.692594482421876,0.0820025759041309,0.0035511714092455,-0.0051951757566072,9.14165284484e-05,0.0003293531190138,0.0017632273957133
1772808607519644400,9.71264453125,0.0730243196785449,-0.0036397812744602,0.0031061538883717,-0.0007517451886087,0.00090351421386,0.0022482255008071
1772808607539693300,9.732693359375,0.0800567025333642,-0.0074812500003259,-0.0002965169948525,0.003332934109494,0.0002204275806434,0.0005273858550935
1772808607559742500,9.752742431640623,0.0737713386535644,-0.0025542145274579,-0.0007758021115092,-0.0008267220109701,0.0020470898598432,-0.00138078071177
1772808607579791400,9.772791259765626,0.0784083508044481,-7.74217509198e-05,-0.0007705003153067,0.0008794704917818,-0.0003004868049174,-0.000881930347532
1772808607599840500,9.792840576171876,0.0815530785709619,-0.0047572775296866,-0.0022822017861995,0.0009587705135345,0.0016840349417179,0.0016944576054811
1772808607619890400,9.812890380859375,0.0833463917285203,-4.52639138326e-05,-0.0041638142817188,-3.01473774015e-05,0.0033726161345839,-0.0010201153345406
1772808607639939300,9.832939208984374,0.0779617760807275,-0.0053967262106947,0.0033090651824837,0.0037904677446931,0.0120983105152845,0.0016630911268293
1772808607659988500,9.852988525390623,0.0295996039718389,-0.0070140800131484,0.0130698774873511,0.003238680306822,-0.0052715823985636,5.1331706345e-05
1772808607680037400,9.873037353515626,0.0831646054208278,0.0069146016940474,-0.0189150644181761,-0.004169434774667,-0.0266578309237957,-0.0010800096206367
1772808607700087300,9.89308740234375,0.1106757126808166,-0.0043627617867663,-0.0217568956814007,-0.0057198898866772,-0.0092729059979319,0.0010363450273871
1772808607720136400,9.913136474609376,0.0718979459971189,0.0011870726264081,0.010827610419318,-0.0045977314002811,-0.0170659590512514,-0.0003914274275302
1772808607740185600,9.933185546875,0.1040524951487779,-0.001936475354759,-0.0049551770052523,-0.0035192559007555,-0.0011465856805443,0.000815748469904
1772808607760234200,9.953234130859377,0.0681271952867507,-0.0081572678320575,0.0013340958646847,-0.0019930582493543,-0.0097259925678372,-0.0022740494459867
1772808607780284400,9.973284423828124,0.0844184048742055,0.0044513168530538,0.0089925450458424,-0.0035569947212934,-0.0095578460022807,-5.88805414736e-05
1772808607800333600,9.99333349609375,0.0850146172016859,-0.0070702306471765,-0.0008781482411315,-0.001972165890038,-0.0025037010200321,-0.0012732059694826
