time,seconds_elapsed,accel_z,accel_y,accel_x,gyro_x,gyro_y,gyro_z
1772808541695887600,0.0968876953125,0.0728086311012506,-0.0031426910730544,0.000680780771817,-0.0026407558470964,-0.0003597515169531,7.70259648561e-05
1772808541715936800,0.116936767578125,0.076998484006524,0.0014489384329877,-0.0025858928739326,-0.0006163618527352,-0.0009442846057936,0.0012583355419337
1772808541735985400,0.1369853515625,0.0846317553639411,0.0016849848117213,0.0047456966897472,0.0002045209985226,0.0011318417964503,-0.0015936768613755
1772808541756034600,0.15703466796875,0.0880763428598642,-0.0046928431245032,-0.0047669130077119,0.000518279382959,-0.0003146778035443,-1.09900720417e-05
1772808541776082200,0.177082275390625,0.0798509508281946,-0.002481304554874,-0.001317261177604,0.0009021756704896,0.0009950996609404,0.0009740907698869
1772808541796131300,0.19713134765625,0.0798544579595327,-0.0061166288499254,0.005497492304584,0.0016923826187849,-3.65298765245e-05,0.0013110616710036
1772808541816180200,0.21718017578125,0.0840431418210268,0.0006430836765095,0.0062200618249364,-0.0034763342700898,0.0012314452324062,-0.000946641433984
1772808541836229400,0.2372294921875,0.0876350288331508,0.0002313610704615,-0.0050460587426554,0.0014481260441243,-0.0009622557554394,0.0003001959994435
1772808541856277200,0.25727734375,0.07239946577847,0.0041568365516606,-0.0044001757542835,0.0002724297810345,0.0004287352785468,-0.0002348502166569
1772808541876326400,0.277326416015625,0.0779372261613607,0.0071222348290495,-0.0041945747461635,0.0003250292502343,9.24740452319e-05,-0.0009723831899464
1772808541896375300,0.297375244140625,0.061170215755701,0.0115752230493817,0.004126372914738,0.0020912347827106,0.0004899547784589,0.000340586528182
1772808541916424200,0.317424072265625,0.0574082328736782,-0.0003143997114151,-0.0061986171781085,-0.0025922879576683,0.0015379528049379,1.17341987788e-05
1772808541936473300,0.337473388671875,0.078356328356266,0.0015420783428475,0.0098779267453588,0.0012093721888959,-0.0029540674295276,-0.0005612247623503
1772808541956522200,0.357522216796875,0.0873234786659479,-0.0099627098188269,-0.0019171769992448,-0.0023463009856641,0.0003022241871803,0.0001112953759729
1772808541976571400,0.3775712890625,0.094790745806694,0.0031621903579682,0.0119221915898378,-0.0020385277457535,0.0006306355353444,0.0004963087849318
1772808541996620500,0.39762060546875,0.08655483238101,-0.0058035625790711,-0.0032489827254321,8.60530417412e-05,0.0030863147694617,0.0004676473326981
1772808542016669200,0.417669189453125,0.0853577315509319,-0.0058105951080564,0.0002588016332359,0.0020406323019415,0.0019785936456173,0.0026647173799574
1772808542036718300,0.43771826171875,0.0894096372902393,0.007656296039978,0.0133412372080609,-0.0004130254965275,-1.95304164662e-05,0.0025473530404269
1772808542056767200,0.457767333984375,0.0753460406243801,-0.0133282498623244,-0.0002387863250914,0.0009936117567121,-1.79438793566e-05,0.0013168433215469
1772808542076816400,0.47781640625,0.0894143134653568,-0.0046603108280804,-0.0070373284579953,-0.0021589065436273,0.0023479738738387,0.0010440829209983
1772808542096865500,0.497865478515625,0.0771405228257179,0.0031105880348943,0.0073910281333373,-0.0012923099566251,-0.0018120157765224,0.0003785588778555
1772808542116914200,0.5179140625,0.0847679489642381,-0.006335340501368,-0.00265188904854,-0.000934295123443,0.0017631668597459,-0.0005160234868526
1772808542136963300,0.53796337890625,0.088815178528428,0.0011541932701133,0.0006132684935582,-0.0021022013388574,-0.0006790707120671,0.0015202595386654
1772808542157012200,0.55801220703125,0.0835807850062847,-0.0128093862205278,0.0039750365442363,-0.0005754271987825,0.0001600326504558,-0.001982582733035
1772808542177061400,0.578061279296875,0.0790928259372711,-0.00362291233805,0.0002312880052253,0.0006122447084635,-2.6339257601e-06,0.0013224266003817
1772808542197110500,0.598110595703125,0.0701221684962511,0.0037965975376777,0.0117399760238826,4.80967573821e-05,-9.08931542653e-05,-0.0002225823700428
1772808542217159200,0.6181591796875,0.0708674339056015,0.0048498511839658,-0.0085302612963365,0.0005894901696592,-0.0013950444990769,0.0004582139663398
1772808542237208300,0.638208251953125,0.0883802942425012,-0.0009550996345933,-0.0027625326490495,0.0016227529849857,4.8534857342e-05,-0.0005447785370051
1772808542257257200,0.65825732421875,0.0874853912293911,0.0078434617756865,0.0007950365349417,0.001045488519594,0.0026444802060723,-0.0001727514900267
1772808542277305300,0.678305419921875,0.0780576376706361,-0.0031219131465069,-0.0032629336189711,0.0017971009947359,0.0015392825007438,-0.0003002705052495
1772808542297354200,0.698354248046875,0.0900257233619689,0.0019243556587025,0.0037807560811517,-0.0016704606823623,-6.49458379484e-05,0.0023420518264174
1772808542317403400,0.7184033203125,0.074014499759674,0.0020376433074474,0.0057238347066333,0.0017778319306671,-0.0003522813785821,-0.0002170675434172
1772808542337452300,0.738452392578125,0.0820902541875839,-0.011470146106556,-0.0083891038265544,0.000135812908411,-0.0018037345726042,-0.0010721874423325
1772808542357501200,0.758501220703125,0.0752098470240831,0.0029326559184119,0.0106410337720764,-4.05935570597e-05,0.0015623733634129,0.0005850419402122
1772808542377550300,0.77855029296875,0.0734171183884143,-0.0069876486639492,0.0022060404106043,0.0018894027452915,-0.0006759723182767,-4.07486222684e-05
1772808542397599200,0.79859912109375,0.0826940652996301,-0.0051827090006787,-0.0001656434570671,-0.0003487167414277,0.0007284567109309,-1.34943984448e-05
1772808542417648400,0.8186484375,0.0907739113807678,0.004152123843925,-0.0107743732615839,-0.0006621300708502,-0.0005862217512913,0.0015398943796753
1772808542437697500,0.838697509765625,0.0665332040935754,0.0020963055589701,-0.0039906177058583,-0.0015244535170495,0.0007981010712683,0.0018580486066639
1772808542457746200,0.85874609375,0.0843435860723257,0.0014941658142022,-0.0012565211334265,-0.0016722506843507,0.0007418073364533,-0.000278933905065
1772808542477795300,0.87879541015625,0.0895826557695865,0.0039187534794677,-0.0051197359002195,-0.0003932814579457,-0.0011542000574991,0.0030646128579974
1772808542497844200,0.89884423828125,0.0903285057008266,-0.0026613007642794,0.0011991831893101,0.0002015561331063,0.0028032548725605,0.0004681232385337
1772808542517893400,0.918893310546875,0.0829956785947084,-0.0061500287960283,-0.0041586860154522,-0.0007067020051181,-0.0003647670673672,0.0003211353905498
1772808542537942500,0.938942626953125,0.0820972684502601,-0.0041942824852187,0.0016168195129139,0.0016144150868058,-0.0006820083945058,4.72115352749e-05
1772808542557991200,0.9589912109375,0.0840437263429164,0.0116661710021551,0.0082018924250733,-0.0018334577325731,-0.0022911999840289,-0.0012607448734343
1772808542578040300,0.979040283203125,0.0883867239832878,0.000977338865865,0.0027624276177724,-0.0013230193872004,-0.000198761728825,0.0003134254366159
1772808542598089200,0.999089111328125,0.0822527512729167,0.007714181973366,0.0035282152253435,0.0019638715311884,2.54620681516e-05,0.0004886793904006
1772808542618138400,1.019138427734375,0.0948240635544061,0.0070846792976371,0.0012358025723835,-0.0013435094151645,0.0020063226111233,0.0003242148086428
1772808542638187500,1.0391875,0.096318101504445,0.0065593402492813,-0.0010234064972959,0.0007062030490487,-0.0002445651916787,0.0020125687588006
1772808542658236200,1.059236083984375,0.0843506003350019,-0.0010262469083536,0.0016793724882649,0.0031020995229482,0.0025433637201786,-0.0011696917936205
1772808542678284300,1.0792841796875,0.0812087951779365,-0.0056633869234006,0.0051981257655192,0.0005228498484939,-0.0019381250021979,0.0028520023915916
1772808542698333200,1.099333251953125,0.0776145700782537,-0.0039114834884647,0.0011919816969661,-0.0006390453781932,-5.6059507187e-06,0.0010863966308534
1772808542718382300,1.11938232421875,0.0794113903671503,-0.0025764994245022,0.0041575078385183,-0.0019569201394915,0.0017481594113633,0.0012987293303012
1772808542738431200,1.13943115234375,0.0871925457626581,-0.0020266195899341,-0.0028618146053282,0.0019498616456985,-0.0015346702421084,7.18934461474e-05
1772808542758480400,1.15948046875,0.0761199476063251,0.0031750498395413,0.0021966058619786,-0.0008337413892149,0.0001669793855398,0.0005148891359567
1772808542778529300,1.179529296875,0.0852478414356708,-0.0019433526201173,0.001071958346758,-0.0023332012351602,0.0011729574762284,8.0267433077e-05
1772808542798578200,1.199578125,0.0765723675489425,-0.000479655009415,-0.0012216416162904,0.0006825283635407,0.0016264881705865,-0.0024325242266058
1772808542818627000,1.219626953125,0.092286069509387,-0.0015978819170035,0.0031731410102453,0.0004910579882562,0.0005414858460426,0.0012609323021024
1772808542838676200,1.23967626953125,0.0779220285922288,0.0093522497702855,0.0063869017252465,0.0013265442103147,-0.0003391019708942,-0.0009472919628024
1772808542858725400,1.259725341796875,0.0806149209380149,0.0050370077865198,-0.0027947133190231,-0.0019952282309532,0.0017765437951311,-0.0006358358077704
1772808542878774300,1.279774169921875,0.0774707776933908,-0.0009880520561244,-0.0046213076916756,-0.0009230393916368,-0.0017394183669239,0.0014894197229295
1772808542898823200,1.2998232421875,0.095876202955842,-0.00076802523043,0.006701739828079,-0.0010662169661372,-0.0008954729419201,-4.9294903874e-06
1772808542918872000,1.3198720703125,0.0946773485600948,-0.0025269703275058,0.0010272013230016,-0.0020536556839942,-0.0001600311079528,-0.000624337233603
1772808542938921200,1.339921142578125,0.0816577079892158,-0.0001052596059162,-0.0040238349888706,-0.0002071135677397,-0.0018610297702252,0.0013741396833211
1772808542958970400,1.359970458984375,0.08375731061697,0.0013392127145081,0.0037567541510565,0.0005170488730072,0.0015199977206066,0.0012815010268241
1772808542979019300,1.380019287109375,0.0801660081267356,-0.0032786106787156,-0.0010598888830514,-0.0008398399222642,0.0011164151364937,0.0009585912339389
1772808542999068200,1.400068115234375,0.0870475843340158,0.0022433676131535,-0.0093186854274012,-0.0031446265056729,0.0003629278799053,0.0005854801274836
1772808543019117000,1.420116943359375,0.0894441240817308,-0.0006907587431371,-0.0007116280012298,0.0034863422624766,0.0011754493461921,-0.0017719557508826
1772808543039166200,1.440166259765625,0.0858551596790552,-0.0013257687110453,-0.0034092832871014,-0.0008463456761091,-0.0012301679234951,-0.0004847575910389
1772808543059215400,1.46021533203125,0.0854056623458862,0.0036621575030498,-0.0070387897627195,-0.0009967344813048,-0.0002835900522768,-0.0006537060253322
1772808543079264300,1.48026416015625,0.082561963352561,0.0071460997618269,-0.0006949143284466,-0.0003968277014791,-0.0008128859917633,-9.69343818724e-05
1772808543099312400,1.5003125,0.0866021786540746,-0.0025695125612895,-0.0092130376624176,0.0017372677102684,0.0009391805506311,-0.0009316834621131
1772808543119361300,1.520361328125,0.093490769124031,-0.0062666043804027,0.0021585936728399,-0.0011618318967521,0.0010306331096217,-0.0005549974739551
1772808543139410200,1.54041015625,0.0873579654574394,-0.0020943875965196,0.0016575031497515,-0.0009243164677172,0.0005845599807798,-0.0011956370435655
1772808543159459000,1.560458984375,0.0873597190231084,0.004364926344389,0.010710208284459,0.0002911165356636,-0.0003701992100104,0.0011431325692683
1772808543179508200,1.58050830078125,0.088705288413167,0.0136903703061398,0.000835158482776,0.0009412486106157,-0.0010127167915925,-0.0010725716128945
1772808543199557400,1.600557373046875,0.0846668266773223,0.0016832769118249,-0.006029306759499,-0.0001120537053793,0.0016402353066951,5.35962171852e-05
1772808543219606300,1.620606201171875,0.0949918213367462,-0.0016315649908967,-0.0020406800813274,0.0008857753127813,-0.001784547814168,0.0003906134516
1772808543239655200,1.6406552734375,0.0878068782687187,-0.0035940150371287,-0.0022227860494283,-5.55410515516e-05,-0.0008048135787248,0.0004856041632592
1772808543259704000,1.6607041015625,0.0903466258794069,6.50463265366e-05,-0.0007235102352686,0.0009066574275493,-0.0009315978968515,-0.0012852740474045
1772808543279753200,1.680753173828125,0.0807668966293334,-0.0004162617838475,0.0003760667707771,0.0001651127822697,-0.000517705339007,-0.0017124232836067
1772808543299802400,1.70080224609375,0.0934843393832445,0.0065795519202481,0.0026610587356844,-0.000954768853262,-0.0010872943094,0.0004228390753269
1772808543319851300,1.720851318359375,0.0895931771636009,0.0017569175367709,-0.0025342768511269,0.0001273348461836,0.0012895778054371,0.0028674136847257
1772808543339900200,1.740900146484375,0.0870516759872436,-0.0013649134113453,-0.0041197239782428,-0.0011908183805644,0.0011509102769196,0.0013366646599024
1772808543359949000,1.760948974609375,0.0803168147742748,-0.0044235977290663,0.0086582852899096,-0.0002783979289233,-0.001924144453369,-0.0008765589445829
1772808543379998200,1.780998291015625,0.0767255122840404,-0.0015714597009588,0.0023383615533821,-0.0012497480493038,0.0006953693227842,0.0001589474268257
1772808543400047400,1.80104736328125,0.0743295570582151,0.0010275346831418,-0.0077892245375318,0.0008183335885405,0.0012013324303552,-0.0019444758072495
1772808543420096300,1.82109619140625,0.0889946267485618,-0.0051122284471988,0.0037355697991326,-0.0017495721112936,0.0016153212636709,-0.0013727555051445
1772808543440145200,1.841145263671875,0.0909440072506666,0.0010604597052093,-0.0004634984590578,0.0006785937584936,-0.0012177496682852,-0.0013358076103031
1772808543460194000,1.861194091796875,0.0861550194084644,-0.0026644882352091,-0.0068092507565859,-0.0005285199731588,-0.0007051517022773,0.0005240924656391
1772808543480243200,1.8812431640625,0.0824123257488012,-0.0084170238799415,0.002165553136589,0.0031313197687268,-0.0010728883789852,0.0006596953608095
1772808543500292400,1.901292236328125,0.0833101513713598,-0.0056670219189021,0.0004651013276772,-0.0001480493228882,0.0005262238555587,0.0001338240690529
1772808543520340200,1.92134033203125,0.083307813283801,-0.0111781774226576,-0.003244018855947,0.0004173894412815,-0.0005904240533709,0.0004336135461926
1772808543540389400,1.941389404296875,0.0886947670191526,-0.0089194843762088,-0.0047182469938183,0.0018002903088927,0.0025394593831151,-0.001789123751223
1772808543560438300,1.961438232421875,0.0791150377690792,0.0062687141390983,0.0071968298686435,-0.0009855469688773,0.000561847584322,0.0007259254343807
1772808543580487200,1.981487060546875,0.0804652833342552,0.0134721701113507,-0.0023565091314259,0.0002065687440335,-0.0002616533602122,0.0005877339281141
1772808543600536000,2.0015361328125,0.0910913067668676,-0.0037031379674095,-0.0025188646528637,-0.0018581470940262,-4.54195978818e-05,0.0015677157789468
1772808543620585200,2.021585205078125,0.0877992794841528,-0.002250838533556,-0.0023579658695729,-0.0013701075222343,0.0007023453945294,0.002921300008893
1772808543640634400,2.04163427734375,0.0834568663656711,-0.0094058705205097,0.005243202449684,-0.0013681901618838,0.0014563106233254,0.0013854964636266
1772808543660683300,2.061683349609375,0.0895902545541524,-0.0034340387024451,-0.0066368670314783,0.0008088080212473,-0.0018238481134176,-0.0022226287983357
1772808543680732200,2.081732177734375,0.0755237352788448,0.0064468380518257,-0.004872811934445,-0.000793517101556,-9.2554197181e-05,0.0001855501905083
1772808543700781000,2.101781005859375,0.0803115540772676,0.0056399603820405,-0.0006651082786498,-0.0010298704728484,0.0009486889466643,-0.0013893754221498
1772808543720830200,2.121830322265625,0.0840530786931514,-0.0020744955859612,1.48094100644e-05,-0.0010124703403562,-0.0011951235355809,-7.29626044631e-05
1772808543740879400,2.14187939453125,0.0831534995049238,-0.0130735627152025,-0.0006575962590519,-0.0013447434175759,0.0008823050302453,-0.0018629832193255
1772808543760928300,2.16192822265625,0.0861450825363397,-0.0062596357834991,0.0139756580875022,-0.0012838416732847,0.001542946556583,0.0017695708665996
1772808543780977400,2.181977294921875,0.0871937148064374,-0.000866097043734,0.0015620571183739,-0.0005740514025092,7.52197229303e-05,2.72560864686e-05
1772808543801026600,2.202026611328125,0.0762701697319745,0.0088480357083491,-7.17272290727e-05,-0.0017331985291093,0.0013472858117893,0.0001278654672205
1772808543821075700,2.22207568359375,0.0806149209380149,-0.0027551895928103,-0.0053491835748078,0.0009341575205326,0.0003083124756813,0.0017233195248991
1772808543841124600,2.24212451171875,0.0759837540060281,-0.0034303671743255,0.003797816813807,0.0023279669694602,-0.0003248935681767,0.0003257705830037
1772808543861173500,2.262173583984375,0.0762783530384302,-0.0026419750093016,0.0019086329331854,-0.0001256307587027,0.0017279747407883,-0.0008605141192674
1772808543881222400,2.282222412109375,0.0824158328801393,-0.0069228489325847,-0.0067054341890849,0.0002123948652297,0.0016258328687399,0.0006642180960625
1772808543901271600,2.302271484375,0.0898930368930101,0.0167637864021118,0.0017043425327399,-0.000502593582496,0.0010779913282021,-0.000876270700246
1772808543921320700,2.32232080078125,0.077321140089631,0.0074683722524438,-0.0097900749319698,6.85397535562e-05,-0.0015028523048385,-0.0008258260786533
1772808543941369600,2.34236962890625,0.0822626881450414,-0.01116916299914,-0.0039516967678442,-0.0008613970130681,7.8759578173e-05,-0.0006185276433825
1772808543961418800,2.362418701171875,0.0827121854782104,-0.0044180265048053,-0.0033237832610029,0.0024448803160339,0.0018927365308627,-0.0022930335253477
1772808543981466600,2.382466552734375,0.0803191528618335,-0.0097275128234643,0.002239559087716,0.0003703215625137,-0.000401095720008,0.0007135006599128
1772808544001515500,2.402515625,0.0843576145976781,0.0077157528759445,0.0004293084950884,0.0006978914607316,-0.001050422899425,0.0001325644552707
1772808544021564400,2.422564453125,0.0804658678561449,0.0035350787909701,0.0010462348170345,0.001742418622598,0.0010421733604744,0.0001303893513977
1772808544041613600,2.442613525390625,0.0786719701766967,0.0003588781739585,-0.0011990690248785,0.0015461326111108,-0.000844350666739,-0.0004597990773618
1772808544061662700,2.462662841796875,0.0819645819813013,-0.0095594262475613,0.002079783682432,-0.000742760952562,-0.0002296704769833,0.0003761863335967
1772808544081711600,2.482711669921875,0.081662968686223,-0.0092324136497452,0.0002500520711997,-0.0023608293849974,3.19081591442e-05,0.001114628277719
1772808544101760500,2.502760498046875,0.084501406982541,0.0074457037629093,0.0043484364338917,-0.0001021320931613,-0.0012584849027916,-0.0031347991898655
1772808544121809400,2.522809326171875,0.0848018512338399,0.0131871517580468,0.0054168145840754,0.0021045252215117,0.0027862675487995,0.0010773981921374
1772808544141858600,2.542858642578125,0.0812111332654953,0.0054230479620397,0.0086133958354126,-0.0027839881367981,0.0003406661271583,-0.0001333025284111
1772808544161907700,2.56290771484375,0.0720820703923702,-0.0154568867883179,-0.0012975518301362,0.0009084942284971,-0.0004153584595769,0.0005959095433354
1772808544181956600,2.58295654296875,0.0834568663656711,-0.0141325976483058,-0.0103505492257885,-0.0007372093386948,-0.0025055673904716,0.0005078883841633
1772808544202005500,2.603005615234375,0.0744756875306367,-0.0002763144570402,-0.0013770148410927,0.0014352479483932,0.0027094187680631,-7.82976858317e-05
1772808544222054400,2.623054443359375,0.0834516056686639,0.0087542108118999,0.0043890744049567,-0.0020933719351887,-0.0005612017703242,-1.08871608972e-05
1772808544242103600,2.643103515625,0.0779167678952217,0.005506689391192,-0.0093506423350889,-0.0007447777315974,0.0009686920093372,-0.0016803299076855
1772808544262152700,2.663152587890625,0.0854015706926584,-0.0006056012103334,0.002094515460683,0.0032589340116828,0.0027558591682463,-0.0010841842740774
1772808544282201600,2.68320166015625,0.0693926851779222,-0.012773072798131,-0.0039168583499034,0.0011138105764985,-0.0007065846584737,0.0016018021851778
1772808544302250500,2.70325048828125,0.0928840354025363,-0.0079551967881619,-0.0040807391081471,-0.0009835930541157,-0.0028016846626996,0.0018576141446828
1772808544322299400,2.72329931640625,0.080314476686716,0.001180770749785,-0.008818535619229,0.0019575755577534,-0.0012863642768934,9.29622910916e-05
1772808544342348500,2.7433486328125,0.0854033242583274,0.0114825854630209,-0.0045809802478644,0.0014784650411456,-0.0005027896841056,0.0007438422180712
1772808544362397700,2.763397705078125,0.079872578138113,0.0075578954331111,-0.0003384244743967,0.0011271641124039,0.0008965898887254,-0.0017990549094974
1772808544382446600,2.783446533203125,0.0779267047673463,-0.006823845537519,-0.0056897269410546,-0.0002525425516068,0.0010969337308779,0.0010078486520797
1772808544402495700,2.803495849609375,0.0801718533456325,-0.0154332775838673,-0.0074400960060302,0.0008079749532043,-0.0022607459686696,-0.0002222978509962
1772808544422544400,2.82354443359375,0.0744821172714233,0.0092830843910574,0.0078578464940655,-0.0003506150096654,-0.0004774949629791,-0.0013178884983062
1772808544442593500,2.843593505859375,0.0768733963221311,0.004940205481695,-0.0014760319358902,-3.16710211336e-05,-0.0013104253448545,-0.0010509565472602
1772808544462642700,2.863642578125,0.0848059428870677,0.0093000446590129,-0.0019118295372696,0.0011580092832446,0.0004338698345236,-0.0023298277519643
1772808544482691600,2.883691650390625,0.0774748693466186,-0.0033570096771698,-0.0036282552334479,-3.21413390338e-05,0.0002333939191885,0.0001991842873394
1772808544502740700,2.90374072265625,0.0857066911190748,-0.0172117493653204,-0.0032282047988846,-0.0013900820631533,0.0012130932882428,0.0003482867032289
1772808544522789400,2.923789306640625,0.0837590641826391,-0.0061976033979561,-0.0075940490253036,-0.0021714949980378,-0.0005973664810881,0.0017718735616654
1772808544542837500,2.94383740234375,0.0761240392595529,0.00587319374918,-0.0042063017165753,-0.0041930037550628,-0.0001351707760477,-0.0019401968456804
1772808544562886400,2.963886474609375,0.0786672940015792,0.0116021658552344,0.0013831020885845,-0.0007918472401797,-0.0008917397353798,-0.0009069209918379
1772808544582935600,2.983935546875,0.0806137518942356,0.0027169856074266,-0.0060631405304418,-0.0012896116822957,0.0006884961621835,-0.0001157564111053
1772808544602984700,3.003984619140625,0.0770242029696702,-0.0089304898274131,-0.003252919115033,0.001999330939725,-0.0006784447468817,0.0028798528946936
1772808544623033600,3.02403369140625,0.0827104319125413,-0.0002729077904019,0.0003125274147372,-0.0008898556698113,-0.0006790828774683,0.0006626727990806
1772808544643082500,3.04408251953125,0.0874976661890745,-0.0039063232561573,-0.0034741104179294,0.001298998016864,-0.0002681651967577,-0.0007384275086224
1772808544663131400,3.06413134765625,0.0816617996424436,0.0055892348418012,-0.0055812615978997,-0.0004347630310803,0.0015516093699261,0.0028660702519118
1772808544683180500,3.0841806640625,0.0701437958061695,0.0153999324366915,0.0044313015449093,0.0023775985464453,0.000963095924817,0.0001815566793084
1772808544703229700,3.104229736328125,0.0780792649805545,-0.0027547238019295,0.0043159543698187,0.0020806742832064,-0.0006020057480782,-0.0009622713550925
1772808544723278600,3.124278564453125,0.0797246941000223,-0.0097004604197572,-0.0003320769320009,-0.0007009170949459,-0.0002739337214734,0.0002359077334403
1772808544743327700,3.14432763671875,0.0720943453520536,0.0046465197647456,0.0053519783200928,0.0029582935385406,-0.0004246059979777,-0.000829214695841
1772808544763376400,3.16437646484375,0.0783802937537431,-0.0056231553777121,-0.0054394008752191,-0.0011332433205097,0.0043629533611238,0.0011869298759847
1772808544783425800,3.18442578125,0.0815215143889188,0.0047677349916193,-0.0053769894637633,-0.0002511891070753,0.000328203808749,0.0009372043423354
1772808544803474700,3.204474609375,0.0777788207292556,-0.0039402346589136,0.0042128912875661,-0.0001945791300386,-0.002017447957769,0.00119064678438
1772808544823523800,3.22452392578125,0.0629594372600317,0.0010872837800532,-0.0062365517354337,-0.0036264746449887,0.0018935616826638,-0.0003949655219912
1772808544843572700,3.24457275390625,0.0801660081267356,-0.0050389440152794,0.0010567014121217,0.0009224156383424,0.000425610342063,-0.0012248805724084
1772808544863621600,3.26462158203125,0.0738818132907152,-0.0028128928631078,-0.0001607846188591,0.001571389613673,-0.0023780211340636,7.1111600846e-05
1772808544883670800,3.2846708984375,0.079119129422307,0.0066299943326972,0.0017092333369888,0.000641097780317,-0.0005896642105653,-0.0022640409879386
1772808544903719700,3.3047197265625,0.0798649793535471,0.0093185575632378,0.0028799804496811,-0.0004930582363158,-0.0001842337369453,-0.0014786617830395
1772808544923768800,3.324768798828125,0.0770259565353393,-0.0065807026977185,0.0021089595445664,-0.0019476624438539,-0.0006770188920199,0.0001118057407438
1772808544943817700,3.344817626953125,0.0837608177483081,-0.0091074355632066,0.0056608616061741,-0.0007131127640604,-0.0003081059257965,-0.0006332760676741
1772808544963866600,3.36486669921875,0.0689484485417604,-0.0091575035163201,0.0008072338628116,0.003357300767675,0.0029627415351569,0.0004929504357278
1772808544983915800,3.384915771484375,0.0825695621371269,-0.0033904096232727,-0.0043362710720626,-0.0037517976015806,0.0003238480130676,-0.0003672144375741
1772808545003964700,3.404964599609375,0.084363459816575,0.0069698572789318,-0.006720896619698,0.0001508297864347,-0.000496617052704,0.0019742676522582
1772808545024013800,3.425013916015625,0.0685047964274883,0.0036562392189167,0.0053696646738331,-0.0008945600129663,-0.0001621709670871,0.0006639750208705
1772808545044062700,3.445062744140625,0.0885562353312969,-0.0102447416306007,-0.0045052618302637,-2.8861220926e-05,0.0004427438543643,0.0014357820618897
1772808545064111600,3.465111572265625,0.0828700063884258,-0.0026092783160973,0.0044861918036127,-0.0001642652787268,0.0005670908140018,0.0006439958233386
1772808545084160800,3.485160888671875,0.0792816265076398,0.0012708236534148,-0.0041923827890772,0.0006478216964751,0.000658779637888,-0.0008646422065794
1772808545104209700,3.505209716796875,0.0770382314950227,0.0108526535290293,-0.0045382188183721,0.0015145572833716,-0.0013355385744944,-0.0012952736578881
1772808545124258800,3.5252587890625,0.0803296742558479,0.0050825822276063,-0.0011501609823899,0.0019155282061547,0.0016529718413949,-0.0029011089354753
1772808545144307700,3.5453076171875,0.082573069268465,-0.0068535648223478,-0.0034323627685895,0.0003893664106726,-0.0024977871216833,0.0011691637337207
1772808545164356600,3.565356689453125,0.086465400531888,-0.006006784400437,-0.0050561463118297,-0.0006839407142251,0.0021336283534765,0.0005294163711369
1772808545184405800,3.58540576171875,0.0761421594381332,0.0034949020442087,-0.002714199995296,-2.81473621726e-05,0.0002581763837952,-0.0015685325488448
1772808545204454700,3.60545458984375,0.0789870274752378,0.0030566658905707,0.0008000369370449,0.0022208469454199,-0.000540128792636,0.0006477963179349
1772808545224503800,3.62550390625,0.0840747060030698,0.010070864634728,-0.0137925474724033,0.0003872932866215,-3.0698720365e-06,9.26833599805e-05
1772808545244552700,3.645552734375,0.0893126066565513,0.0016323961079586,-0.007721904055518,0.0010484964586794,-2.17755150515e-05,-0.000697064679116
1772808545264601600,3.6656015625,0.0876689311027526,0.0003811904704663,-0.0036445579142775,0.0004832099657505,-0.0022110512945801,0.0018995818682014
1772808545284650800,3.685650634765625,0.0745002374500036,-0.0043116891866549,-0.001568167198752,-0.0034739843104034,0.0022883098572492,-7.12433829903e-05
1772808545304699600,3.70569970703125,0.0801847128272056,0.0023781455744989,0.0047928739994531,0.0017114118672907,-0.0001949427241925,-0.0002892920747399
1772808545324747800,3.725747802734375,0.0786848296582698,0.0117934049778617,0.0019654959532665,-0.0007572616450488,-0.0010977922938764,9.2680566012e-06
1772808545344796700,3.745796630859375,0.0732949533134698,-0.0001904262718744,0.0026838596559595,0.0008168390486389,-0.0014068640302866,-0.0004343828186392
1772808545364845800,3.765845703125,0.0812269153565168,0.0077296992029063,-0.0097926504815462,0.0011276660952717,0.001979760825634,-0.0005116569809615
1772808545384894700,3.785894775390625,0.0809270556271076,-0.0003644676645286,0.0097628946640994,-3.7444056943e-05,0.0004006672243122,-0.0019108112901449
1772808545404943600,3.805943603515625,0.0786801534831523,-0.0015167155727278,-0.0046409302741754,0.0005887455772608,-6.76384515827e-05,0.000372237060219
1772808545424992800,3.82599267578125,0.0830272427767515,0.0084001458103768,0.0030576705375686,0.0029777467716485,-0.0001011249842122,-0.0009178211912512
1772808545445041700,3.846041748046875,0.0891612154871225,0.0010424399913288,-0.0040352103328332,5.8209989219e-06,-1.48800754686e-05,0.0015155531000345
1772808545465090800,3.8660908203125,0.0786889213114976,0.0027447686634957,-0.0003590243044309,-0.0004130862653255,0.0001268733903998,0.0009852391667664
1772808545485139700,3.8861396484375,0.078837389871478,-0.0002709806947968,-0.0059805448474828,0.0006540303584188,0.0002002856635954,-0.0005015018396079
1772808545505188600,3.906188720703125,0.080929978236556,-0.006703580158716,0.008151463712356,-0.004453629720956,0.0014426788548007,-0.0014529358595609
1772808545525237800,3.92623779296875,0.0849684399724006,-0.0038037213982082,0.0096873634761665,-0.0007586418651044,0.0033063297159969,-0.0008554849773645
1772808545545286700,3.94628662109375,0.077339844790101,0.0082365710128098,0.0010324437536997,-0.0001850756816565,0.0021505989134311,0.0003427467308938
1772808545565335800,3.966335693359375,0.0863169319719076,0.0066649925808422,0.0013913949928944,-0.0009246333502233,-0.0008313303114846,-0.0011094692163169
1772808545585384700,3.986384765625,0.0737467887341976,0.0021442820196971,0.0018654879112029,-0.0005795038305222,-0.0039143837057054,0.0006032937671989
1772808545605433600,4.00643359375,0.078083941155672,-0.0078262092467863,-0.0010338228600332,-0.0006046793423593,-0.0002124226302839,-0.0002425899729132
1772808545625482800,4.026482666015625,0.0816775817334651,-0.0002080989258829,0.0045159658873686,0.0002887363079935,0.0015235188184306,0.0012559092137962
1772808545645531600,4.04653173828125,0.0804810654252767,-0.0012641199179925,0.0048735288870753,-0.0001859222538769,-0.0006113659474067,-0.0026327730156481
1772808545665580800,4.066580810546875,0.0785357765763998,0.0076545424743089,-0.0075570003839675,0.0037826804909855,-0.0007819275488145,-0.0002161585725843
1772808545685629700,4.086629638671875,0.0836234551042318,0.0061441013787407,0.0011711170054506,-0.0007265554741024,-0.003062127623707,0.0013175620697438
1772808545705678600,4.1066787109375,0.0729997697591781,-6.24068448785e-05,-0.0028671392344171,0.0006328688468784,-0.0025642239488661,-2.36653722822e-05
1772808545725727700,4.126727783203125,0.0737462042123079,-0.0122193022397346,0.0045295194886857,-0.0006310101598501,2.12480663321e-05,0.0005224314518272
1772808545745776600,4.146776611328125,0.0801800366520881,0.0002612904178444,0.0047419201303506,0.0016729845665395,0.0009448415366932,-0.0014281594194471
1772808545765825800,4.16682568359375,0.0786830760926008,0.0010487053353339,-0.0062872133435914,-0.0003574525471776,0.0006891304510645,0.0020166444592177
1772808545785878800,4.186878662109375,0.0930477015316486,0.0013349840639624,0.0073697341835591,0.0022642230615019,-0.000923404819332,0.001420876244083
1772808545805927400,4.206927490234375,0.0776397045195102,-0.0053161900540813,-0.0108707554413005,0.0042879180982708,-0.0005818706704303,0.0004446688108146
1772808545825976600,4.2269765625,0.0750964497774839,-0.0055988703198265,0.0042932858802843,-0.0030886619351804,0.0017091289628297,0.0002133576199412
1772808545846025700,4.247025634765625,0.0779401487708091,0.003618227029778,0.0075386564431013,-0.0005196288693696,-0.0017189537174999,5.17782755196e-05
1772808545866074600,4.26707470703125,0.0718055915385484,0.0062162259000353,-0.0031452483563218,0.0001514302566647,0.0018391849007457,0.0003826529718935
1772808545886123800,4.287123779296875,0.0827308901786804,0.0062281081340741,0.0055525286937598,0.0002669233363121,0.0008156828116625,-0.0002460950054228
1772808545906172400,4.30717236328125,0.0920095906555652,-0.002413527415134,0.001311447924748,-0.0023486777208745,-0.0004986962303519,0.0009463450405746
1772808545926221600,4.3272216796875,0.0935071357369422,-0.0097404088376555,0.0013497478082543,0.000963851576671,9.67756495811e-05,-0.0010475609451532
1772808545946270700,4.347270751953125,0.083481416285038,-0.0022728311696555,0.0053798161750892,-0.0005694015417248,-7.44342105463e-05,-0.0010232808999717
1772808545966319600,4.367319580078125,0.0763011493921279,0.0056218219371512,-0.000489199155895,0.000975675182417,0.0016728101763874,0.0013053726870566
1772808545986368800,4.38736865234375,0.0809369924992323,0.0056784931609872,0.004262584781344,0.0010460966732352,7.79964029788e-05,-0.0005618948489427
1772808546006417400,4.40741748046875,0.0800397513985633,0.0083537037196103,0.0002439511239761,0.0020140309352427,-0.0006977884331718,0.0016698429826647
1772808546026466600,4.427466552734375,0.0918634601831436,-0.0007249989394564,-0.0021782573545351,0.0010835772845894,-0.0008746839012019,-0.0009590745903551
1772808546046515700,4.447515625,0.0825859287500381,-0.007223421048047,-0.0023333063523517,0.0009408581536263,0.0031200398225337,-0.0012602428905665
1772808546066564600,4.467564697265625,0.0649298605501651,-0.0005047255185898,0.0017829926929436,-0.0003485961351543,0.0017864786786958,-8.85669142007e-05
1772808546086613800,4.48761376953125,0.0888742152392864,0.0028808526659384,-0.008173223453015,-0.000148432329297,-0.0011332138674333,-0.0010904404334723
1772808546106662400,4.507662353515625,0.0789963798254728,-0.0006630852849222,0.000272163438308,-0.0006509271916002,-0.0017388905398547,0.0008427063003182
1772808546126711600,4.527711669921875,0.0881219355672597,0.0003330130803398,-0.0042544928064337,-0.0007517125923186,0.0004836947773583,0.0004647853784263
1772808546146760700,4.5477607421875,0.0819891319006681,0.0048396585835143,-0.0032490603572456,-0.000280822161585,-0.0009481862653046,-0.0003184117376804
1772808546166809600,4.5678095703125,0.074355860543251,-0.0018341200919821,-0.0012341540379915,0.0006226466502994,-0.0004500815120991,0.0001373016275465
1772808546186858800,4.587858642578125,0.0902209536731243,0.0002981061637401,0.0054638411967316,0.0018081162124872,-0.0026662051677703,-0.0018768887966871
1772808546206907400,4.607907470703125,0.0795972683280706,0.0018063827016856,-0.0006105696463957,0.0009527141228318,0.0006135486764833,0.003479829756543
1772808546226956500,4.62795654296875,0.083638068151474,-0.0047898098261095,-0.007458503878978,0.001316653098911,-0.0001690496574155,0.0003844653256237
1772808546247005700,4.648005615234375,0.0842372030884027,0.0051604058373253,-0.0017190423449501,-0.0015629264526069,0.0010939741041511,-0.0013229087926447
1772808546267054600,4.6680546875,0.0861795693278312,0.0058380493705626,0.0036678657246287,-0.0016061395872384,0.0030057032126933,3.18274833261e-05
1772808546287103700,4.688103759765625,0.0846831932902336,-0.0058815962513443,0.0002617379424162,-0.0016975088510662,0.0020038532093167,0.0009006434120237
1772808546307152400,4.70815234375,0.0780997232466936,-0.0007118928627111,0.0015084363681497,0.0001701617147773,-0.0015177649911493,-0.0004936014302074
1772808546327201500,4.728201416015625,0.0879746360510587,0.0032431649059988,-0.0046120558061404,-7.73384235799e-05,-0.0002211866085417,0.0017125788144767
1772808546347250700,4.748250732421875,0.0821381849825382,-0.0011571250127162,-0.0008727140141883,0.0001996054779738,-0.0007633537752553,-0.001203638035804
1772808546367299600,4.768299560546875,0.0834843388944864,-0.000892610591324,-0.0014988282895879,0.0013638806995004,0.0020085310097783,9.4823539257e-05
1772808546387348700,4.7883486328125,0.0897685337305068,-0.0030806586875114,0.0002196341000497,-0.0029415569733828,0.0009076832793653,0.0006346078589558
1772808546407397600,4.808397705078125,0.0786924284428358,0.0038789603251963,-0.0145470510675571,-0.0015590034890919,0.0006974470452405,0.0010459441691637
1772808546427446500,4.828446533203125,0.0762993958264589,0.0079699103001039,-0.0012819615353597,0.001121322857216,-0.0017711652908474,0.001782440347597
1772808546447495700,4.84849560546875,0.0797422297567129,0.0013210560033097,-0.0068898736781673,0.0014325452502816,0.0010098244529217,-0.0009664744138717
1772808546467544600,4.868544677734375,0.0761520963102579,-0.0051842799032572,0.0020624763546045,-0.0045313169248402,0.0047602392733097,-0.0011418000794947
1772808546487593700,4.88859375,0.0774959121346473,-0.0102270963760558,0.0049921548646409,-0.0002653743140399,0.0001472991425544,-0.0006564673967659
1772808546507642600,4.908642578125,0.0813864898324012,-0.0027815113441552,-0.0048019980208249,0.0012279411312192,-3.66175663657e-05,0.0012382129207253
1772808546527691500,4.92869140625,0.0935042131274938,0.0065062492220196,-0.0023678022769978,-0.002062757499516,0.000193799554836,0.0001732152886688
1772808546547740700,4.94874072265625,0.0774953276127576,0.0009795399561058,0.0063326370876282,-0.0006564646027982,-0.0012188985710963,-0.0001322734169661
1772808546567789600,4.96878955078125,0.0870727187752723,0.0049097464113496,-0.0008904369005467,-0.003011085325852,-9.02674510143e-05,7.79968686401e-05
1772808546587838700,4.988838623046875,0.0800368287891149,-0.0072745027813129,0.0023650029651355,0.0006979941390454,-0.0008433481561951,-0.0013539851643145
1772808546607887600,5.0088876953125,0.0804874951660633,0.0063954366581514,-0.0090723368503618,0.0013853360433131,0.0005252241389825,0.0003656442277133
1772808546627936500,5.0289365234375,0.0839303290963172,-0.0045049010706599,-7.1142707183e-05,-0.002680818317458,0.0031468088272958,-0.0011877319775521
1772808546647985700,5.048985595703125,0.0848281547188758,0.006740313706221,-0.0042457797770155,0.0021800845861434,-0.0007788096554577,0.0011593147646635
1772808546668034600,5.06903466796875,0.08138882791996,-0.0002456818567588,-0.0126442998858867,0.0012715440243482,0.0020427787676453,-0.0021688030101358
1772808546688083700,5.089083740234375,0.0873749165922403,0.0049749845341313,0.0052303521012654,0.0002206591889262,0.0014003840042278,-0.0013915034942328
1772808546708132600,5.109132568359375,0.0824327840149402,-0.0007875884474255,-0.0029706635409733,0.00176308513619,-0.0025324556045234,0.0001085544936358
1772808546728181500,5.129181396484375,0.0807861858516931,0.0018965178037062,-0.0110461257079383,-0.0022940556518733,-0.000104892096715,0.0015609438996762
1772808546748230700,5.149230712890625,0.0801864663928747,-0.0047865492899436,6.18588556069e-05,0.000237779924646,-0.0008643519831821,0.0001842188648879
1772808546768279600,5.169279541015625,0.0809364079773426,0.005362358150212,-0.0049143403880763,-0.0003757609520107,0.0039026162121444,0.0001382105983793
1772808546788324600,5.18932470703125,0.0762953041732311,-0.0009575199205428,-0.001378425913467,-0.0011096936650574,0.0011446406133472,8.71326774358e-05
1772808546808373800,5.209373779296875,0.0813864898324012,-0.0008774221553467,-0.0013006434029433,-0.0006070723757147,-0.002968540880829,0.0002865702845156
1772808546828422700,5.229422607421875,0.0822843154549598,0.0047675157959107,-0.0076525103474268,0.0021370905451476,-0.000221153779421,-0.0003738589584827
1772808546848471600,5.249471435546875,0.0876730227559804,-0.0042546800361014,-0.0050186866785399,0.0039536552503705,-0.0031739887781441,0.0001893369480967
1772808546868520400,5.2695205078125,0.0752554397314786,0.0048107247499749,-0.0125623891895171,0.0004984966944903,-0.000786819960922,-0.0033123260363936
1772808546888569600,5.289569580078125,0.0827396580070257,-0.0004014843398239,-0.0050619412983767,0.0019817873835563,0.0007474159356206,0.0009319907985627
1772808546908618800,5.30961865234375,0.0849888982385397,-0.0025692750992719,-0.0026190188253996,1.28354877233e-05,-0.0002652231487445,0.0014761993661522
1772808546928667600,5.329667724609375,0.0770592742830514,-0.0005281246604863,3.67746467003e-05,-0.0013064327649772,0.0018849541665986,0.001545128878206
1772808546948716500,5.349716552734375,0.0800514418363571,0.0004419168149121,-0.0065718435378279,-0.0004870265256613,0.0007669902988709,0.0003353483043611
1772808546968765400,5.369765380859375,0.091573537325859,0.0078257343227509,-0.0005061594238504,0.0005117708351463,-0.000458545400761,0.000778873451054
1772808546988814600,5.389814697265625,0.0805026927351951,0.0029770247831009,-0.006208672781242,0.0001069926656782,0.0020989349577575,0.0017550159245729
1772808547008863700,5.40986376953125,0.0846884539872407,-0.0025653661091346,-0.0014799546257592,-0.0020475583150982,0.0008074643556028,0.002202489413321
1772808547028912600,5.42991259765625,0.0882774183899164,0.0027792280555237,-0.0135395956246415,0.000175995286554,-0.0006087378133088,0.0010229246690869
1772808547048961500,5.44996142578125,0.0815419726550579,-0.0009109590987674,-0.0099018601767951,-0.0001084338873624,-0.0007718212436884,0.0004125656560063
1772808547069010400,5.470010498046875,0.0818430014282464,0.0041584531200118,-0.0034336870759958,0.0017892513424158,-3.30374750774e-05,0.000174397137016
1772808547089059600,5.4900595703125,0.08513736679852,0.0018365586442407,-0.010347434820095,0.0025482305791229,-0.0010368863586336,-0.0013018152676522
1772808547109108700,5.510108642578125,0.0897767170369625,0.005539623546414,-0.0032023488384205,-0.0030537799466401,-0.0032874019816517,-7.88467004895e-05
1772808547129157600,5.53015771484375,0.083041271302104,0.0082850406638812,-0.0032429046110948,0.0001548575237393,0.0003236142511013,-0.0001358627341687
1772808547149206500,5.55020654296875,0.0725683926045894,0.0009606343262363,-0.0011428864248096,-0.000917141791433,0.001028987695463,-0.0020498344674706
1772808547169255400,5.57025537109375,0.0743628748059272,0.0026910383154172,-0.0065088658707914,-0.0014002642128616,0.0014500184915959,0.0008842828683555
1772808547189304600,5.5903046875,0.0737672470003366,-7.07636812701e-05,-0.0040870866505429,0.0019313513766974,0.0010326525662094,0.0018773656338453
1772808547209353700,5.610353759765625,0.0974140800476074,0.0110650541706942,-6.74255132908e-05,2.16199550777e-05,0.0028442649636417,0.0009481569286435
1772808547229402600,5.630402587890625,0.0867892256587743,-0.0002744330272078,-0.0031637247279286,0.000895065953955,7.0190464612e-05,0.0006206571124494
1772808547249451500,5.650451416015625,0.0860416221618652,-0.0080462543387897,0.0031584366314578,-0.0012630652636289,0.0006636524340137,0.0004813796840608
1772808547269500400,5.67050048828125,0.0769131438106298,-0.0081642181626521,-0.0002702820084756,0.0007714265957474,0.0006186601240187,0.0030766681302338
1772808547289549600,5.690549560546875,0.0784136115014553,0.0017465148737654,-0.0013772842691512,0.0018132729455828,-0.0022775204852223,0.0006311754696071
1772808547309598700,5.7105986328125,0.0761684629231691,0.0056762920707464,-0.0053263917876873,0.0014161618892103,-0.0015566223300993,-0.0005234396085143
1772808547329647600,5.730647705078125,0.0812596485823392,0.0068271608726121,-0.0075859433506615,0.0031741675920784,-0.0020068413577973,0.0012655849568545
1772808547349696500,5.750696533203125,0.0784165341109037,-0.0008012516465969,0.0040686331118224,-0.0008697835728526,0.0012401377316564,-0.000996318180114
1772808547369745400,5.770745361328125,0.0878431186258792,0.0001770188010297,0.0041720523871015,0.0007589340675622,-0.0012620271882042,-0.0015221070498228
1772808547389794600,5.790794677734375,0.087093761563301,0.0004232943128328,0.0077452118658693,0.0007476431783288,0.0009548123343847,0.001190356677398
1772808547409843700,5.81084375,0.0909855083048343,-0.0024728655200917,-0.009492009867425,0.002044400665909,-0.0019254697253927,0.0028051305562257
1772808547429892600,5.830892578125,0.0909837547391653,0.0049149157768115,-0.0001146530553465,0.0008598398417234,-0.0019262379501014,-0.0011483184061944
1772808547449941800,5.850941650390625,0.0838034878462553,0.0044066831268835,0.0004410719981184,0.0026972780469805,0.0005945769953541,0.0036705392412841
1772808547469990400,5.870990478515625,0.0852975257962942,-0.000188024252234,-0.004373306013667,-0.0026027271524071,-0.0028131217695772,-0.0001711272634565
1772808547490039600,5.89103955078125,0.1041501103043556,0.0034020452621392,-0.004437767818314,0.0005027090664952,-0.0018937967251986,0.0002757674083113
1772808547510088700,5.911088623046875,0.0784118579357862,0.0030748408680781,0.0020311405014246,-0.0004271266516298,-0.000398904638132,0.0027318764477968
1772808547530137600,5.9311376953125,0.0896335091739893,0.0051580860160756,-0.0051159547742456,0.0005894028581678,0.0007777118589729,-0.0004963208921253
1772808547550186800,5.951186767578125,0.0695838238358497,0.0032985848876647,0.0033656222418881,-0.0008582018781453,0.0002494127838872,-0.0011000074446201
1772808547570235400,5.9712353515625,0.0849941589355468,-0.0002337082911748,-0.0006355533906025,-0.0035026420373469,0.0018730864394456,0.0001661465503275
1772808547590284500,5.991284423828125,0.0731727882385253,-0.0036417175032198,-0.0069338178511708,0.0012784725986421,0.0007746609626337,0.0013031037524342
1772808547610334700,6.011334716796875,0.0848433522880077,-0.0007486629428341,-0.0003719340183539,0.0021469148341566,0.0001493974705226,0.0007454175502061
1772808547630383600,6.031383544921875,0.0779629451245069,-0.003289844458783,-0.0062375335495453,0.0007191530894488,0.0008075818186625,0.0016725764144212
1772808547650432500,6.0514326171875,0.0911287161678075,0.0054465841012541,0.0005137856078799,-0.0015938743017613,-0.000100646429928,-0.0029246513731777
1772808547670481700,6.071481689453125,0.0790092393070459,0.0024436394256073,-0.0011773823494557,0.002697559306398,-0.000985303078778,0.0032548988237977
1772808547690530600,6.091530517578125,0.0812573104947805,0.0008044573838356,-0.015089656344545,-0.0003700922243297,0.0015692019369453,-0.0018529146909713
1772808547710579700,6.111579833984375,0.079012746438384,0.0079779566092416,-0.0098881284789647,-0.0019692792557179,0.0006911330856382,0.0004203263670206
1772808547730628600,6.131628662109375,0.0821568896830081,-0.0021836915814783,-0.0105760513776214,-0.0008534039370715,0.0018671629950404,0.0004445100203156
1772808547750677500,6.151677490234375,0.0830541307836771,0.00369377648402,-0.0044739579431246,0.0001666285097599,-8.03709262982e-05,0.002078958787024
1772808547770726700,6.1717265625,0.0818552763879299,0.0035745979506056,-0.0040121034518815,-0.0019082525977864,0.0018302230164408,0.0010839651804417
1772808547790775600,6.191775634765625,0.0851437965393066,-0.0013447382729966,-0.0084653930663131,0.0002743238583207,-0.0022635660134255,-0.0019886107183992
1772808547810824400,6.211824462890625,0.0830506236523389,0.0059775491727981,-0.0061915572496596,-2.51061283051e-05,-0.0010150289162993,0.0014722577761858
1772808547830873600,6.23187353515625,0.0734685563147067,0.0043121915101539,0.0005790237306617,-0.0018725952832028,-0.0029294264968484,0.0009959160815924
1772808547850922500,6.251922607421875,0.0929185221940279,-0.0029013017989229,0.0053714730384293,0.0002349913120269,0.0020383801311254,1.08513049781e-05
1772808547870971400,6.271971435546875,0.07900164052248,-0.0014891425792127,-0.0045468724822858,-0.0001971258316189,0.0002505364827811,6.16121105849e-05
1772808547891020500,6.2920205078125,0.0785544812768697,0.0024498956364579,0.0016014164478052,0.0008323499932885,-0.0003278997901361,-0.0004963390529155
1772808547911069400,6.3120693359375,0.081849431169033,-0.0006370740608312,-0.000493884464167,-0.0010079396888613,0.0020318627357482,0.0003016795963048
1772808547931118600,6.33211865234375,0.0814022719234228,0.0025070326511748,-0.008662057282729,0.0007702563889324,-0.0012268170248717,-0.0008336193859577
1772808547951167500,6.35216748046875,0.0851443810611963,0.0086697930646128,-0.0011843600795138,0.0006875412072986,0.0001720489817671,0.0005755610764026
1772808547971216400,6.37221630859375,0.0752682992130518,0.0039444815757684,-0.0002208762090653,0.0018716030754148,0.0003976997104473,0.0001789052039384
1772808547991265500,6.392265625,0.0764665690869092,0.0003819119896739,0.0009152699477039,0.000847796909511,0.0001319434377364,-0.0020155943930149
1772808548011314400,6.412314453125,0.0830471165210008,-0.0010303294284269,0.0005704842311795,0.0011901191901415,-0.0007805647910572,0.0013273009099066
1772808548031363600,6.432363525390625,0.0794563985526561,-0.0023280136893037,-0.0035107480673119,0.0008488809689879,-0.0009075774578377,-0.0002083564177155
1772808548051412500,6.45241259765625,0.0837912128865718,-0.0010443488206248,-0.0052901194644859,0.000401166267693,-0.0012052971869707,-9.76421870291e-05
1772808548071461400,6.47246142578125,0.0785515586674213,0.0092714761516544,-0.0008051789030432,-0.0007757584098726,0.0007409865502268,-0.0019521922804415
1772808548091510500,6.492510498046875,0.088130703395605,0.0009214439601637,-0.0019337810741737,-0.0005274205468595,0.0004731637309305,-0.0018064975738525
1772808548111559400,6.512559326171875,0.0911246245145797,-0.0025925829096231,-0.003357585065905,-0.0009486896451562,0.0036981888115406,-0.0009430614300072
1772808548131608600,6.532608642578125,0.0794546449869871,-0.0036897122302558,-0.005997884141351,0.001075989101082,0.0009942718315869,0.0007444862276315
1772808548151657500,6.552657470703125,0.0767605835974216,0.0104606585367582,-0.0046823308636434,0.0030048012267798,-0.0014443378895521,-0.0012152125127613
1772808548171706400,6.572706298828125,0.0836433288484811,-0.0003555171730928,0.004614512624708,-0.0017586115282028,5.23275521118e-05,-0.0021523367613554
1772808548191755500,6.592755615234375,0.077505849006772,-0.0018118169286288,-0.0027169125421904,0.0008454679045826,-0.0010506773833185,-0.0004513477906584
1772808548211804400,6.612804443359375,0.083041271302104,-0.0019604316190816,-0.0029294456145958,0.0014743683859705,-5.9623416746e-05,0.0008692035917192
1772808548231853600,6.632853515625,0.0891775821000337,-0.0025717136515304,0.0021644891240866,0.0021612215787172,-0.001017082715407,-2.11801379919e-05
1772808548251902500,6.65290234375,0.0739139619946479,0.0079869436332955,0.0025611557248979,-4.83111944049e-05,0.0001771195675246,-0.0007333755493164
1772808548271952400,6.672952392578125,0.0789963798254728,-0.0019350688489619,0.0019313014227198,-0.0030368568841367,-0.0005529561312869,0.0001506321132183
1772808548292001500,6.69300146484375,0.0819838712036609,0.0053705597229767,-0.0006361470456467,-0.0015001818537712,-1.85193785e-05,0.0007030302658677
1772808548312050700,6.71305078125,0.0855728356063365,0.0011832641009707,-0.0049227839894359,-0.003099987283349,-0.0003990427940152,0.0008861371316015
1772808548332099300,6.733099365234375,0.080929978236556,-0.0062407666862476,0.0011933882027631,0.0008011253084987,-0.0004481716896407,-0.0005829324945807
1772808548352148500,6.7531484375,0.0815291131734848,0.0029031375629827,-0.002056585469935,-0.0030135111883282,0.0034194050822407,-0.0005240398459136
1772808548372197400,6.773197265625,0.0785363610982894,-0.0020675178559031,-0.0114183839532779,0.0001973821781575,-0.0008923877030611,-0.0009313183836638
1772808548392246500,6.79324658203125,0.0833218418091535,0.001643976947898,0.0009454002244863,0.0015221680514514,0.0002775379107333,0.0019053395371884
1772808548412295700,6.813295654296875,0.0735948130428791,0.0007992149531375,0.0045141209901543,0.0017566743772476,-0.0005829673609696,-0.0006693163886666
1772808548432344300,6.83334423828125,0.0818248812496662,0.0049614583322778,-0.0046312856629956,-0.0024125857744365,0.0004292337107472,0.0020034527406096
1772808548452393500,6.8533935546875,0.0767354491561651,0.0043435547627974,0.0099275334741687,-0.0009088108781725,-0.0030709109269082,0.0002955235540866
1772808548472442400,6.8734423828125,0.0840665226966142,-0.00097232476403,-0.0124707105843815,-0.0012913881801068,-0.0005512218922376,0.0010151944588869
1772808548492491500,6.893491455078125,0.0765858115524053,-0.0037136593614239,0.0062862954615615,-0.000628394074738,-0.0008283064235001,0.0002967030741274
1772808548512540700,6.913540771484375,0.0840676917403936,-0.0054740657632239,0.0037883365994086,-0.0003759902901947,-0.0010110477451235,-0.0007817572914063
1772808548532589300,6.93358935546875,0.0837672474890947,0.0005021865016315,-0.0059715030245017,-0.0003121583722531,-0.0006527572986669,0.0018266146071255
1772808548552638500,6.953638427734375,0.0852647925704717,0.0007893968120217,0.000688224292756,0.0002991780638694,0.0011483799898996,-0.0018157456070184
1772808548572687400,6.973687255859375,0.0747901603072881,0.0076146762548014,-0.0006620304055744,0.0008798888884484,0.0028428467921912,-0.001810357440263
1772808548592736500,6.993736572265625,0.0812239927470684,0.0031390286780893,0.0042313676591729,-0.0013017209712415,0.002049186034128,-0.0004945052787661
1772808548612785700,7.01378564453125,0.0813753839164972,0.0029173213519621,0.0020571471589384,0.0006934511475265,-0.00190528226085,-0.0012214863672852
1772808548632834600,7.03383447265625,0.0858627584636211,-0.0001979793906677,0.0017598903785692,-0.000733190216124,-0.0013660002732649,-0.0006753010675311
1772808548652883500,7.053883544921875,0.0804740511626005,-0.0035833109800238,0.0017787868752842,-0.0001165810972452,0.001243210863322,0.0018734289333224
1772808548672932400,7.073932373046875,0.0809182877987623,0.0012400540558155,0.0021158916088519,-0.0021422817371785,0.0011661746539175,-0.0006489055231213
1772808548692981500,7.0939814453125,0.0858574977666139,0.0028030290562193,-0.0058197876280872,-0.0002227390650659,-0.0002103135630022,-0.0008418117649853
1772808548713030700,7.11403076171875,0.0786725546985864,-0.0029995106095448,-0.0037424607642227,-0.0027921800501644,0.0017896406352519,0.0016926741227507
1772808548733079600,7.13407958984375,0.0845101748108863,0.0044662860933225,-0.0004388480749912,0.0022142995148897,-2.78929946944e-05,-0.0010569989681243
1772808548753128400,7.15412841796875,0.0747825615227222,-0.0081388462593778,0.0022428241904592,-0.0013460235204547,-0.0029538904782384,8.6230225861e-05
1772808548773177300,7.17417724609375,0.0704424864917993,-0.0085570899377577,-0.0004030780752887,4.35372348874e-05,-0.0008918167441152,0.0028114062733948
1772808548793227300,7.194227294921875,0.0830108761638402,0.0014557243668008,-0.0054977297666016,-0.0015420119743794,-0.0005959531408734,0.0013475448358803
1772808548813277000,7.21427685546875,0.0842062234282493,-0.0012798198106233,0.0040734006184851,-0.0018368156161159,-0.0017171474173665,0.0001981616951525
1772808548833326000,7.234326171875,0.0871948838502168,-1.84124395251e-05,0.0030007892511785,-0.000123995821923,-0.002316303551197,-0.0009132921695709
1772808548853375200,7.254375244140625,0.0683405457764863,-0.007966476234002,0.0011040842178044,0.0012000112328678,0.0005465578287839,0.0005570943467319
1772808548873424100,7.274424072265625,0.0777665457695722,-0.00383637242564,-0.0008430221288232,0.0009918063879013,-0.000899254810065,0.0001210635527968
1772808548893473000,7.29447314453125,0.0832972918897867,-0.003907273104228,0.0003935978608904,-0.0025460685137659,0.0032220168504863,-0.0012674746103584
1772808548913522000,7.31452197265625,0.0856903245061636,-0.0058925012378487,6.80831004166e-05,0.000465739518404,-0.0028689536266028,0.0009153618011623
1772808548933571000,7.334571044921875,0.0906266118645668,0.0033880989351775,0.0014897819000296,-0.0027263863012194,0.0001181518600787,-0.0008359681814908
1772808548953620200,7.3546201171875,0.0789537097275257,-0.0013637443675659,0.0033279571126215,0.0004421612247824,-0.0002173026441596,0.0019498639740049
1772808548973669000,7.374669189453125,0.0761105952560901,0.0019240085988305,-0.0088805223389994,0.000474099535495,0.000284390465822,-0.0013218824751675
1772808548993718300,7.39471826171875,0.0816483556389808,-0.0087879304184112,0.0031658299200469,-0.0020548601169139,0.0021478913258761,-0.0007159165106713
1772808549013767000,7.414766845703125,0.0773065270423889,0.0020228384639602,-0.0063625025029294,0.0019157980568706,0.0004206912126392,0.001415092498064
1772808549033816000,7.434816162109375,0.0861386527955532,-0.0036506040625739,-0.0061812413516221,-0.0001288307830691,0.00108861643821,0.0005974182859063
1772808549053865200,7.454865234375,0.0841951175123453,0.0042018447371665,0.0037125588163034,0.0014178100973367,-0.0001296671689487,-0.0013056155294179
1772808549073914000,7.4749140625,0.0767120682805776,-0.0068128492194693,-0.0004993597903056,0.0015210057608783,-0.0012425618479028,0.0007575158961117
1772808549093963300,7.49496337890625,0.0764157156825065,0.0080120689413975,0.0007605588766047,-0.0027715810574591,-0.0011595925316214,-0.0020802384242415
1772808549114012000,7.515011962890625,0.0940706148386001,-0.0042525702774059,-0.0011730715005192,0.0003781854175031,-0.0005731143173761,0.0008948615286499
1772808549134061000,7.53506103515625,0.0713227764576673,-0.0029573063024785,-0.00346990460027,0.0001919325441122,-0.001915234606713,0.0010020749177783
1772808549154110200,7.555110107421875,0.0859849235385656,-0.0013432587019633,-0.0014931429008953,0.0002733352594077,0.0010384540073573,0.0017642322927713
1772808549174159000,7.5751591796875,0.0814975489914417,0.0077274707132019,0.0004406427398556,-0.0022416762076318,0.0007335034315474,0.0017404241953045
1772808549194208300,7.595208251953125,0.0765577545017004,-0.0053734366666525,-0.0010763559606624,-0.0013108935672789,-0.0007224263390526,0.0015711083542555
1772808549214257200,7.615257080078125,0.0696750092506408,-0.0038293672961182,0.0041842816810123,-0.0011048628948628,-0.0006247979472391,-1.50729902088e-05
1772808549234306000,7.63530615234375,0.074160045710206,0.0053045270157512,0.0040497457482619,-0.0013706572353839,0.0012607051758095,0.0017851127777248
1772808549254356200,7.655356201171875,0.080743515753746,-0.0044602399450261,-0.007825076735625,-0.0009204819798469,-0.000731588806957,0.0003854036331176
1772808549274405000,7.675405029296875,0.0820879161000251,-0.0024344058063812,0.0022024008485255,-0.002390609588474,0.0003220155776944,0.0002198102883994
1772808549294454000,7.6954541015625,0.076849430924654,-0.0020234686516225,-0.0028725277955876,-0.0024887339677661,-0.0003577577881515,-0.0002605547197163
1772808549314503200,7.715503173828125,0.0835796159625053,-0.0040319680629763,0.0014175660471897,-0.0015031085349619,-0.0006127861561253,-0.0017824624665081
1772808549334552000,7.735552001953125,0.0810340231329202,-0.0037488585389684,-0.0034080000788904,0.0022354933898895,-0.0013961181975901,-0.0002232152037322
1772808549354601200,7.755601318359375,0.0777402422845363,-0.0034531269954051,-0.0023521343504078,3.21834813803e-05,0.0028889644891023,0.0005531571805477
1772808549374650000,7.775650146484375,0.0852209534287452,0.0003527954930439,-0.0071581418260699,0.0012727214489132,0.0016368413344025,-0.0012874482199549
1772808549394699000,7.795698974609375,0.0744487995237112,-0.0005392488426994,0.0126026024688966,0.0018228508997708,-0.0001546946587041,0.0003959275782108
1772808549414748200,7.815748046875,0.0879191064715385,-0.0021329569080844,0.0009166810200782,0.0027700120117515,-0.0010639267275109,0.0026351634878665
1772808549434797000,7.835797119140625,0.0654711278200149,-0.0027423757770098,0.0004183213101932,-0.0008739784825593,-0.0021775406785309,0.0017749103717505
1772808549454846200,7.85584619140625,0.0801332749009132,-0.009415332468599,-0.0011896984083345,0.0002403219696134,-0.0036450088955461,-0.0011077588424086
1772808549474895400,7.875895263671875,0.0804290429770946,1.79923144169e-05,-0.0057558098806301,-0.0023353151045739,0.0011572558432817,0.0005836889613419
1772808549494944000,7.895944091796875,0.0713011491477489,-0.0054168100174982,0.0076435963886091,-0.0009501373860985,0.0009832375217229,-0.0001298277638852
1772808549514993200,7.9159931640625,0.0742939012229442,-2.00107415672e-05,0.0005894766260171,-0.0010335193946957,0.00266008451581,-0.0003286679275333
1772808549535042000,7.9360419921875,0.0781874015301466,0.0026107670202851,0.0014153969229897,-0.0013476745225489,0.0009594579460099,0.0013262233696877
1772808549555091200,7.95609130859375,0.0841740747243166,-0.0049757060533389,0.0018035651235142,-0.0002381284721195,0.0017626198241487,0.0006709746085107
1772808549575140400,7.976140380859375,0.0880658214658498,-0.0037273316937498,0.0057430143311386,-0.0002172403037548,0.0001952082966454,-0.0002235709689557
1772808549595189000,7.99618896484375,0.0802852505922317,0.0026612002995796,-0.0022287636990658,0.0011287464294582,0.0007215886726044,0.000660557532683
1772808549615238100,8.016238037109375,0.0822311239629983,0.0013560542514547,-0.0055947649668669,-0.0004296090919524,0.0002945301239378,-0.0001338212750852
1772808549635287000,8.036287109375,0.0823819306105375,-0.0041490459708496,0.0011871685245307,0.0021053696982562,0.0010053592268377,-0.0003678230568766
1772808549655336200,8.056336181640624,0.076547233107686,0.0022222608930431,-0.0018507515663746,0.0014587889891117,-0.0002724191872403,0.0026038861833512
1772808549675385300,8.07638525390625,0.0856774650245904,-0.0048456407997291,0.000200586906285,0.0025605326518416,-0.0016341940499842,-0.0003587836399674
1772808549695435000,8.09643505859375,0.0855284119427204,-0.0047210645719897,0.0016132530160713,-0.0017445306293666,0.0009368456667289,-0.0007329536601901
1772808549715484200,8.116484130859375,0.0792430480629205,-0.0025367062702309,0.0032988132165279,-0.0013662683777511,-0.0014549670740962,-0.0003890958614647
1772808549735533300,8.136533203125,0.0696662414222955,0.002029533066228,0.0004736819263547,-0.0009260764345526,0.002081625862047,0.0019377337303012
1772808549755582200,8.156582275390624,0.0726566554099321,0.0001577935107517,0.0082952606637962,0.0001224295701831,-0.0008538932306692,-0.0005659298039972
1772808549775631000,8.176631103515625,0.0802875886797905,-0.005977147313999,-0.0024525807838886,-0.0016613872721791,0.0022406594362109,0.000646115746349
1772808549795679700,8.1966796875,0.0849216782212257,-0.0011803323583677,-0.0097242705536074,-0.0012988920789211,0.0017883817199617,-0.0005920142866671
1772808549815728600,8.216728759765624,0.0722024819016456,-0.0036707426683045,-0.0101046710062073,-0.0001625984441488,0.0004864635411649,0.0007614507339894
1772808549835777800,8.23677783203125,0.0750461808949708,-0.0084367697600275,-0.0006208764112787,0.0013052583672106,-0.0008033785852603,0.0008379938080906
1772808549855826700,8.25682666015625,0.0760936441212892,-0.0036211405060719,0.0062529092151904,-0.0004628184251487,0.0017942406702786,0.0022777202539145
1772808549875875600,8.27687548828125,0.0846247411012649,-0.0070404839628841,0.0060503130149096,-0.0001101216766983,-0.0003037616552319,-0.0010192114859819
1772808549895924700,8.2969248046875,0.0780424401015043,-0.0010701134495437,0.0069994760990608,0.0028968097176402,-7.20570387784e-05,0.0006018460262566
1772808549915973600,8.3169736328125,0.0780436091452836,-0.0044405853964854,-0.0075386062107514,0.0023910193704068,0.0010779337026178,-0.0012995856814086
1772808549936022800,8.337022705078125,0.0828343505531549,0.0009486242280341,-0.005029897625721,0.0009818687103688,0.0010056450264528,0.0002638869918882
1772808549956071700,8.35707177734375,0.0820861625343561,0.003523954608757,0.0028536586983362,-0.0028198920190334,0.0025357739068567,-0.002285735681653
1772808549976120800,8.377120849609375,0.0749023885101079,-0.0038032738736364,0.004163106462243,-0.001015251269564,0.0008264934876933,0.0009969042148441
1772808549996169700,8.397169677734375,0.0867255127727985,-0.0039770047390367,-0.0005405046514468,0.0030660652555525,0.0020749641116708,-0.0008085006847977
1772808550016218600,8.417218505859376,0.0728138917982578,-0.0063785768548958,0.0022562407944584,-0.0011146736796945,-0.0001052420120686,0.0006536995060741
1772808550036267800,8.437267822265625,0.083884151867032,-0.004204283289425,-0.0018725615393836,7.9195946455e-05,0.0007256545359268,-0.0001094420440495
1772808550056316700,8.457316650390625,0.0758043057858944,-0.0071024524163454,-0.0056624644747935,-0.0019280100241303,8.86333873495e-05,0.0014282364863902
1772808550076366600,8.47736669921875,0.0826858819931745,-0.0105229101180098,-0.0031770043346099,0.0004730892833322,0.0009841417195275,0.0015589164104312
1772808550096415700,8.497415771484375,0.0903168152630329,-0.0117447435305453,-0.001597891050158,-0.0003329382743686,-0.0008130490314215,-0.0021366286091506
1772808550116464600,8.517464599609376,0.0819394475400447,0.0029206732196733,0.0001290834394982,-0.0001168800517916,-0.0002966358151752,-0.0018783649429678
1772808550136513800,8.537513671875,0.0805921245843172,0.0014294026154559,-0.0012558635463006,0.0016562968958169,0.0001165002177003,0.0004598516970872
1772808550156562700,8.557562744140625,0.0799941586911678,-7.25081137847e-05,-0.0011743821081938,-0.0020426057744771,0.000728884129785,-0.0002185311168432
1772808550176611600,8.577611572265624,0.0762538031190633,-0.0099134821159299,-0.0091595219434704,0.0012872510123997,-0.001172337681055,-0.0023266235366463
1772808550196660700,8.59766064453125,0.0747597651690244,-0.0017093886006157,0.0019000523345079,-0.0020761168561875,0.000963975500781,0.0010353056713938
1772808550216709600,8.617709716796876,0.0717658440500497,-0.0014249273697379,-0.0042427247368264,0.0003741607069969,-5.61184133403e-05,0.0025343385059386
1772808550236758800,8.6377587890625,0.0813408971250057,-0.0034937330004293,-0.005248563611391,0.0001968410797417,0.0005161591107025,0.0002354262396693
1772808550256807700,8.6578076171875,0.0759545279115438,-0.0042628907420206,-0.0012061974519863,0.0007739376742392,-0.0005923928692936,-0.0013857684098184
1772808550276856600,8.677856689453124,0.0714659843206405,0.0006687843733467,-0.0038535701556131,-0.0030232628341764,-0.0005543555016629,-0.0013585449196398
1772808550296905700,8.69790576171875,0.0732575439125299,-0.0106980566223617,-0.0019962746840203,2.38956417888e-05,0.0002618289145175,-0.0001576384529471
1772808550316954600,8.71795458984375,0.0877712224334478,0.0047311019088141,0.0054851534128189,-0.003030574414879,8.79869621712e-05,-0.0006444947794079
1772808550337003800,8.738003662109374,0.0704126758754253,-0.0062489591258578,-0.0014317863687872,-0.00167095544748,-0.0003924094780813,-0.0001372555270791
1772808550357053000,8.758052978515625,0.0802905112892389,-0.0038062056162394,-0.0064901977029396,-0.0004785871133208,0.0025120303034782,-0.0031111552380025
1772808550377101600,8.7781015625,0.0798398449122905,-0.011065693491511,-0.000672798394761,-0.0018049646168947,-0.0006699180230498,0.0003326390869915
1772808550397150700,8.798150634765625,0.0768465083152055,-0.0086725512772798,0.0010701728150481,0.0017662590835243,-0.0006726939463987,-0.0023592025972902
1772808550417199600,8.81819970703125,0.0790881497621536,-0.0078669248496647,-0.0040221088226651,0.0008176648989319,-0.0020761385094374,0.0017225823830813
1772808550437248800,8.838248779296874,0.0729547615736723,0.0028653902353253,0.0052784838256193,0.0011873021721839,3.62847640644e-05,0.0001674680970609
1772808550457298000,8.8582978515625,0.0792389564096927,-0.0038418157857377,0.0003306612930493,-0.0016595360357314,0.0005799176869913,0.0011385667603462
1772808550477347600,8.87834765625,0.0828308434218168,-0.0042964459517505,0.0023617789615876,-0.0006289340090006,0.0014526320155709,-0.0012482735328376
1772808550497396700,8.898396728515625,0.0757967070013284,-0.0026226218548603,-0.0004867286375956,-0.0018041462171822,0.0008888531592674,-0.0024288767017424
1772808550517446000,8.91844580078125,0.0910585735410451,-0.0121321810787077,0.0027494539717677,-0.0001674070954322,0.0036001866683363,-0.000384107697755
1772808550537494800,8.938494873046874,0.0766933635801076,0.0050651287693064,0.0102904074032325,0.0012304126285016,-0.0033513908274471,0.0004914458841085
1772808550557543700,8.958543701171875,0.0744499685674905,-0.0033177371127065,-0.0018431025494588,-0.0016131550073623,0.0003869077190756,0.0003553060814738
1772808550577592600,8.978592529296876,0.0841793354213237,-0.0026502131146844,-0.0034372261733748,0.0021232629660516,-0.0009083867189474,-0.0002818754874169
1772808550597641700,8.998641845703125,0.0755026924908161,0.0027797303790226,0.0024708836255595,0.0010331149678677,0.000970380147919,0.0004386981017887
1772808550617691000,9.01869091796875,0.0795429077923297,-0.0033880532694049,-0.0017108864379581,0.0005497874226421,0.000890226510819,-0.0011950028128921
1772808550637739800,9.03873974609375,0.0897159267604351,-0.0020445114396512,-0.0011853373270481,-0.0009535287972539,-0.0027815659996122,0.0024949060752987
1772808550657788700,9.05878857421875,0.0831312876731157,-0.0046389940454158,0.0004549087272258,-0.0005124281160533,0.0007615240756422,0.0005645668134093
1772808550677837600,9.078837646484375,0.0736982734173536,-0.0036981969308108,0.0012494612049777,-0.0010581642854958,0.0001980838715098,-0.0009247125126421
1772808550697886700,9.09888671875,0.0894090527683496,-0.0001736121343914,-0.0016567633642349,-0.0009620941709727,-0.0001136711216531,-0.001414063386619
1772808550717935900,9.118935791015623,0.0840232680767774,-0.0065496682386379,-0.0027742413531523,0.0029337049927562,-0.0015224168309941,0.0005535152740776
1772808550737984800,9.13898486328125,0.0698065266758203,-0.0078749620256479,0.0061384342563571,0.0006835949607193,0.002519616857171,-0.0024657654576003
1772808550758033700,9.15903369140625,0.08237725443542,-0.0032060021002311,-0.0008916287772124,-0.0009598236065357,1.500514918e-05,-0.000622418243438
1772808550778082600,9.17908251953125,0.0793833333164453,-0.0134828011032193,0.0020476989105809,0.0018864371813833,-0.000472908723168,7.19013623893e-05
1772808550798131200,9.199131103515626,0.0834241331398487,0.0018558296002913,-0.0045345198907889,0.0011131512001156,0.0016999156214296,0.0012432953808456
1772808550818180400,9.219180419921877,0.0784866767376661,-0.0011740030822809,0.000954295916995,-0.0007110245060175,-0.0004408103413879,-0.0017073419876396
1772808550838230000,9.23922998046875,0.0745984371274709,-0.0053596273370087,0.0022029808038379,0.000761404633522,-0.0007553871255367,-0.0003286828286945
1772808550858279200,9.259279052734374,0.0829775584161281,-0.0004559544734191,-0.0006943343731341,-0.0007960202638059,-5.99220511503e-05,-9.6165575087e-05
1772808550878328300,9.279328369140623,0.0856739578932523,-9.27928499877e-05,-0.0004719420604174,0.0023214383982121,-0.000394107424654,0.0003940495662391
1772808550898377200,9.299377197265626,0.0711585258066654,-0.0043569896331056,-0.0034741789165884,-0.0004196448717266,-0.0019644163548946,0.0003143227659165
1772808550918426400,9.31942626953125,0.0850730693906545,0.0019947631469462,-0.0024221765124704,4.48985956609e-05,-0.002978476928547,0.0011058694217354
1772808550938475000,9.33947509765625,0.0870183582395315,-0.005978535553487,0.0016393738380167,8.35945829749e-05,-0.002443472854793,-0.0007236232049763
1772808550958524200,9.359524169921874,0.0808878926604986,-0.0107630664162803,0.0030882848715409,0.0052507859654724,-0.0008637100690975,0.0003456245176494
1772808550978573300,9.3795732421875,0.0781967538803815,-0.0058773767339531,0.0049672944180201,-0.0011235671117901,0.0010437758173793,0.001411028439179
1772808550998622200,9.399622314453126,0.0769990685284137,0.0043795119921676,0.0005608898523496,0.0012163519859313,-0.0001431090349797,-0.0005936515517532
1772808551018671400,9.41967138671875,0.0834317319244146,-0.0042788554961327,0.0049819165984168,-0.0040883757174015,0.0017190052894875,0.0005688171368092
1772808551038720300,9.43972021484375,0.0862719237864017,-0.00545157993678,0.0024789345012744,5.10080717504e-05,-0.0004935842007398,0.0011222090106457
1772808551058769200,9.45976904296875,0.095700846388936,0.0044618199807591,0.0022457057007122,0.0002357745543122,0.001294148620218,-0.0001152586191892
1772808551078818300,9.479818359375,0.0766957016676664,-0.003168729696609,0.0052285300369374,-0.0015386906452476,0.0014834954636171,0.0014250678941607
1772808551098867200,9.4998671875,0.0756453158318996,-0.0036604039373807,0.0035048982818378,-0.0017173944506794,-0.0001430659031029,0.0017678076401352
1772808551118916400,9.519916259765624,0.0781891550958156,-0.0064136299019679,0.0018540851677767,-0.0016845373902469,-0.000107704749098,0.0009133967105299
1772808551138965200,9.53996533203125,0.0747451521217823,-0.0023402247169055,-0.0025903681196505,-0.0003175099845975,0.0008911839104257,0.0028261435218155
1772808551159015200,9.56001513671875,0.0799789611220359,-0.0028364472686313,-0.0001619993284111,-0.002283229958266,-0.001531028188765,-0.0013338807038962
1772808551179064300,9.580064208984377,0.0771352621287107,-0.0077936586840543,-0.0056125609184615,-0.0011349227279424,0.0005767369875684,0.0012937756255269
1772808551199113200,9.60011328125,0.0718991150408983,-0.0036768710149917,0.0072271747745573,0.0011809403076767,-0.0017972351051867,-0.0004418450407683
1772808551219162000,9.620162109375,0.0709989513307809,-0.0028168840516358,0.0020341498758411,0.0016018585301935,-0.0010759650031104,-0.0007114848122
1772808551239211300,9.640211181640623,0.0816267283290624,-0.0073840549698565,-0.0011188342623645,0.0003975108265876,-9.42480983212e-05,0.0005241362378001
1772808551259260200,9.66026025390625,0.0774351218581199,0.0023848127773031,-0.0033658186047105,0.0016292261425405,0.0032128975726664,-0.0003147274255752
1772808551279309300,9.680309326171876,0.078337623655796,-0.004396280463878,0.0033736137520987,-0.0011036531068384,0.0005113991210237,0.0002563442103564
1772808551299358200,9.700358154296875,0.0907563757240772,-0.0128830359786283,-0.0056548154578777,-0.000463371630758,-7.65747390687e-05,0.0003149956464767
1772808551319407000,9.720406982421874,0.0763876586318016,-0.0038412860627751,0.0004834635348524,0.0020663391333073,-0.0015826686285436,0.0020208293572068
1772808551339456300,9.740456298828123,0.0885100581020116,-0.0056012997389305,-0.0037416661797789,4.42627351731e-05,-0.0011694247368723,0.0012381093110889
1772808551359505200,9.760505126953126,0.0823725782603025,0.0013980576291214,-0.0002028701949166,-0.0022040724288672,-0.0014023862313479,0.0003513204865157
1772808551379554300,9.78055419921875,0.0817728588014841,-0.0017033150528557,-0.005431208435609,-0.0019646789878606,0.0004298445710446,-0.0012790160253643
1772808551399603200,9.800603271484375,0.084022099032998,-0.003346168622747,-0.002527979541081,0.0017850939184427,0.0008106702589429,-0.0010545002296566
1772808551419652000,9.820652099609376,0.0813292066872119,-0.0030595245679374,0.0040533487777225,-0.0025135658215731,0.0005836218479089,-9.87001694738e-05
1772808551439701200,9.840701171875,0.0841764128118753,-0.00347472690586,-0.0049476535692112,0.0099950097501277,0.0273513719439506,0.0016191322356462
1772808551459750100,9.860750244140624,-0.0227677121251821,-0.0103199896907433,0.0265539572322042,0.006608001422137,0.0183466915041208,0.0001449170522391
1772808551479799300,9.88079931640625,0.0697480744868516,-0.0012906151992734,0.0028860448642866,0.0072941118851304,0.0217995159327983,0.0015626654494553
1772808551499848200,9.90084814453125,0.0551133999347686,-0.0070819119518157,0.0004192437588004,0.0047410018742084,0.0081828432157635,0.0014951289631426
1772808551519898000,9.920898193359376,0.0877513486891984,-0.00457961940784,-0.0101945503799011,0.0015895469114184,0.0118386941030621,0.0009072974789887
1772808551539947300,9.940947265625,0.0567845480173826,-0.0140281326268333,0.007674107974593,-0.0005518202669918,0.0019501502392813,0.0009039808064699
1772808551559996200,9.96099609375,0.0674023881435394,-0.0033659419022966,0.0049500304726767,-0.0028613014146685,-0.0068449997343122,-0.0003930972889065
1772808551580045300,9.98104541015625,0.0871428614020347,-0.0028883053200319,0.0007830264367396,-0.0050326967611908,-0.0075647262856364,-0.000714560970664
1772808551600094200,10.00109423828125,0.065277066552639,-0.0016813589493744,0.0062906976420432,-0.0035549737513065,-0.0150586795061826,0.0007262157741934
1772808551620143000,10.02114306640625,0.0710889677017927,0.0005431030339095,0.0029876831744331,-0.0055290954187512,-0.0176863837987184,-0.0012473887763917
1772808551640192300,10.041192138671876,0.0884182881653308,-0.0083367343185003,-0.0075069506971631,-0.0031712122727185,-0.0146914301440119,-0.0021881740540266
1772808551660241200,10.0612412109375,0.1029243679016828,-0.005256651019724,-0.0110478199081029,-0.000309596536681,-0.0017157355323433,0.0012657407205551
1772808551680290300,10.081290283203124,0.0900531958907842,-0.0083976981249637,-0.0056627704354701,-0.0002926390152424,-0.0028811453375965,0.0003201351501047
