time,seconds_elapsed,accel_z,accel_y,accel_x,gyro_x,gyro_y,gyro_z
1772807948234002700,0.090002685546875,0.0488438181459903,-0.202673905159533,0.0639990322737256,-0.0606910549104213,-0.0918795466423034,0.034112200140953
1772807948254051600,0.110051513671875,-0.0773801768004894,-0.2101801891364157,0.1200739661504514,-0.0575357675552368,-0.1326362490653991,0.0207215268164873
1772807948274100500,0.1301005859375,-0.1446989783138036,-0.1661326653562486,0.0905860241258516,-0.014031957834959,-0.1301185190677642,0.0150116318836808
1772807948294149600,0.150149658203125,-0.0889244841217994,-0.1285972999490797,0.0914464768800884,0.0377900041639804,-0.0644039437174797,0.0133610609918832
1772807948314198500,0.170198486328125,0.0106382983922958,-0.1694436896003782,0.1478387376442551,0.0454286783933639,-0.0347639881074428,0.0114562772214412
1772807948334247700,0.19024755859375,-0.0234282218605279,-0.2350825752027332,0.2596914034162648,0.0809730365872383,-0.0454824566841125,0.0137869957834482
1772807948354296600,0.210296630859375,0.1301712712675333,-0.2408569208204746,0.2366080494706519,0.1006355360150337,-0.0579622685909271,0.0225096307694911
1772807948374346500,0.230346435546875,0.1984147864103317,-0.3213068604551256,0.2340071097246371,0.0675606802105903,-0.0824950635433197,0.0170881561934947
1772807948394395600,0.250395751953125,0.0751274294376373,-0.366522112840414,0.241834752876684,0.0511854737997055,-0.1406419575214386,-0.0173620954155921
1772807948414444800,0.27044482421875,0.0799719468593597,-0.3297979176856577,0.2394322035132907,0.0928283780813217,-0.0957471802830696,-0.0331104509532451
1772807948434493400,0.290493408203125,0.0838625245571136,-0.2482584292486309,0.2639032489576376,0.0886313989758491,-0.0875806510448455,-0.0263051465153694
1772807948454542600,0.31054248046875,0.1121627363681793,-0.2307300790816545,0.3260635169303044,0.0706117302179336,-0.1002689898014068,-0.0161836110055446
1772807948474591500,0.330591552734375,0.0047884033203125,-0.0915516177549958,0.3844938228607177,0.1001852080225944,-0.1153222471475601,-0.0138045139610767
1772807948494640600,0.350640625,0.0706996761232614,0.0361706529252231,0.3770781032441184,0.1007421165704727,-0.100057266652584,-0.0069169886410236
1772807948514689800,0.370689697265625,0.1523959625571966,0.1102685931846499,0.3489605179909616,0.0663340762257576,-0.0789237543940544,-0.0002755974419414
1772807948534738400,0.390738525390625,0.2129863325983285,0.2033021200604736,0.4326506085906177,0.045149952173233,-0.0594610944390296,-0.0008156094700098
1772807948554787600,0.41078759765625,0.1210205810844898,0.2314069554299116,0.5037859727174043,0.0684612095355987,-0.1013643220067024,0.0180192571133375
1772807948574837800,0.430837646484375,0.1146498770087957,0.3342588426172733,0.4448589327786117,0.0975901708006858,-0.1222792118787765,0.0329478308558464
1772807948594886700,0.45088671875,0.2230605673670768,0.3521335220038891,0.4393874060323461,0.0777229964733123,-0.0743260830640792,0.0396706387400627
1772807948614935600,0.470935546875,0.3337234205663204,0.2819875342406332,0.3730145435996353,0.0509370528161525,-0.0174023360013961,0.047094639390707
1772807948634984400,0.490984375,0.2764233242422342,0.2346682953134179,0.3446961385447532,0.0151839330792427,-0.0376522094011306,0.0314159244298934
1772807948655033600,0.51103369140625,0.2273375140339136,0.1507758140094578,0.3174844891553744,-0.01105279289186,-0.1022823080420494,0.0030120774172246
1772807948675082800,0.531082763671875,-0.0012023615270853,0.1161082591235637,0.272841775961034,-0.0253852885216474,-0.1860994696617126,-0.0255711376667022
1772807948695131600,0.551131591796875,-0.1084784948974847,0.1397919170498847,0.1441775847882032,0.0160089507699012,-0.1596039086580276,-0.0083397785201668
1772807948715180500,0.5711806640625,-0.0738408967584371,0.1803184270970523,-0.1324461573969572,0.0412269234657287,-0.0658622533082962,0.0256848987191915
1772807948735229400,0.5912294921875,-0.0177390703082084,0.0932078605294227,-0.2716713804747909,0.0150328977033495,-0.0080117788165807,-0.0225739423185586
1772807948755278600,0.611278564453125,0.0232961199134588,0.0129186644144356,-0.2217708563501015,0.0002534962259232,0.0305308420211076,-0.1077978312969207
1772807948775328500,0.63132861328125,0.0381207640796899,-0.0327913857504725,-0.1329663088135421,0.0111790457740426,0.0428258180618286,-0.203113704919815
1772807948795377400,0.65137744140625,0.1741764172106981,-0.1323193892121315,-0.0428801970338448,0.0189006831496953,0.0879296883940696,-0.2749415636062622
1772807948815426600,0.671426513671875,0.1846101329416036,-0.1913270201064646,0.3080138463029638,0.0102374460548162,0.0941614285111427,-0.3369992971420288
1772807948835475700,0.691475830078125,0.1402314775109291,-0.1572084774054586,0.5373035538505763,0.0174881760030984,0.0414417348802089,-0.3349317014217376
1772807948855524600,0.711524658203125,0.1030348425388336,-0.1124758939705789,0.5682984846383333,0.0613000951707363,0.0288275107741355,-0.2572166621685028
1772807948875573800,0.73157373046875,0.1938420716673135,0.0118485509648919,0.5574632389018311,0.1069035306572914,0.0530510917305946,-0.1927114427089691
1772807948895622400,0.751622314453125,0.4410574216037988,0.0944300958007574,0.4148000407319516,0.0968483909964561,0.0852318927645683,-0.1859582662582397
1772807948915671600,0.771671630859375,0.5450859513550996,0.1280648005075752,0.3387892891211435,0.0460753217339515,0.0563456453382968,-0.2392992079257965
1772807948935720700,0.791720703125,0.7153571778208017,0.0499433038204908,0.4402911864716559,0.0155436843633651,0.0258146449923515,-0.2852782011032104
1772807948955769600,0.81176953125,0.7424409995794296,0.2686806011609733,0.4027798229945823,-0.052945327013731,0.0327181071043014,-0.3300617635250091
1772807948975818800,0.83181884765625,0.7793108868151902,0.24485198180601,0.4539633726671337,-0.0837053656578064,0.089746244251728,-0.3005587458610534
1772807948995868700,0.85186865234375,0.4456839123606682,0.2529040630973875,0.5830152845159172,-0.042652428150177,0.0699903666973114,-0.1890740543603897
1772807949015917600,0.87191748046875,0.4655892207920551,0.3760005736730992,0.5654344735093414,8.11899080872e-05,0.0679511874914169,-0.0627462044358253
1772807949035966700,0.891966796875,0.5244570048242807,0.4308744657635688,0.5074913665739819,-0.0426835305988788,0.0604298748075962,0.0451645292341709
1772807949056015600,0.912015625,0.6064367843747138,0.3297390271052718,0.3811614635676145,-0.1976308226585388,0.0457715950906276,0.1420948952436447
1772807949076064500,0.932064453125,0.5711445217192173,0.2346151038214564,0.0907407397635281,-0.3915051519870758,0.0198877528309822,0.2226942330598831
1772807949096113700,0.95211376953125,0.3340016529858112,0.0863093331873416,0.0317738975373096,-0.5860198736190796,-0.0682300776243209,0.2074557989835739
1772807949116162600,0.97216259765625,0.1780570580363273,-0.2212704690799116,-0.0172314313133247,-0.6443042755126953,-0.061978843063116,0.2257467955350875
1772807949136211700,0.992211669921875,0.1102846675366163,-0.3372989409655332,0.0140745016523636,-0.5773167610168457,0.0234089214354753,0.2528953850269317
1772807949156260600,1.012260498046875,0.0564718288064002,-0.5711565044179558,0.2967986978707835,-0.4188822507858276,0.1189067587256431,0.3709673285484314
1772807949176309500,1.0323095703125,0.2361713933527469,-0.7063099480122328,0.4441772341247648,-0.3130011558532715,0.1554580926895141,0.5505464673042297
1772807949196362500,1.052362548828125,0.6364449691474438,-1.0514505423888565,0.5836678301405162,-0.3613167107105255,0.1395148634910583,0.7010892033576965
1772807949216412700,1.07241259765625,0.4765262098699808,-1.4346614858321844,0.8685438523642718,-0.4646576344966888,-0.0588869340717792,0.7538365721702576
1772807949236461300,1.09246142578125,0.1925812579512596,-1.471222891640663,0.8637807296156883,-0.4408757388591766,-0.2182632535696029,0.7830628156661987
1772807949256510500,1.112510498046875,0.1144037932932376,-1.3100310436874627,0.5258818499956279,-0.3924417495727539,-0.1884297579526901,0.7906355261802673
1772807949276559400,1.132559326171875,-0.2522404846221208,-1.3739488045856356,0.4857092679526656,-0.4189329743385315,-0.1427317410707473,0.7532994747161865
1772807949296608500,1.1526083984375,-0.6568138034373522,-1.313780751609802,0.5503275418030098,-0.3786573708057403,-0.0525499880313873,0.7260266542434692
1772807949316657700,1.17265771484375,-0.8471861531674861,-1.0155568797741086,0.405715182326734,-0.2204108089208603,0.070366695523262,0.7771463990211487
1772807949336706300,1.192706298828125,-0.7721358806192874,-0.9310673093598336,0.3494593343585729,-0.0498172603547573,0.1717927604913711,0.8611975312232971
1772807949356755500,1.21275537109375,-0.4580997418195009,-0.920031974473968,0.3898575418509543,0.06743935495615,0.2310790568590164,0.9251604080200196
1772807949376804400,1.232804443359375,0.0137590607613325,-0.8760165993977338,0.2460011153085157,0.1149939000606536,0.247162714600563,0.9601239562034608
1772807949396853500,1.252853515625,0.3735919050961732,-0.8088664324495941,0.0906126198718324,0.0964019671082496,0.1840466111898422,0.9560308456420898
1772807949416902700,1.272902587890625,0.6420446888506413,-0.7367710641842335,-0.0996342768477275,0.0302335433661937,0.1455852687358856,0.9268788695335388
1772807949436952300,1.292952392578125,0.7651683796942234,-0.72951122924909,-0.2507701928738504,-0.0657834410667419,0.1374303847551345,0.8648496866226196
1772807949457001500,1.31300146484375,0.7185393149882554,-0.6897709011435509,-0.3722379332039505,-0.1353198438882827,0.112596645951271,0.8052610754966736
1772807949477050600,1.333050537109375,0.5293868624418974,-0.689483316373825,-0.396351506980136,-0.1300137639045715,0.095543622970581,0.8024005889892578
1772807949497099500,1.353099609375,0.4697802427411079,-0.7972162536010146,-0.4768571223247796,-0.1300705522298813,0.0918573066592216,0.8442533612251282
1772807949517148400,1.3731484375,0.4670353279471397,-1.068732589644566,-0.5661787160053849,-0.1768971979618072,0.0725373849272728,0.8631919622421265
1772807949537197300,1.393197265625,0.2492249361932277,-1.409565769150853,-0.516618712414056,-0.1726459115743637,0.0184200759977102,0.8460705280303955
1772807949557246500,1.41324658203125,0.1116997950315475,-1.5396917399719356,-0.5844548157997429,-0.0714398771524429,0.0256966855376958,0.8214665055274963
1772807949577295600,1.433295654296875,0.1532709918260574,-1.6991206699058412,-0.6001612112365663,0.0009714844636619,0.0100601874291896,0.7897670269012451
1772807949597344500,1.453344482421875,-0.0798480282187461,-1.654773286396265,-0.5081930851025507,0.0196220576763153,-0.164490595459938,0.7426180243492126
1772807949617393400,1.473393310546875,-0.2885474772781133,-1.5231941941574214,-0.3416804074527695,0.1322958320379257,-0.2531978487968445,0.754730224609375
1772807949637442300,1.4934423828125,-0.3112690121740102,-1.1318562044903635,-0.3077654610324651,0.2539269030094147,-0.1635456979274749,0.8209453225135803
1772807949657492500,1.513492431640625,-0.3609370061844587,-0.8897828936174511,-0.1081597843371331,0.3446702659130096,-0.1029382497072219,0.9618658423423768
1772807949677541400,1.533541259765625,-0.5471183339655399,-0.66645052357167,0.0665102981420233,0.3973944783210754,-0.1884875446557998,1.0979876518249512
1772807949697590300,1.55359033203125,-0.4573872096359729,-0.3991723365545273,-0.01545154389292,0.4307231605052948,-0.2027998566627502,1.188880205154419
1772807949717639400,1.573639404296875,-0.4163251314073801,-0.2459784285526722,-0.1586051924608647,0.3703683018684387,-0.1985933929681778,1.1805214881896973
1772807949737688600,1.5936884765625,-0.4933300451546907,0.0746761785387992,-0.3843366595376282,0.1922629922628402,-0.2320067882537841,1.01495623588562
1772807949757737500,1.613737548828125,-0.8408791619777679,0.3780325178921222,-0.4799518734697252,-0.0592229664325714,-0.3753495514392853,0.7655966877937317
1772807949777786400,1.633786376953125,-1.2923533481776714,0.4521747356846928,-0.2845538045320659,-0.2571095526218414,-0.3582872152328491,0.5539452433586121
1772807949797835300,1.653835205078125,-1.6092209110110998,0.7592223307713866,-0.2110460121855139,-0.2676151990890503,-0.1661257594823837,0.4600318372249603
1772807949817884400,1.673884521484375,-1.913089876061678,0.8938944936547428,-0.0089241148855537,-0.0767849013209343,0.0235309675335884,0.4961217045783996
1772807949837933600,1.69393359375,-1.7869652498364448,0.9977223132021724,0.0921328517090529,0.1856551617383957,0.1724264323711395,0.5919519662857056
1772807949857983200,1.713983154296875,-1.2957581881850957,0.8237528898056596,0.2300903929386288,0.3726329505443573,0.2365644425153732,0.6336126327514648
1772807949878032400,1.734032470703125,-0.7296107441008091,0.7196304712258279,0.2269627624373882,0.3695831000804901,0.1510511189699173,0.5203078985214233
1772807949898081500,1.75408154296875,-0.3649333823442459,0.6576329378005117,0.2377168692290782,0.3233847022056579,0.041852232068777,0.3475560545921325
1772807949918130400,1.77413037109375,-0.0693751495212316,0.838925251431018,-0.0092103844810277,0.3038614094257355,0.0863309800624847,0.203669011592865
1772807949938179600,1.7941796875,0.2557598909199238,0.9374223044097424,-0.1809963994238525,0.2251415252685547,0.2307052016258239,0.0712943971157074
1772807949958228200,1.814228271484375,0.3672872519940137,0.8161660148732364,-0.0868957547731697,0.1290858387947082,0.3096332848072052,-0.0217949505895376
1772807949978277400,1.83427734375,0.5184942970275879,0.7543256447710096,-0.1417449508138001,0.1138732731342315,0.3904916644096374,-0.094766266644001
1772807949998326500,1.854326416015625,0.7262485741913318,0.6756427148088813,-0.0362788625400513,0.1519737541675567,0.4476436376571655,-0.1390815079212188
1772807950018375400,1.87437548828125,0.9597837738215924,0.5087358502097428,-0.0900180515121668,0.237589880824089,0.482427716255188,-0.1052329465746879
1772807950038424600,1.894424560546875,1.2913304348707195,0.4930059277668595,-0.1596014004239812,0.2243117690086364,0.4524506330490112,-0.1114740446209907
1772807950058473500,1.914473388671875,1.3640367746412754,0.2638856219694018,-0.0423418158408254,0.1327185183763504,0.34445920586586,-0.1512176692485809
1772807950078522400,1.9345224609375,1.2305641237407925,0.1694751076519489,0.016530772230681,0.0961482673883438,0.2492996007204055,-0.1946545094251632
1772807950098572500,1.954572509765625,1.0449380917549134,0.1215396365225315,0.1718549885258078,0.1265520751476287,0.2023100852966308,-0.1670524924993515
1772807950118621400,1.974621337890625,0.7820645694375038,0.1749741434596478,0.1678683848413638,0.1599662005901336,0.1705132275819778,-0.0552406907081604
1772807950138670300,1.99467041015625,0.6969967607438564,0.245764858867228,-0.081321607902646,0.131912425160408,0.1558786183595657,0.0081858914345502
1772807950158719500,2.014719482421875,0.6916285117089748,0.1683216998331248,-0.316616876007989,0.0972624570131301,0.1552854925394058,-0.0426869355142116
1772807950178768400,2.034768310546875,0.6548673455446958,0.1009822939231991,-0.4835514323316514,0.0771398097276687,0.1198101043701171,-0.143264502286911
1772807950198813400,2.0548134765625,0.6115595342159271,0.0521259085565805,-0.5827365771723911,0.0630644187331199,-0.0117580257356166,-0.2260254025459289
1772807950218862600,2.074862548828125,0.3570499356180429,-0.0401454017750918,-0.5003923847563565,0.1206391081213951,-0.0982003360986709,-0.2782393991947174
1772807950238911500,2.094911376953125,0.4024953434973955,0.1255716685175895,-0.6567883767351508,0.1785364747047424,-0.0648255571722984,-0.3207601010799408
1772807950258960400,2.11496044921875,0.4352069420099258,0.1563590209692716,-0.8833616283982991,0.1269195079803466,0.0134304407984018,-0.3826109170913696
1772807950279009300,2.13500927734375,0.3460422193914652,0.0982042075119912,-0.8391524112503975,0.0749390050768852,0.0580024160444736,-0.4618977308273315
1772807950299058400,2.155058349609375,0.2946089692741632,0.0649476884678006,-0.8617325649142265,0.0682619959115982,0.0816650837659835,-0.5124503374099731
1772807950319108600,2.175108642578125,0.2166308265805244,-0.0375792045488953,-0.877976574359089,0.0695039480924606,0.0492158308625221,-0.5737424492835999
1772807950339157200,2.1951572265625,0.0445224478155374,0.0262122996211051,-0.8526873078670352,0.1264723390340805,-0.0098413536325097,-0.638956606388092
1772807950359206400,2.215206298828125,-0.0323468568533659,0.1626544678516686,-0.8563344321977346,0.2234420627355575,-0.0601361989974975,-0.6775332093238831
1772807950379255600,2.235255615234375,-0.0799123256266117,0.445285999084264,-0.811482314036414,0.3066246509552002,-0.0531494170427322,-0.7061046957969666
1772807950399304400,2.255304443359375,0.0912462050676345,0.5806339423373341,-0.6601593144729733,0.3729059994220733,-0.0008779575582593,-0.7118687629699707
1772807950419353600,2.275353515625,0.0950000046432018,0.6528194731041789,-0.5062241231171414,0.3515692949295044,-0.0212447866797447,-0.6636015176773071
1772807950439402200,2.29540234375,0.32777474129498,0.4857926353871822,-0.5180843279872089,0.2083601951599121,-0.0481048114597797,-0.5785697102546692
1772807950459451400,2.315451416015625,0.23079437648952,0.3537231292828917,-0.716284375668317,-0.1674081087112426,-0.2759244441986084,-0.621284008026123
1772807950479500500,2.33550048828125,-0.1317336982786655,0.3824541337266564,-1.0820007981490345,-0.698511004447937,-0.5641703605651855,-0.8838895559310913
1772807950499549400,2.355549560546875,-0.489642296552658,0.3511113393492996,-0.8973752484425902,-1.0715924501419067,-0.6799924969673157,-1.1674906015396118
1772807950519598600,2.3755986328125,-1.209337211316824,0.5932284893639386,-1.7244221382923424,-0.9714078307151794,-0.4623643159866333,-1.3326656818389893
1772807950539647200,2.395647216796875,-0.4624333871096372,1.078377566150576,-2.1611272099055348,-0.3786099255084991,0.3064218163490295,-1.551086187362671
1772807950559697400,2.415697509765625,-0.3788981948107481,1.174122836203128,-1.3840623484514654,-0.0427971147000789,0.2911690771579742,-1.6859254837036133
1772807950579746600,2.43574658203125,-0.8137304582893848,0.6452626279838383,-0.8288987282615154,-0.0154743250459432,-0.1779797822237014,-1.519349455833435
1772807950599795500,2.45579541015625,-0.3430184876561165,0.666020753852278,-0.7846623308457433,-0.0180958807468414,-0.3962873518466949,-1.3117960691452026
1772807950619844400,2.47584423828125,-0.2643225520819425,0.7355098851419984,-0.9728888276536016,-0.0146762020885944,-0.3637880384922027,-1.256983757019043
1772807950639893500,2.4958935546875,-0.7576835768967867,0.7005335565678775,-1.2380864820696411,0.0160236023366451,-0.3107429146766662,-1.34399676322937
1772807950659942400,2.5159423828125,-0.8552309279352426,0.8497381757378578,-1.548815688278526,0.0539636984467506,-0.2013604640960693,-1.45465087890625
1772807950679991600,2.535991455078125,-0.7185398995101452,0.966839537551999,-1.7723180080637335,0.0179384313523769,-0.0822982266545295,-1.5267904996871948
1772807950700040400,2.55604052734375,-0.4348948073208332,1.0012788366399703,-1.801995061185956,0.0043093273416161,0.106374442577362,-1.5391172170639038
1772807950720089300,2.57608935546875,0.0940899040609598,0.9892873700730502,-1.7208448643274603,0.0752501264214515,0.2919562757015228,-1.5175522565841677
1772807950740138500,2.596138427734375,0.5041770178616046,0.8326625377744435,-1.4253696336127817,0.1618334501981735,0.3140684962272644,-1.451604247093201
1772807950760187400,2.6161875,1.0128355650514365,0.6321564781732857,-1.278544456925243,0.1715675294399261,0.1909724175930023,-1.369512677192688
1772807950780236500,2.636236572265625,1.3658090450108051,0.443225267162174,-1.3545862247288227,0.1170499920845031,0.0606413148343563,-1.3430191278457642
1772807950800286500,2.656286376953125,1.4494962130010127,0.1980322168335318,-1.185442614053562,0.0747321173548698,-0.1025711148977279,-1.3465750217437744
1772807950820335400,2.67633544921875,1.3485866920530796,0.1430471194535493,-1.201928250234574,0.0957847386598587,-0.1818839758634567,-1.3134338855743408
1772807950840384500,2.696384521484375,1.3110440201222897,0.1804528671316802,-1.4185155299343168,0.0375065132975578,-0.1644085794687271,-1.2607049942016602
1772807950860433400,2.716433349609375,0.9343839596271516,0.061734425509721,-1.444346867413819,-0.0562414266169071,-0.1782106459140777,-1.2476251125335691
1772807950880482600,2.736482666015625,0.6158031631350517,0.0701873426869511,-1.3926526282727718,-0.0727129727602005,-0.168740227818489,-1.251967430114746
1772807950900531500,2.756531494140625,0.3155032887428999,0.113172205671668,-1.5328274071604011,-0.0753127336502075,-0.0988834053277969,-1.2305434942245483
1772807950920580400,2.776580322265625,0.0762257460683584,-0.0023427637338638,-1.4305018819347024,-0.0506668537855148,-0.0708218738436698,-1.2088278532028198
1772807950940629500,2.79662939453125,-0.1975292357474565,-0.0203260180614888,-1.1707774712979793,0.0607088580727577,-0.065994381904602,-1.1617811918258667
1772807950960678400,2.816678466796875,-0.3477905243635177,-0.0538344660401344,-1.0308598820418118,0.1304607838392257,-0.0366487614810466,-1.0686640739440918
1772807950980727600,2.8367275390625,-0.5722656347036361,-0.2414459727548062,-0.7286553430721163,0.2242526412010193,-0.0290794838219881,-0.9191417098045348
1772807951000776400,2.8567763671875,-0.7503840675383806,-0.2137142084814608,-0.7035447210825979,0.374160885810852,-0.0301628746092319,-0.7575331926345825
1772807951020825300,2.876825439453125,-0.648766690582037,-0.1584890187352895,-0.7429686767153442,0.4915770292282104,0.008769841864705,-0.6112186908721924
1772807951040875500,2.89687548828125,-0.4542459890007972,-0.1813010083936155,-0.885964650503546,0.5449797511100769,-0.037672784179449,-0.5169437527656555
1772807951060924400,2.91692431640625,-0.5594353792250156,0.1657036262892186,-1.0019226875014602,0.3315160572528839,-0.4543631672859192,-0.6130673885345459
1772807951080973300,2.936973388671875,-1.1530337248146534,0.450908076749742,-1.0938751411423089,-0.0705048665404319,-0.8778878450393677,-0.8198974132537842
1772807951101022500,2.9570224609375,-1.517234701231122,0.5869591998361051,-1.1545503399226813,-0.2829886376857757,-0.7140775918960571,-0.99889075756073
1772807951121071400,2.9770712890625,-1.3932552703410386,0.7113118479527533,-1.01549090186581,-0.170391634106636,-0.276209145784378,-1.044548749923706
1772807951141120500,2.99712060546875,-1.2705027508974074,0.785395175164938,-0.730535749991238,0.1448682844638824,-0.0010873991996049,-0.951399266719818
1772807951161169400,3.01716943359375,-1.1627104846984146,0.887592543966323,-0.4285301311271265,0.3021031618118286,-0.2082357108592987,-0.823413610458374
1772807951181218300,3.03721826171875,-0.9535480943024158,0.6009085224725306,-0.1467659573135897,0.2368052452802658,-0.6387748122215271,-0.7802505493164062
1772807951201268500,3.0572685546875,-0.651509851810336,0.6743726948730647,-0.2890152957192622,0.1266745179891586,-0.8596552610397339,-0.8725739121437073
1772807951221317400,3.0773173828125,-0.762742613852024,1.044355907952785,-0.6808285930141806,0.0828673690557479,-0.8082635402679443,-1.0217225551605225
1772807951241366300,3.0973662109375,-0.8316659279525279,1.3797710809983312,-0.947979427324608,0.2177336812019348,-0.5505751967430115,-1.1454795598983765
1772807951261415200,3.117415283203125,-0.7201081717401743,1.6022081096395848,-0.6694535047799348,0.3960240185260772,-0.3647927939891815,-1.2118544578552246
1772807951281465300,3.13746533203125,-0.4691133032649755,1.6161508564047515,-0.2852476868140511,0.4905779361724853,-0.3928700387477875,-1.250621318817139
1772807951301514500,3.157514404296875,-0.1355862820535898,1.6334145642861724,-0.1598035719325765,0.4086825847625732,-0.5365602970123291,-1.298494577407837
1772807951321563100,3.177563232421875,0.1099719483256339,1.6743841419257222,-0.0766506934821605,0.2983282804489136,-0.5781106352806091,-1.3893920183181765
1772807951341612300,3.1976123046875,0.000501519781351,1.7312921701923012,0.0035747897468507,0.277759313583374,-0.6265310049057007,-1.514609694480896
1772807951361661400,3.217661376953125,-0.1482353357464075,2.0089399216629564,-0.1882380776477977,0.290280282497406,-0.6064653396606445,-1.6711887121200562
1772807951381710300,3.23771044921875,-0.1253255848020315,2.110707520744949,-0.2517912064846604,0.1969438344240188,-0.5254557728767395,-1.832513451576233
1772807951401759500,3.257759521484375,-0.0432943673253059,2.2312692521460358,-0.191748935312964,0.0871275812387466,-0.3512075543403625,-1.9377892017364504
1772807951421808000,3.27780810546875,-0.0528846179693937,2.342182719105482,-0.0256417331915348,0.0379519239068031,-0.2581832706928253,-1.9608837366104128
1772807951441857300,3.297857177734375,-0.064064768153429,2.276363800761104,0.1327099959649145,0.0019557275809347,-0.3058895766735077,-1.9198359251022337
1772807951461906400,3.317906494140625,-0.0335667540371418,2.184773896822333,0.0752280768005177,-0.0113442000001668,-0.3767749071121216,-1.882737159729004
1772807951481955300,3.337955322265625,0.02928045502007,1.9160881810948247,0.2497794282708317,0.0267137791961431,-0.4468748867511749,-1.8655979633331297
1772807951502004500,3.35800439453125,0.2021206551909446,1.892262776610255,0.1524126214310526,0.0654287040233612,-0.4904775321483612,-1.8553762435913088
1772807951522054400,3.378054443359375,0.4304121089488267,1.7942624211072922,0.0536694116715341,0.0279644783586263,-0.5241491198539734,-1.8808085918426516
1772807951542103300,3.398103271484375,0.6113298171132803,1.702317712381482,0.156449256535992,-0.0270223338156938,-0.5644523501396179,-1.912791132926941
1772807951562152400,3.41815234375,0.652985185059905,1.6107409601852296,0.2173402900241315,-0.10739366710186,-0.6384110450744629,-1.8884897232055664
1772807951582201300,3.438201416015625,0.573397853603959,1.520460969801247,0.0887253448205068,-0.2058786004781723,-0.6890571117401123,-1.870401620864868
1772807951602250200,3.458250244140625,0.3369908979296684,1.5200737240493296,-0.0106821740666404,-0.214719071984291,-0.69130939245224,-1.8926584720611568
1772807951622299400,3.47829931640625,0.3129173639029264,1.4746660178318618,-0.0977135013855993,-0.1784751713275909,-0.6441541314125061,-1.952437281608581
1772807951642348300,3.498348388671875,0.319576237270236,1.4313804183349013,-0.0806197432436049,-0.2010237574577331,-0.6633680462837219,-2.0543322563171387
1772807951662397400,3.5183974609375,0.2992711158663034,1.3696598752200602,0.0372817925048992,-0.2400128096342086,-0.7333629131317139,-2.135449171066284
1772807951682446300,3.5384462890625,0.1463046599447727,1.322111942103505,0.1904242260478436,-0.242437869310379,-0.7930453419685364,-2.162603616714477
1772807951702495200,3.5584951171875,0.0614952099263668,1.2882752850838004,0.2379831920150667,-0.2559360563755035,-0.796726405620575,-2.1772639751434326
1772807951722544400,3.57854443359375,-0.1313631114006042,1.3006452295742927,0.1251332771003246,-0.258863627910614,-0.810173511505127,-2.226571798324585
1772807951742593300,3.59859326171875,-0.3184177148848772,1.4710162631526589,-0.0390460622310638,-0.2140043973922729,-0.8247668147087097,-2.280607223510742
1772807951762642400,3.618642333984375,-0.24097733232975,1.414115249148756,0.008324322361499,-0.1417800486087799,-0.8621957302093506,-2.322617053985596
1772807951782692400,3.6386923828125,-0.3469996662467718,1.5663267950497566,0.0386272522971034,-0.1960223615169525,-1.0161916017532349,-2.351506233215332
1772807951802741200,3.6587412109375,-0.2949322098791599,1.2426505751147865,0.2014341342315077,-0.3110575675964355,-1.1691553592681885,-2.354559898376465
1772807951822790400,3.678790283203125,-0.5478279435396194,1.8233914849579331,-0.2246924063526093,-0.5283924341201782,-1.2642916440963743,-2.457927703857422
1772807951842839300,3.69883935546875,-0.7025169854700565,1.9284911510720848,-0.7481897723644971,-0.7995439171791077,-1.1039729118347168,-2.6334645748138428
1772807951862888400,3.718888427734375,-1.144600242990255,2.300104157310724,-0.9088843383200466,-0.929693639278412,-0.794189989566803,-2.84319806098938
1772807951882937300,3.738937255859375,-1.2160486916542053,2.276380021243542,-0.7011471584215759,-0.75401371717453,-0.3833574950695038,-2.8788981437683105
1772807951902986200,3.758986328125,-1.102222405987978,2.379903962473571,-0.4475840468935668,-0.4617800414562225,-0.1906657218933105,-2.7617383003234863
1772807951923035400,3.779035400390625,-0.8473083182424307,2.07809733678028,-0.1132392795585095,-0.3264805674552917,-0.3606318831443786,-2.5901026725769043
1772807951943084300,3.799084228515625,-0.695576372551918,1.84435156313926,0.0912044848177582,-0.3165134489536285,-0.6221034526824951,-2.519716262817383
1772807951963133400,3.819133544921875,-0.231743640038371,1.7731782781548795,0.0396948084633797,-0.3228166699409485,-0.6344770193099976,-2.5090935230255127
1772807951983182300,3.839182373046875,0.0092518124699592,1.7770580421976745,-0.2311662054765969,-0.3730633556842804,-0.5264349579811096,-2.499663591384888
1772807952003231200,3.859231201171875,0.0814601395905017,1.7077204482078552,-0.2501033995281905,-0.4166603684425354,-0.4277645647525787,-2.477393388748169
1772807952023281400,3.879281494140625,-0.0268529356122016,1.6311809600152074,-0.1985562407076358,-0.4257360100746155,-0.4252749979496002,-2.436527967453003
1772807952043330300,3.899330322265625,-0.1656885748505592,1.5245590527698396,-0.190281894967705,-0.3980491161346435,-0.4602333605289459,-2.380734443664551
1772807952063379200,3.919379150390625,-0.1757429358750581,1.4237300497122107,-0.2070122266247868,-0.3533431887626648,-0.4565337598323822,-2.3348982334136963
1772807952083428400,3.939428466796875,-0.1207838497191667,1.3072567566685378,-0.303797214988619,-0.3641371130943298,-0.4186681509017944,-2.285689353942871
1772807952103477200,3.959477294921875,-0.0548521186500787,1.145217059714347,-0.432785852342844,-0.4153915345668793,-0.3602390885353088,-2.245337724685669
1772807952123526400,3.9795263671875,-0.2006622730761766,1.0088052866220474,-0.4295924631290137,-0.4429279863834381,-0.3975369036197662,-2.199423313140869
1772807952143575600,3.999575439453125,-0.4593038569122553,1.0313817139588295,-0.7012928505025804,-0.4143874943256378,-0.4140439927577972,-2.151396512985229
1772807952163624200,4.019624267578125,-0.1021674120545387,0.8450485566169023,-0.7955021431595086,-0.3182868063449859,-0.1944541335105896,-2.1221261024475098
1772807952183673300,4.03967333984375,0.2493295656114816,0.7011446742035448,-0.6928212286248803,-0.2599477469921112,-0.0890251547098159,-2.0956356525421143
1772807952203722500,4.059722412109375,0.2416846038162708,0.3781698805361986,-0.4686098107222467,-0.3021838665008545,-0.2563968002796173,-2.0259037017822266
1772807952223771600,4.079771728515625,0.1276964055866003,0.1278602178461849,-0.4205929449196904,-0.3126281201839447,-0.4669463336467743,-1.9613438844680784
1772807952243820500,4.099820556640625,0.0452899250566959,0.0619046675100922,-0.5097299758136272,-0.2996235489845276,-0.4844878315925598,-1.9552778005599976
1772807952263869400,4.119869384765625,0.1256961716800928,0.0268310160413384,-0.5405105331983417,-0.2549329698085785,-0.2996678352355957,-1.94209885597229
1772807952283919600,4.139919677734375,0.082699910518527,0.038396658411622,-0.514545194075629,-0.1961704492568969,-0.155973881483078,-1.876048803329468
1772807952303968500,4.159968505859375,0.195372349974513,-0.1409784964859485,-0.366490913984552,-0.1065009608864784,-0.0774215459823608,-1.7695287466049194
1772807952324017400,4.180017333984375,0.303005626219511,-0.3319442820645868,-0.231952606613934,-0.0224905721843242,-0.1189953610301017,-1.6887671947479248
1772807952344066300,4.20006640625,0.4787573299229145,-0.6560154926665127,0.0829896141801029,0.0364196524024009,-0.1902197152376175,-1.59189772605896
1772807952364115500,4.220115478515625,0.600060235080123,-0.8709500367231666,0.1355280490603297,0.0729936733841896,-0.1722214967012405,-1.4722858667373655
1772807952384164600,4.24016455078125,0.7630015570491552,-1.0363843445517122,0.204757141174376,0.0735806599259376,-0.1133587956428527,-1.3696222305297852
1772807952404213500,4.260213623046875,0.5098211612284184,-1.28183239255473,0.4238449324529618,0.0777385681867599,-0.1917259395122528,-1.237335443496704
1772807952424262400,4.280262451171875,0.1415676945507526,-1.3299839906528592,0.4328117174364626,0.1314541846513748,-0.3331717550754547,-1.1218979358673096
1772807952444311300,4.300311279296875,0.0132300684511661,-1.1772206560879943,0.2272170294594019,0.1798364222049713,-0.3642578125,-1.0558115243911743
1772807952464360400,4.3203603515625,-0.1688210276573896,-1.0628487192377447,0.0996763989564031,0.1885481476783752,-0.3172532618045807,-1.0202226638793943
1772807952484409600,4.34040966796875,-0.5173533102989196,-0.7895125473558903,0.0401106227226555,0.1908437609672546,-0.3126212656497955,-0.972443163394928
1772807952504458500,4.36045849609375,-0.5667220291018485,-0.6131237147927284,-0.0658096390593797,0.221162736415863,-0.1940703839063644,-0.8753904104232788
1772807952524507600,4.380507568359375,-0.5212158309459686,-0.6030522565029561,0.050138826392591,0.2051476240158081,-0.2468166351318359,-0.7766481041908264
1772807952544556300,4.400556396484375,-0.94031744132936,-0.3600146306425333,0.0125187053114175,0.1597169488668441,-0.5044846534729004,-0.7451263666152954
1772807952564606500,4.4206064453125,-1.0667612165063618,-0.3623436581119895,-0.0868539614580571,0.1989646553993225,-0.5627855062484741,-0.8397162556648254
1772807952584655600,4.440655517578125,-0.9407809671878814,-0.1218959026142954,0.056509530468285,0.3249056935310364,-0.3966176807880401,-0.9834205508232116
1772807952604704300,4.460704345703125,-0.7503653628379106,-0.0471703319758176,0.348621349164471,0.43129962682724,-0.1962363272905349,-0.9583319425582886
1772807952624753400,4.48075341796875,-0.6117986036688089,0.2563169402807951,0.2558382168531418,0.3538020849227905,-0.2361267060041427,-0.886819064617157
1772807952644802600,4.500802490234375,-0.2697241188645363,0.2436538580626249,0.3634386137418449,0.1951133459806442,-0.2476265430450439,-0.88202965259552
1772807952664851500,4.5208515625,-0.161936528840661,0.3138070062190294,0.3440730382103473,0.0667222514748573,-0.17579947412014,-0.9453359246253968
1772807952684900600,4.540900634765625,0.1339607266783714,0.0961713865101337,0.5098563056070358,0.07538902759552,0.0403999052941799,-0.9558945894241332
1772807952704949500,4.560949462890625,0.30065760178864,0.1144032087713479,0.830509816719964,0.1321922987699508,0.0668959468603134,-0.897768497467041
1772807952724998400,4.580998291015625,0.3974199399292469,0.0302002002134919,1.0722158286504446,0.1668531894683838,-0.0659075751900672,-0.7899828553199768
1772807952745047600,4.601047607421875,0.6207400350153446,-0.0632619273379445,1.2069385526772587,0.190188318490982,-0.1101621687412262,-0.7307704091072083
1772807952765096400,4.621096435546875,0.7283551910817623,-0.1623275739848613,1.4448849198132752,0.1081583276391029,-0.1139422431588172,-0.7398664355278015
1772807952785145600,4.6411455078125,0.90915307225883,-0.1436120598599314,1.528911402760446,0.0329380072653293,-0.0416707023978233,-0.7445275783538818
1772807952805194500,4.661194580078125,0.9423404715895652,0.0327630364388227,1.5375129346281289,0.014869806356728,0.0124779716134071,-0.7071851491928101
1772807952825243400,4.681243408203125,0.9865566299349068,0.0034413726255297,1.7384895343504845,0.0485603846609592,0.0009451785590499,-0.5840179324150085
1772807952845293600,4.70129345703125,0.9753174430400132,-0.0734814157962799,1.8932288451634347,0.0848013535141944,-0.0919397696852684,-0.4298271536827087
1772807952865342500,4.721342529296875,1.0932266141057014,-0.2449769233599305,1.805042173796892,0.0708359628915786,-0.1465329974889755,-0.3156546354293823
1772807952885391400,4.741391357421875,1.1779577381908892,-0.3322375659227371,1.54399206751436,-0.0283629298210144,-0.1370944678783416,-0.3271872997283935
1772807952905440500,4.7614404296875,1.2178449274212122,-0.4357718824163079,1.4937721387095748,-0.1199196353554725,-0.0844249874353408,-0.3906178772449493
1772807952925489400,4.781489501953125,1.0247282474189996,-0.4577104502409696,1.480205239519477,-0.1320972889661789,-0.0827971026301384,-0.4226981699466705
1772807952945538600,4.80153857421875,0.8524433430433273,-0.4595265597522258,1.429752817133069,-0.0842540338635444,-0.0670676901936531,-0.3918451368808746
1772807952965587500,4.82158740234375,0.8719131826668978,-0.4559185983881354,1.486762406077981,-0.0763921588659286,-0.0648982748389244,-0.3225018084049225
1772807952985636400,4.84163623046875,0.8038304110437631,-0.5632376941174269,1.519563436439633,-0.1669727116823196,-0.1035764142870903,-0.2542782723903656
1772807953005685500,4.861685546875,0.700917733579874,-0.608581102927029,1.349952135187387,-0.2370880246162414,-0.0650807842612266,-0.2386446297168731
1772807953025734400,4.881734375,0.6594242781966925,-0.6923343218907714,1.3039607838630676,-0.2676074802875519,-0.0082213608548045,-0.2430073320865631
1772807953045783600,4.901783447265625,0.4022229562968015,-0.7740344077169895,1.2798564163066446,-0.2599006295204162,-0.0122883198782801,-0.2007861137390136
1772807953065832400,4.92183251953125,0.3990887499243021,-0.9383259752511978,1.3847504768460988,-0.177616685628891,0.0610479414463043,-0.1146270558238029
1772807953085881300,4.94188134765625,0.4843921209394931,-1.0074281530499458,1.452461200286448,-0.1282790601253509,0.1123539730906486,-0.0371803976595401
1772807953105930500,4.961930419921875,0.52210839587152,-1.1930419100761414,1.634840213175118,-0.1202875301241874,0.0529324747622013,0.0736350268125534
1772807953125980400,4.98198046875,0.280554724958539,-1.2485668134212493,1.701997102124989,-0.1106758415699005,-0.1180767863988876,0.1854003667831421
1772807953146029600,5.002029541015625,0.0656581748247146,-1.0976178348019718,1.4555843007430431,-0.1307520866394043,-0.2403774112462997,0.2121917605400085
1772807953166078500,5.022078369140625,-0.2386947743505239,-1.0596920087724924,1.4239070137143135,-0.0832716524600982,-0.2883595526218414,0.2316999435424804
1772807953186127400,5.04212744140625,-0.3884405146598815,-0.8009636234357953,1.314626262523234,-0.0061777383089065,-0.2449314445257187,0.2718138992786407
1772807953206175200,5.06217529296875,-0.3857096283912658,-0.6065276775285601,1.1985594313886017,0.027885278686881,-0.1855602115392685,0.330827921628952
1772807953226224400,5.082224365234375,-0.3705862935394048,-0.5875342232450842,1.2894786695241929,0.0133385388180613,-0.2211566418409347,0.3794234097003937
1772807953246273300,5.102273193359375,-0.3678916476279497,-0.4553054349258542,1.1048976896118372,-0.0522147975862026,-0.2986787855625152,0.3717570900917053
1772807953266322400,5.122322509765625,-0.2467074004143476,-0.3008987170681357,0.9316194633498788,-0.1216863244771957,-0.2574735879898071,0.2910126149654388
1772807953286371300,5.142371337890625,-0.2058323691904544,-0.1852542760640382,1.089248211994022,-0.2485989183187484,-0.1934148371219635,0.1894347667694091
1772807953306420200,5.162420166015625,-0.5333025745809078,-0.0086111764788627,1.1885736055556684,-0.4246226549148559,-0.2220897078514099,0.1698942184448242
1772807953326469400,5.182469482421875,-1.0112538488179446,0.0851863205067813,1.1611622323431074,-0.5021743178367615,-0.1858644634485244,0.241832435131073
1772807953346518300,5.202518310546875,-1.3994915343821048,0.2151252443231642,1.055398549362272,-0.3825182318687439,0.0078062880784273,0.3628062903881073
1772807953366567400,5.2225673828125,-1.3802186786353587,0.2200720530755817,0.9075000443547964,-0.0960870310664177,0.3273131549358368,0.5469241142272949
1772807953386616300,5.2426162109375,-1.094484505212307,0.3617106209054589,0.635730098876357,0.1646153479814529,0.5103234648704529,0.6863277554512024
1772807953406665200,5.262665283203125,-0.6416676722317933,0.3414369175530969,0.4900222357809543,0.2525220215320587,0.4185484647750854,0.7214428782463074
1772807953426715400,5.28271533203125,-0.2660229262590408,0.1096120289720594,0.565484596261382,0.2187285721302032,0.2781190574169159,0.7009932398796082
1772807953446764300,5.302764404296875,0.0751730221450328,0.0587147854276001,0.4657913923006505,0.1264618486166,0.272573709487915,0.6754299998283386
1772807953466813400,5.3228134765625,0.268180396553874,0.064043286973983,0.1911977677036076,-0.0082758273929357,0.3575312793254852,0.6493425369262695
1772807953486862300,5.3428623046875,0.0229056592911481,0.0352897784374654,0.0424024599868804,-0.094187319278717,0.3327319025993347,0.6249311566352844
1772807953506911200,5.3629111328125,-0.3275806800276041,0.1198404313892126,-0.1111773055274039,-0.0415000356733799,0.2927437126636505,0.5945953726768494
1772807953526960400,5.38296044921875,-0.262234639891982,0.286634629394114,-0.2440997751992195,0.0743254423141479,0.3825719356536865,0.5254095792770386
1772807953547009300,5.40300927734375,0.0930775121480226,0.3494492513559758,-0.1276630147736519,0.1896418929100036,0.4939537346363067,0.4659722745418548
1772807953567058400,5.423058349609375,0.4245879328399896,0.4406571702398359,0.1749395836029201,0.217227816581726,0.4686838090419769,0.4752987921237945
1772807953587107300,5.443107421875,0.7485252879291773,0.3918511998862028,0.5444326020129024,0.2520859539508819,0.3523870706558227,0.556976854801178
1772807953607156200,5.46315625,0.968532897466421,0.4662444698303937,0.6496918426029383,0.244637444615364,0.2280160933732986,0.6269470453262329
1772807953627205400,5.483205322265625,1.2434937479406594,0.3518646419346332,0.5532653853531927,0.179974615573883,0.2199165672063827,0.6415637135505676
1772807953647254300,5.503254150390625,1.1823761391550305,0.235618289514631,0.5762039240006357,0.1178082898259162,0.2172801494598388,0.6123546361923218
1772807953667303400,5.523303466796875,1.1513842040419575,0.1899386344879865,0.4704595302421599,0.1075090914964675,0.2630745470523834,0.6078022718429565
1772807953687352300,5.543352294921875,1.2118506554424762,0.092640289774537,0.3181908473264426,0.0305143743753433,0.3133917152881622,0.5873880982398987
1772807953707401200,5.563401123046875,1.0740320842921731,-0.094003687082231,0.3984208606000989,-0.0760149285197258,0.251230925321579,0.5435018539428711
1772807953727451400,5.583451416015625,0.8577034555286168,-0.2192749113485217,0.3346204424712807,-0.1045930609107017,0.2422050982713699,0.4848586916923523
1772807953747500500,5.60350048828125,0.7443722599029541,-0.3443307392984628,0.3565797608230263,-0.1095357611775398,0.2846721708774566,0.4144617617130279
1772807953767549200,5.623549072265625,0.4950228205472231,-0.4366783297367393,0.5380125789027661,-0.0557330287992954,0.3286803960800171,0.408531129360199
1772807953787598300,5.643598388671875,0.5031769009083509,-0.4349861388660967,0.5403223902150989,0.0114707304164767,0.4441479742527008,0.485658049583435
1772807953807647200,5.663647216796875,0.5125906259417533,-0.6433839746303855,0.7055275654628872,0.0066382773220539,0.4502034187316894,0.5643196105957031
1772807953827696400,5.6836962890625,0.318550401353836,-0.7082150509811937,0.717237438609451,0.0004318591672927,0.3580767214298248,0.5975505113601685
1772807953847745500,5.70374560546875,0.178380298641324,-0.7145845860131085,0.5599461417587474,-0.0724264457821846,0.258622258901596,0.5699330568313599
1772807953867794200,5.723794189453125,-0.4034311630427837,-0.6964347429469228,0.4500826587762683,-0.1886227428913116,0.1372401714324951,0.4971180856227875
1772807953887843300,5.74384326171875,-0.8487129243433476,-0.5039904092483222,0.2967620191222057,-0.2147787660360336,0.2044874131679535,0.4483473598957062
1772807953907892200,5.763892333984375,-1.2716051591813564,-0.4791111117966473,0.4195851926492527,-0.127872884273529,0.3851934969425201,0.512902557849884
1772807953927941400,5.78394140625,-1.382291393256187,-0.6303643340595066,0.6735369016360491,0.0468677729368209,0.5744941830635071,0.6720871329307556
1772807953947990500,5.803990478515625,-1.3360674022197725,-0.6080855744950473,0.7638390307866036,0.1998114585876464,0.5642469525337219,0.832909345626831
1772807953968039200,5.8240390625,-1.1833476145356894,-0.4736980007067322,0.5785203842494636,0.2398942559957504,0.4171431958675384,0.8900509476661682
1772807953988088300,5.84408837890625,-0.736272540077567,-0.4448549141906202,0.6044238371171057,0.1262096315622329,0.2495811134576797,0.8086844086647034
1772807954008137200,5.86413720703125,-0.6142588563024998,-0.3610656010001897,0.608538798155263,-0.0885600224137306,0.1370737552642822,0.673786461353302
1772807954028187400,5.8841875,-0.7806213848918676,0.0778740977972745,0.3494976570749655,-0.2317724674940109,0.1441624760627746,0.5392915606498718
1772807954048236300,5.904236328125,-0.839689075410366,0.4941236797504126,0.3900341770594939,-0.172998622059822,0.2702493369579315,0.5022444128990173
1772807954068285200,5.92428515625,-0.7269470778495073,0.804013366395235,0.6116611314268783,0.0208144653588533,0.3788674473762512,0.6154106259346008
1772807954088334300,5.944334228515625,-0.3421697618722915,1.0065069465517995,0.8053925457939505,0.1736456155776977,0.3060536682605743,0.7975266575813293
1772807954108383500,5.964383544921875,0.0901531491339206,0.9061962682798504,0.8498776572737843,0.1380801051855087,0.1094373017549514,0.9044469594955444
1772807954128432400,5.984432373046875,0.5148538946986199,0.5907803655594587,0.9204144709855318,-0.0148345530033111,-0.0264739822596311,0.8612688183784485
1772807954148481300,6.004481201171875,0.384726462572813,0.4402025583401322,1.0067526649411769,-0.1575019359588623,-0.1862068176269531,0.7537997364997864
1772807954168530200,6.0245302734375,-0.0446007737487554,0.7071940373703837,0.6095272977359593,-0.1949656158685684,-0.2359467595815658,0.6676443219184875
1772807954188579300,6.044579345703125,-0.0320288769453763,0.9108937784463168,0.1358543218726292,-0.0935241281986236,0.0285810325294733,0.6169895529747009
1772807954208632600,6.064632568359375,0.5326525862395763,0.9037342620804906,-0.0917381715693511,0.0539536327123642,0.4454196095466614,0.5582128763198853
1772807954228681200,6.08468115234375,1.0507231048971415,0.8263206214018166,-0.078329833074985,0.0435734838247299,0.5281165838241577,0.5154358148574829
1772807954248730400,6.10473046875,1.3722206656187772,0.5708645357340574,0.0148102000823477,0.0069561726413667,0.3637617230415344,0.5319223999977112
1772807954268779500,6.124779541015625,1.731203030604124,0.466010953335464,0.0413923696288838,-0.0376040562987327,0.1726780384778976,0.5207904577255249
1772807954288828400,6.144828369140625,1.806822042950988,0.0518573207482695,0.2741166182024404,-0.0646806806325912,0.0451269932091236,0.4818645715713501
1772807954308877600,6.164877685546875,1.7755612277686594,-0.0076074062637984,0.32146161262542,-0.0316316075623035,-0.0261674206703901,0.4210433661937713
1772807954328926200,6.18492626953125,1.5871867738574743,0.0532446834534406,0.2244406966138631,-0.1267989128828048,-0.1377996802330017,0.3161048889160156
1772807954348976400,6.204976318359375,1.1290922927349805,-0.0719102209568023,0.3150655549127608,-0.2469612956047058,-0.2488337457180023,0.1851039081811905
1772807954369025500,6.225025634765625,0.4532657457917928,-0.0015511749647557,0.3661651160962879,-0.2927482426166534,-0.3105136454105377,0.0725244879722595
1772807954389074400,6.245074462890625,-0.0475935258239507,-0.0056875441171228,0.319272980007343,-0.2322824150323867,-0.2107841074466705,0.0279126651585102
1772807954409123300,6.265123291015625,-0.4614940604329109,0.0203948455139994,0.4116268175233155,-0.1061757355928421,-0.1116645187139511,0.0157139953225851
1772807954429172500,6.28517236328125,-0.684425448462367,0.0881988001957535,0.3326840675812214,0.0339198149740695,-0.0324120782315731,0.0200747847557067
1772807954449221400,6.305221435546875,-0.7338947050303221,0.0463511245474219,0.3148278006341308,0.1231820657849311,-0.0569127798080444,-0.0088995061814785
1772807954469270500,6.3252705078125,-0.7089788749605417,0.0425134460806846,0.2455520928993821,0.1222547069191932,-0.1132053434848785,-0.0988225266337394
1772807954489319400,6.3453193359375,-0.6591916384845972,0.0560411823041737,0.1149543033154681,0.0873524099588394,-0.0879625380039215,-0.2041071951389312
1772807954509368300,6.365368408203125,-0.6149860015332699,0.1623829574339091,0.0756318352958187,0.1052189171314239,0.0049228798598051,-0.2707339525222778
1772807954529417500,6.38541748046875,-0.4940326404660939,0.2072258693754672,0.092293376033008,0.1689412593841552,0.1131284236907959,-0.2481782734394073
1772807954549466400,6.40546630859375,-0.2372930908590555,0.0514563387319445,0.2081362804849632,0.1531972736120224,0.0777246430516243,-0.1736796796321869
1772807954569515500,6.425515625,-0.2726362069189548,0.0176702428556978,0.1266956858451478,0.0106311552226543,-0.07236098498106,-0.1297400891780853
1772807954589564400,6.445564453125,-0.0153659114360809,-0.176273827881366,-0.1005995416833087,-0.1819702833890915,-0.0630341246724128,-0.167638674378395
1772807954609613300,6.46561328125,-0.0062573068290948,-0.0029550504133105,-0.3612063246451318,-0.4274395108222961,-0.0617670007050037,-0.3371042311191559
1772807954629662500,6.485662353515625,-0.0771545513510704,0.0154671798534691,-0.4751910157434642,-0.6652040481567383,-0.1136935427784919,-0.5063993334770203
1772807954649712400,6.50571240234375,-0.4175210631936788,0.0997507063016295,-0.4857158438239246,-0.7548608183860779,-0.2016361951828003,-0.6011995077133179
1772807954669761500,6.525761474609375,-0.8092775705337524,0.3031102556377649,-0.6031362084593623,-0.6202974915504456,-0.1792698353528976,-0.5821170210838318
1772807954689810400,6.545810546875,-0.6436451097846031,0.3514883559681475,-0.6741699388425797,-0.3275820612907409,-0.0046194503083825,-0.5147320628166199
1772807954709859300,6.565859375,-0.4428770382463932,0.7032923537567257,-0.6989309436768293,-0.2037212401628494,0.0021630977280437,-0.5018845200538635
1772807954729908500,6.585908447265625,-0.2063245366215705,0.6361471552446484,-0.5486662209946662,-0.215549424290657,-0.0884949415922164,-0.4532088339328766
1772807954749957400,6.605957275390625,-0.3261602918356657,0.6655149962872267,-0.325821123009175,-0.1675088852643966,-0.1824994832277298,-0.3667192459106445
1772807954770006500,6.626006591796875,-0.2838064202308654,0.5166553911626338,-0.1238382323211058,-0.0853917002677917,-0.1845924258232116,-0.2330867797136306
1772807954790055400,6.646055419921875,-0.2070692175090313,0.3721976742587983,-0.1596225893424823,-0.0535035207867622,-0.1532465517520904,-0.1189071759581565
1772807954810104300,6.666104248046875,-0.0786877522677183,0.3067543112285435,-0.3514451378809288,-0.0392950735986232,-0.1036174669861793,-0.0863321721553802
1772807954830153500,6.686153564453125,0.1148883619397878,0.1867033058285713,-0.4436196002420037,-0.0163919553160667,-0.0573875866830349,-0.1246668621897697
1772807954850202400,6.706202392578125,0.4695774136453867,0.0360793213799595,-0.3598203501794487,0.0128973815590143,0.0052754441276192,-0.1603994369506836
1772807954870251500,6.72625146484375,0.8092325623482465,-0.0672584496282041,-0.1936042443234473,0.0593440942466259,0.0387783385813236,-0.1391481459140777
1772807954890300400,6.746300537109375,1.1032751299113035,-0.1032517001599073,-0.1369283443123102,0.0505315475165843,0.0049783252179622,-0.099453754723072
1772807954910349300,6.766349365234375,1.2523054154276847,-0.262346575833857,0.0196473150823265,0.0057530938647687,-0.0219963733106851,-0.0720456466078758
1772807954930398500,6.7863984375,1.2309388022720813,-0.3717668816260993,0.1461714985517785,-0.0638228058815002,-0.0549726523458957,-0.0779348015785217
1772807954950448600,6.80644873046875,1.2272107216596602,-0.4030114763259887,0.1642137165250256,-0.1255142241716385,-0.0446241497993469,-0.0622915104031562
1772807954970497300,6.826497314453125,1.105336738616228,-0.4901110831081867,0.194249446891807,-0.1659544557332992,-0.0004990203306078,-0.0187614373862743
1772807954990546400,6.84654638671875,0.8316963230907917,-0.6200796714104712,0.3447884564707055,-0.1291836947202682,0.0345353707671165,0.0477775074541568
1772807955010595300,6.86659521484375,0.6841811183124781,-0.6373210213296115,0.2830654291378334,-0.0759222954511642,0.0995540544390678,0.1265091300010681
1772807955030644500,6.88664453125,0.5753565864562988,-0.835090057182312,0.3276534895354882,-0.0389732420444488,0.1436996906995773,0.1992428302764892
1772807955050693600,6.906693603515625,0.5402233137547969,-0.920792656648159,0.3280642988260835,0.0153973354026675,0.1810803115367889,0.2528403997421264
1772807955070742300,6.9267421875,0.4972346513777971,-1.0566922424346208,0.3414312184646725,0.073430947959423,0.2012471854686737,0.3056607246398926
1772807955090791400,6.94679150390625,0.3593541209071874,-1.1039436768226325,0.3069691230230033,0.1010821834206581,0.1644691377878189,0.3378534317016601
1772807955110840300,6.96684033203125,0.2648836930960416,-1.1716619990475474,0.3595153393508866,0.1233385354280471,0.1066045016050338,0.3695142269134521
1772807955130889500,6.986889404296875,0.0798380913466215,-1.0757476560384034,0.3160826230008154,0.0990359559655189,0.0490918979048728,0.3767430484294891
1772807955150938600,7.006938720703125,-0.0581155043601989,-1.0096711096711457,0.2055936102648265,0.0283627491444349,0.0755549743771553,0.3657466471195221
1772807955170987300,7.0269873046875,-0.1567880600363016,-1.0299591338098049,0.3052724021077156,0.0214107986539602,0.2016599923372268,0.3537885546684265
1772807955191036400,7.047036376953125,-0.1608335360348224,-0.947036812712252,0.3349097442740574,0.1298061162233352,0.4057098925113678,0.3450281918048858
1772807955211082000,7.06708203125,0.0600052636295556,-0.9378514896072446,0.3662867697145789,0.2091024965047836,0.4815680682659149,0.2812224328517914
1772807955231132000,7.0871318359375,0.0375642992407083,-1.0506541313141584,0.6275464270945638,0.2106268107891082,0.3390984833240509,0.1797331571578979
1772807955251180800,7.107180908203125,0.1823299130499363,-0.7971487413227558,0.5066220363935455,0.0970140770077705,0.2585665881633758,0.082975685596466
1772807955271230000,7.12722998046875,-0.1222521687060594,-0.5847289565660059,0.3599221665861085,-0.2937723398208618,0.0360325537621974,0.0008109661284834
1772807955291279000,7.147279052734375,-1.1989596096873285,-0.3751062551818788,0.209492005942855,-0.6795902252197266,-0.1805433630943298,-0.0726853460073471
1772807955311328000,7.167327880859375,-2.101620397317409,0.1529538887009024,-0.0600465546211693,-0.7767802476882935,-0.0861188694834709,-0.1599233746528625
1772807955331377200,7.187377197265625,-3.137346424090862,0.7408821527648717,-0.33446426552888,-0.5228849649429321,0.0773269832134246,-0.0902866274118423
1772807955351425800,7.20742578125,-3.174329708573222,1.317266840159893,-0.6505095887266099,-0.0253667645156383,0.324591726064682,0.1665170937776565
1772807955371475000,7.227474853515625,-2.4301339742809533,1.3448013282954692,-0.6613430443648248,0.3915862441062927,0.4410257637500763,0.5293384194374084
1772807955391524000,7.247524169921875,-1.182182662409544,1.1460274993143975,-0.5407359394520521,0.5573045611381531,0.4115649461746216,0.8013739585876465
1772807955411573000,7.267572998046875,0.0784282245486974,0.8921025687366724,-0.5570366109875962,0.5354228615760803,0.2897165715694427,0.8896167874336243
1772807955431622100,7.2876220703125,0.684022712880373,0.6545085952349007,-0.5308516012322158,0.365692526102066,0.0597502179443836,0.8287820219993591
1772807955451670800,7.3076708984375,0.9341524889588356,0.3831761643908917,-0.4076539683695882,0.1813834011554718,-0.2276147454977035,0.6343762278556824
1772807955471720000,7.327719970703125,0.5851508352398872,0.4726075751215219,-0.3514939819913357,0.1158016100525856,-0.4731196165084839,0.4290774464607239
1772807955491769000,7.34776904296875,0.4083873241454362,0.6237862708434462,-0.4516262714890763,0.1926933079957962,-0.4223701059818268,0.348055362701416
1772807955511818000,7.36781787109375,0.5480716891676187,0.8319193181917071,-0.5635278727030382,0.2631359696388244,-0.1654400527477264,0.331152856349945
1772807955531868000,7.387867919921875,0.8024152835488318,0.8392137129835784,-0.5228701374916359,0.2537154257297516,0.0470740050077438,0.3178057968616485
1772807955551917000,7.4079169921875,1.2328636328548193,0.7697920939721167,-0.5105405615441501,0.1848088800907135,0.1228965744376182,0.2477393895387649
1772807955571966000,7.427966064453125,1.5007617053359743,0.6571772299222648,-0.4337606156591326,0.0874590873718261,0.0377282537519931,0.1181281208992004
1772807955592015000,7.44801513671875,1.53305361713171,0.4821157004401087,-0.254332780726254,0.0303589254617691,-0.0804178640246391,0.0025394922122359
1772807955612064000,7.46806396484375,1.592744992506504,0.4027398197777569,-0.1713413947141729,-0.0025088461115956,-0.0994397178292274,-0.090756855905056
1772807955632113000,7.48811279296875,1.5492109712064266,0.3400881332926452,-0.1202939473103731,-0.0827139094471931,-0.0712848827242851,-0.182423710823059
1772807955652162000,7.508162109375,1.282631580108404,0.1932594494737684,0.1011165056289639,-0.1274390965700149,-0.0400451533496379,-0.2315900921821594
1772807955672211000,7.5282109375,1.0010258847922089,0.2064092922955751,0.153281951611489,-0.1358102411031723,-0.0287978556007146,-0.2254835963249206
1772807955692260000,7.548260009765625,0.7241618310451508,0.0415944315396249,0.1626405306578613,-0.1453895568847656,-0.0591628924012184,-0.1987712979316711
1772807955712309000,7.56830908203125,0.3802063547998666,-0.077252166506648,0.105990029949462,-0.1034223139286041,-0.0501499697566032,-0.2082829922437667
1772807955732358000,7.58835791015625,0.2373632334858179,-0.0924982509553432,-0.0750883852020371,-0.0780200660228729,0.0047649620100855,-0.2687708139419555
1772807955752407000,7.608406982421875,0.2158972516089677,-0.2844695603147149,-0.102887360359542,-0.1002131178975105,0.0782226771116256,-0.3272547423839569
1772807955772456000,7.6284560546875,0.054545829179883,-0.3802738670781254,-0.1044865757171064,-0.1267593950033188,0.0730588361620903,-0.3868008852005005
1772807955792505900,7.648505859375,-0.1294979020506143,-0.4834950259692966,-0.06352965662973,-0.1389747858047485,0.0175138209015131,-0.4231548905372619
1772807955812555000,7.668554931640625,-0.4594757063478231,-0.4968174488790333,-0.0494602238781284,-0.1609017252922058,-0.1348262578248977,-0.4236378371715545
1772807955832604000,7.68860400390625,-0.8066706029057502,-0.4325334850169718,-0.0195561342341126,-0.1407085508108139,-0.332623690366745,-0.426306277513504
1772807955852653000,7.708653076171875,-0.9251163650661708,-0.2543339497700333,-0.166985373195447,-0.0010014462750405,-0.2891894280910492,-0.3883099853992462
1772807955872702000,7.728701904296875,-0.7879851916581392,-0.2010067025996744,-0.4016014268649742,0.140688270330429,-0.1413507312536239,-0.3567769825458526
1772807955892751000,7.748751220703125,-0.9084937315672637,0.1037798156872391,-0.5928245847381651,0.13539719581604,-0.1385953873395919,-0.4293338358402252
1772807955912800000,7.768800048828125,-0.5447247168272733,0.0464580920532345,-0.535442363088578,-0.0164678655564785,-0.2006256878376007,-0.5473994016647339
1772807955932849000,7.788848876953125,-0.4539209948301315,0.1281098086930811,-0.5234304747881368,-0.2415086925029754,-0.2309748530387878,-0.6435607075691223
1772807955952898000,7.80889794921875,-0.3437982398569583,0.2073665930204093,-0.5621175309810788,-0.3415434956550598,-0.0623253397643566,-0.6484104990959167
1772807955972947000,7.828947021484375,-0.2892804677277803,0.2177016706824302,-0.5549268522920087,-0.2919744849205017,0.160865381360054,-0.5579442977905273
1772807955992996000,7.84899609375,-0.0936859994351863,0.1596095471978187,-0.4796435016402974,-0.189917042851448,0.2360751777887344,-0.4654347896575928
1772807956013045000,7.869044921875,-0.107418756711483,0.0799802762962877,-0.4209748934419825,-0.1360416263341903,0.0825884267687797,-0.4278210699558258
1772807956033094000,7.889093994140625,-0.0325713132590055,-0.0045018414638936,-0.3549550822306424,-0.0905699506402015,-0.1675104051828384,-0.4258163571357727
1772807956053144000,7.90914404296875,-0.1411485923558473,0.0911859993129968,-0.4692792344164103,-0.0988404899835586,-0.3072517514228821,-0.4078145027160644
1772807956073193000,7.92919287109375,-0.1916933692008257,0.2179989000633359,-0.8123527401953935,-0.1347293406724929,-0.2148730903863906,-0.3878304362297058
1772807956093241900,7.949241943359375,-0.1680938824266195,0.2303640222482383,-0.9752427703686058,-0.0556845739483833,0.0170783381909132,-0.3820166289806366
1772807956113291000,7.969291015625,-0.0075444240301847,0.2333415767543017,-0.8823958521060645,0.1407585889101028,0.133091315627098,-0.3931358754634857
1772807956133340000,7.98933984375,0.3272276288062334,0.1753457532510161,-0.8784042251866311,0.2776540219783783,0.0598106235265731,-0.3837220668792724
1772807956153389000,8.00938916015625,0.9504764317721128,0.0850925047434866,-0.8851875286512076,0.3086788356304168,0.0344525426626205,-0.4227533042430877
1772807956173438000,8.02943798828125,1.4334966798365116,-0.0317051979489624,-0.7464104877322911,0.2238600701093673,0.0093783233314752,-0.5143482685089111
1772807956193486800,8.04948681640625,1.714956829202175,-0.0743676971115171,-0.7252803867463022,0.0822444632649421,0.0440059006214141,-0.6250119805335999
1772807956213535700,8.06953564453125,1.818793051251769,-0.1073208492949605,-0.6178465055309236,-0.0591389723122119,0.080830194056034,-0.6844807267189026
1772807956233585000,8.0895849609375,1.589818291404843,-0.1694312685102224,-0.4341675159595906,-0.1492981910705566,0.0709993541240692,-0.6668684482574463
1772807956253633800,8.1096337890625,1.2238257553964853,-0.1930957833446562,-0.3367462389862165,-0.1764011830091476,0.027909941971302,-0.5764386653900146
1772807956273683000,8.129682861328124,0.9257698605388404,-0.2203052773095667,-0.340969738432765,-0.1695230901241302,0.0591142438352108,-0.4783657789230346
1772807956293732900,8.14973291015625,0.6279279006928206,-0.3636756373681127,-0.1906167529452592,-0.1922386884689331,0.0668016895651817,-0.3975918889045715
1772807956313781800,8.16978173828125,0.4047673800826072,-0.5930579551026225,-0.117710716750985,-0.2166720181703567,0.0833586305379867,-0.3050721883773803
1772807956333831000,8.189830810546875,-0.0140606740564107,-0.7172014905132353,0.0407284258274361,-0.226153090596199,0.0260868016630411,-0.2100101560354232
1772807956353879800,8.2098798828125,-0.6024824937909841,-0.873084710664302,0.1230898068402893,-0.1770093441009521,-0.0942196026444435,-0.049573827534914
1772807956373928700,8.2299287109375,-1.360229783573747,-0.7271415044430642,0.0102996227561496,-0.1638689339160919,-0.2684750854969024,0.0803752616047859
1772807956393977900,8.249977783203125,-2.025189484065771,-0.765077121214196,0.0672470742842415,-0.1204486638307571,-0.3015187680721283,0.1649805456399917
1772807956414026800,8.27002685546875,-2.263983042615652,-0.5865259960506111,0.0894818988088518,0.0685942247509956,-0.0924861952662468,0.1874562948942184
1772807956434076000,8.290075927734375,-1.9245400753587485,-0.3943021001696586,-0.0502838837193558,0.3540359437465668,0.3270116448402405,0.2136093974113464
1772807956454124800,8.310124755859375,-1.5499609127908944,-0.2551145787537098,0.1893493633579462,0.4878680408000946,0.4041230082511902,0.2370715290307998
1772807956474173700,8.330173583984376,-1.2007839025050402,-0.3057834203697741,0.5129212461356073,0.4131708741188049,0.1861014366149902,0.3061623275279999
1772807956494222800,8.350222900390625,-0.7453554257214069,-0.493146797542274,0.7438046891480684,0.1432052850723266,-0.0204029139131307,0.3213779628276825
1772807956514271700,8.370271728515625,-0.8017050894528627,-0.5484028208181262,0.8397596564285457,-0.1092980951070785,-0.1481649428606033,0.2742365598678589
1772807956534321000,8.39032080078125,-0.9503057513803244,-0.3021333734296262,0.6563523234054446,-0.1631694734096527,-0.0901553779840469,0.2413811832666397
1772807956554370800,8.410370849609375,-1.3772095599472522,0.2549146722674369,0.3340061464978381,-0.073792852461338,-0.0750749558210372,0.2347601950168609
1772807956574419700,8.430419677734376,-1.248088089993596,0.4850863868139684,0.3296366627093404,0.0935526341199874,0.0749654248356819,0.2558995485305786
1772807956594468900,8.45046875,-0.5396838000506162,0.6902164529539644,0.3211045793486758,0.3280352056026459,0.3207533061504364,0.3606376945972442
1772807956614518000,8.47051806640625,0.0953279214233159,0.6294006035938858,0.5440272726150229,0.4926871061325073,0.3823080360889435,0.5056333541870117
1772807956634566700,8.490566650390624,0.7292348965257406,0.4099699171617627,0.7990561093140393,0.4983740746974945,0.1829709559679031,0.5870280265808105
1772807956654615800,8.51061572265625,1.1490864484936,0.1509185834810137,0.9378538276948034,0.4388583898544311,-0.1031284481287002,0.5764787197113037
1772807956674664700,8.530664794921876,1.125555350780487,0.1780924216106534,1.004336470644921,0.4041935801506042,-0.3892699480056762,0.5147482752799988
1772807956694713900,8.5507138671875,1.1971867547959087,0.5374151244662702,0.5940243159167469,0.319637656211853,-0.4197625517845154,0.4261030852794647
1772807956714763000,8.570762939453125,1.3283067050904034,0.6331821679592132,0.2165674607544206,0.1612966507673263,-0.181097075343132,0.350050538778305
1772807956734812000,8.59081201171875,1.3966174402505158,0.6629921998113394,0.1385559911799151,0.0257123038172721,0.0557251349091529,0.2496369779109954
1772807956754860800,8.61086083984375,1.022627475747466,0.5866942652896047,0.2540208287002519,0.0063642654567956,0.0536001808941364,0.1846944987773895
1772807956774909700,8.63090966796875,0.6760977651000023,0.6728469466105103,0.2517310007300227,0.0727021843194961,-0.117047443985939,0.1026432663202285
1772807956794958800,8.650958740234374,0.7537947527647018,0.5444163815304637,0.266286034174636,0.1525827348232269,-0.0968162417411804,0.0373164191842079
1772807956815008800,8.6710087890625,1.049374028375745,0.4590390684962272,0.3419298887018114,0.1536302119493484,0.0467699356377124,-0.0148386787623167
1772807956835057700,8.6910576171875,1.1299509553909302,0.3187878633715212,0.571586639463529,0.1276383250951767,0.1053699553012847,-0.0124614965170621
1772807956855106800,8.71110693359375,1.054258293285966,0.4011610261537134,0.5514628294432535,0.0676599740982055,0.0402886494994163,-0.0134413158521056
1772807956875156000,8.731156005859376,1.1123889952152968,0.2248309380404651,0.5637986524684354,-0.0395492166280746,0.0117699271067976,-0.0508429035544395
1772807956895204900,8.751204833984374,0.970589829996228,0.1583472721770405,0.4018246046289801,-0.114145740866661,-0.0023123235441744,-0.1162836700677871
1772807956915253800,8.771253662109375,0.6101140115827322,0.1521589389309287,0.3239314368050545,-0.0852917283773422,0.0171505901962518,-0.1679026484489441
1772807956935302700,8.791302734375,0.3660685238540172,0.0552191983968019,0.3564223052389919,-0.0228223372250795,0.000755614018999,-0.1574188470840454
1772807956955351800,8.811351806640625,0.3144470576882362,-0.0273462720870971,0.352324112672545,0.0216026417911052,-0.0782417207956314,-0.1118637919425964
1772807956975401000,8.83140087890625,0.1883680241703987,-0.0321118790537118,0.228614073308371,0.0296253208070993,-0.1186064407229423,-0.1211484149098396
1772807956995449900,8.851449951171874,-0.0559323151022195,-0.0238183902218937,0.2282140776727348,0.0358952619135379,-0.1574531942605972,-0.1889033317565918
1772807957015498800,8.871498779296875,-0.2433539983332157,0.0208082486204802,0.1703244544902816,0.0185382012277841,-0.1623856574296951,-0.2273683845996856
1772807957035549000,8.891548828125,-0.3198462863832711,0.0326567995853722,0.0073322608505375,0.0164559967815876,-0.0885665267705917,-0.214632898569107
1772807957055597800,8.911597900390625,-0.2349345450341701,-0.0252123287983238,0.02327903178134,0.0934908911585807,0.0391605570912361,-0.1774781942367553
1772807957075647000,8.93164697265625,-0.19410978269279,-0.0438220444612205,0.0525057564533315,0.0675306394696235,-0.031076356768608,-0.1582815498113632
1772807957095695600,8.951695556640624,-0.1466045196741819,-0.0608610036760568,-0.075121803414449,-0.0953387692570686,-0.1307368576526641,-0.1605163067579269
1772807957115744800,8.971744873046875,-0.2254541845053434,0.0726508101910352,-0.0956420654064044,-0.3256077468395233,-0.1524550169706344,-0.2536709606647491
1772807957135794000,8.9917939453125,-0.6097492699235677,0.4635075922124088,-0.3110441173769533,-0.5133583545684814,-0.0912835225462913,-0.3673650920391083
1772807957155842800,9.0118427734375,-0.7511158889442682,0.7396918470017612,-0.560060379255563,-0.4710998833179474,0.0960171595215797,-0.449036955833435
1772807957175892000,9.03189208984375,-0.3708446522146463,0.9163748402059078,-0.5597946044588461,-0.125690758228302,0.2620047926902771,-0.4089243710041046
1772807957195940600,9.051940673828126,0.044784313622117,1.0590602867402137,-0.7095178772080689,0.1880764961242675,0.1592989265918731,-0.3837399184703827
1772807957215990500,9.071990478515623,0.5601718768060207,1.1520907448761164,-0.6518977551493793,0.117946907877922,-0.0106097217649221,-0.4768889844417572
1772807957236039400,9.092039306640626,0.8018401140093803,0.8819820106081664,-0.4085048495778813,-0.332477867603302,-0.1121560409665107,-0.535205066204071
1772807957256088600,9.112088623046876,0.497896914678812,0.4083101672559976,-0.1016482744181063,-0.7067184448242188,-0.106657899916172,-0.4849542677402496
1772807957276138500,9.132138427734375,-0.0399883115172386,0.6101723176412284,-0.3362708400268107,-0.7512384057044983,-0.0496255308389663,-0.3874245285987854
1772807957296187400,9.1521875,-0.6939695218771695,0.4282240973852574,-0.4890728991668671,-0.5901592969894409,-0.0470193512737751,-0.3181232810020447
1772807957316236500,9.172236572265623,-0.9749199681550264,0.2587999892681837,-0.5754219433100893,-0.3074976801872253,-0.0199159029871225,-0.2934902906417846
1772807957336285400,9.192285400390626,-0.819341868430376,0.2449202247366309,-0.689261124990508,-0.0972437113523483,0.0359202697873115,-0.2937339246273041
1772807957356334300,9.212334228515624,-0.1447837339878082,0.0942576618432998,-0.6444472199477255,-0.0394369214773178,0.1265175640583038,-0.26581010222435
1772807957376383500,9.232383544921875,0.5174439111918211,-0.0295772460095584,-0.480786680326052,-0.0241881199181079,0.2136169672012329,-0.2161325365304947
1772807957396432400,9.252432373046876,0.8633774095118045,-0.2318129058822989,-0.2890409233508631,-0.0112202428281307,0.1629964709281921,-0.1428506821393966
1772807957416481500,9.2724814453125,1.0573007297217845,-0.358795317980647,-0.2573727146777324,-0.0240173619240522,0.0129810478538274,-0.0752984806895256
1772807957436530400,9.292530517578124,0.9273211816340684,-0.4400492674745619,-0.3136624466491863,-0.0699846893548965,-0.2180739641189575,-0.0682637020945549
1772807957456579300,9.312579345703124,0.5491477939665317,-0.4381210758909583,-0.4393802821718156,-0.1306236684322357,-0.3995926082134247,-0.115257941186428
1772807957476628500,9.33262841796875,0.1348433547317981,-0.4116187072820961,-0.7071516595333814,-0.1652614325284958,-0.3876461386680603,-0.157762125134468
1772807957496677400,9.352677490234376,-0.3239063754290342,-0.2982121083326637,-0.8384114566899835,-0.09586963057518,-0.2807236909866333,-0.1536470651626587
1772807957516727600,9.3727275390625,-0.3973673329591751,-0.2702301686905324,-0.9970417835921048,0.0737948417663574,-0.0318622626364231,-0.1029214709997177
1772807957536776400,9.3927763671875,-0.2032230634748935,-0.2163147463686764,-1.0688123768825084,0.2533066272735595,0.1868224292993545,-0.1122945472598075
1772807957556825300,9.412825439453124,0.057443888708949,-0.3418542661823332,-0.7532276204012334,0.3504263162612915,0.1680276989936828,-0.1630051583051681
1772807957576874500,9.43287451171875,0.3747071728616952,-0.4997859432958066,-0.5078962575804442,0.3047780394554138,0.0202075988054275,-0.1967118233442306
1772807957596923400,9.45292333984375,0.4382803581058979,-0.447824285390228,-0.3599154811169952,0.1554691195487976,-0.1425128728151321,-0.2749711275100708
1772807957616972500,9.47297265625,0.3102449298232793,-0.4255445029124617,-0.1607712479209527,0.0115713207051157,-0.1917738914489746,-0.3504734933376312
1772807957637021400,9.493021484375,-0.0932213045328855,-0.1019081765964627,-0.0482350477310363,0.0235309936106205,-0.0863497108221054,-0.3646505773067474
1772807957657070300,9.5130703125,-0.1609925259888172,0.1000840299092233,0.0329683314862661,0.1582666188478469,0.1393105834722519,-0.2498844116926193
1772807957677119500,9.533119384765625,-0.157885792145133,0.2576458507969975,0.1668648703546263,0.2543036937713623,0.231982335448265,-0.0905473455786705
1772807957697168400,9.55316845703125,-0.1414502056509256,0.3423379580460489,0.1617265758844092,0.2986338138580322,0.2002633959054947,0.0500308685004711
1772807957717217500,9.573217529296874,0.2059235546052455,0.2348039043918252,0.0351909577054902,0.2268079221248626,0.1851515173912048,0.0997925251722335
1772807957737267500,9.593267333984375,0.1245961014837026,-0.0666132835924625,0.1005134069029707,0.0885370299220085,0.074137695133686,0.0647829174995422
1772807957757316400,9.61331640625,0.0358078109622001,-0.0533170180372893,0.0858161519760731,0.0050309668295085,-0.0021398079115897,-0.0173967964947223
1772807957777365500,9.633365478515625,-0.1772264524310827,0.0034546704985201,-0.04821848932188,-0.1276835650205612,-0.1443962305784225,-0.1218821331858635
1772807957797414700,9.65341455078125,-0.6935942588239907,0.2260986198887228,-0.2171965159055776,-0.3405131995677948,-0.4014691412448883,-0.2913041710853576
1772807957817463300,9.67346337890625,-1.322664315289259,0.85261548473984,-0.5802030766393989,-0.4108802378177643,-0.4272567927837372,-0.4518834054470062
1772807957837512400,9.693512451171877,-1.2669780839025973,1.4071744901001453,-0.9423952705167232,-0.2486232817173004,0.1057736203074455,-0.436175525188446
1772807957857561300,9.713561279296876,-0.8329735034197568,1.5288845147535204,-0.8025482622787355,-0.1081698611378669,0.634628415107727,-0.3556751012802124
1772807957877610500,9.733610595703125,-0.088716394329071,1.3948613903634248,-0.5557155915169045,-0.0597074627876281,0.8417453765869141,-0.226839929819107
1772807957897659600,9.75365966796875,0.603400193157792,1.43872172100842,0.2746467795563861,0.1446327716112136,0.5859043002128601,-0.309316873550415
1772807957917708300,9.773708251953124,-0.6984025358885526,0.7042046462960541,0.8274215683810412,0.0499034076929092,-0.3160745501518249,-0.296356737613678
1772807957937757400,9.79375732421875,-0.0400140304803848,0.6309094007216394,0.4451821003183722,-0.1467163264751434,-0.6276830434799194,-0.2391965389251709
1772807957957806300,9.813806396484376,0.5125052857458591,1.086678361506015,-0.026750479884725,-0.2228527814149856,-0.3439724743366241,-0.2748195230960846
1772807957977855500,9.83385546875,0.8969774812966584,0.944837110710889,-0.096951266575139,-0.1403794735670089,0.0413591489195823,-0.308167815208435
1772807957997905400,9.853905517578124,0.6605185031741857,0.6122413790002464,0.0023586188901215,-0.0984869673848152,-0.1465100049972534,-0.312135100364685
