time,seconds_elapsed,accel_z,accel_y,accel_x,gyro_x,gyro_y,gyro_z
1.7726342702814953e+18,0.230495361328125,0.02146577835083,0.1243324279785156,0.0007261037826538,-0.0143810575827956,0.0263652727007865,-0.0268979035317897
1.7726342703014927e+18,0.25049267578125,0.0408742427825927,0.1205301284790039,-0.0310733318328857,-0.0162452682852745,0.0436758026480674,-0.0327568538486957
1.7726342703214902e+18,0.270490234375,0.0420273542404174,0.1362552642822265,-0.0740784406661987,-0.0189084280282259,0.0540621243417263,-0.034621063619852
1.7726342703414874e+18,0.2904873046875,0.0819537639617919,0.209503173828125,-0.1360707283020019,-0.0151800047606229,0.0556600205600261,-0.0258326400071382
1.7726342703614848e+18,0.31048486328125,0.0877785682678222,0.0954494476318359,-0.132461667060852,-0.0205063223838806,0.0476705431938171,-0.0218379013240337
1.7726342703814822e+18,0.330482177734375,0.0272121429443359,-0.0044317245483398,-0.0790776014328002,-0.0263652727007865,0.0378168560564518,-0.032091062515974
1.7726342704014794e+18,0.3504794921875,0.0247740745544433,-0.0083951950073242,0.022621750831604,-0.0292947478592395,0.032490536570549,-0.0304931681603193
1.7726342704214769e+18,0.370476806640625,0.032119870185852,-0.006575584411621,-0.0939751863479614,-0.0263652727007865,0.0335558019578456,-0.0134489517658948
1.7726342704414743e+18,0.390474365234375,0.0881901979446411,0.1855916976928711,-0.2532579898834228,-0.0280963256955146,0.048469491302967,-0.0025300008710473
1.7726342704614717e+18,0.4104716796875,0.0803481340408325,0.1332530975341797,-0.1967668533325195,-0.027830010280013,0.0796284452080726,-0.0073236869648098
1.772634270481469e+18,0.430468994140625,-0.0432113409042358,-0.0473508834838867,-0.3514868021011352,-0.0255663245916366,0.1097221449017524,-0.0279631670564413
1.7726342705014664e+18,0.45046630859375,-0.0281405448913574,-0.0503559112548828,-0.5148190259933472,-0.0274305362254381,0.1302284598350525,-0.0221042186021804
1.7726342705214638e+18,0.4704638671875,0.0580126047134399,0.181467056274414,-0.4737015962600708,-0.020240006968379,0.1190432012081146,0.0050600017420947
1.7726342705414612e+18,0.490461181640625,0.1494829654693603,0.2555103302001953,-0.4591479301452636,-0.0146473739296197,0.1070589870214462,-0.0234357975423336
1.7726342705614584e+18,0.51045849609375,0.1134424209594726,0.1191368103027343,-0.4695655107498169,-0.0181094799190759,0.0902810841798782,-0.0628505498170852
1.772634270581456e+18,0.530455810546875,0.0555381774902343,0.1209888458251953,-0.4959632158279419,-0.0178431645035743,0.0857537165284156,-0.0950747728347778
1.7726342706014492e+18,0.55044921875,0.1221488714218139,0.2082319259643554,-0.4052330255508423,-0.0170442163944244,0.0913463458418846,-0.0844221338629722
1.7726342706214413e+18,0.570441162109375,0.0416095256805419,0.2242031097412109,-0.3574509620666504,-0.0287621151655912,0.0719052851200103,-0.0625842288136482
1.7726342706414336e+18,0.59043359375,0.1498068571090698,0.0442132949829101,-0.4055917263031006,-0.0418115928769111,0.0511326491832733,-0.0436758026480674
1.772634270661426e+18,0.610426025390625,0.0550997257232666,-0.0165891647338867,-0.3420844078063965,-0.0431431718170642,0.0370179079473018,-0.0308926422148942
1.772634270681418e+18,0.63041796875,-0.0050137042999267,0.0906200408935546,-0.2464874982833862,-0.049268439412117,0.0165115855634212,-0.0245010610669851
1.7726342707014103e+18,0.650410400390625,0.0876272916793823,0.1305675506591797,-0.1408417820930481,-0.0436758026480674,-0.0130494777113199,-0.0247673764824867
1.7726342707214026e+18,0.670402587890625,0.1245430707931518,0.141392707824707,-0.1199020147323608,-0.0330231711268425,-0.0540621243417263,-0.0372842252254486
1.7726342707413947e+18,0.690394775390625,0.0229263305664062,0.1041851043701171,-0.1226600408554077,-0.043409489095211,-0.0727042332291603,-0.042610540986061
1.772634270761387e+18,0.710386962890625,0.0294042825698852,-0.0576639175415039,-0.1599225997924804,-0.0420779101550579,-0.0873516052961349,-0.035420011729002
1.772634270781379e+18,0.730379150390625,0.00409996509552,-0.1230363845825195,-0.2012334465980529,-0.0292947478592395,-0.0852210819721221,-0.0308926422148942
1.7726342708013714e+18,0.750371337890625,-0.0411086082458496,-0.0839958190917968,-0.208084225654602,-0.0255663245916366,-0.0902810841798782,-0.0290284305810928
1.7726342708213637e+18,0.77036376953125,-0.0587018728256225,0.008671760559082,-0.1989349126815796,-0.0191747434437274,-0.1043958216905593,-0.032490536570549
1.7726342708413558e+18,0.790355712890625,-0.1129660010337829,0.1016607284545898,-0.2552359700202942,-0.0061252652667462,-0.13209268450737,-0.0503337010741233
1.772634270861348e+18,0.81034814453125,-0.0105446577072143,0.0508337020874023,-0.2834073901176452,-0.0007989476434886,-0.1507347822189331,-0.0681768655776977
1.7726342708813404e+18,0.83034033203125,0.0135235786437988,0.037999153137207,-0.2682703137397766,0.0007989476434886,-0.1656484752893448,-0.0889495015144348
1.7726342709013325e+18,0.85033251953125,-0.0689303874969482,0.0537223815917968,-0.220328688621521,-0.0083889504894614,-0.1759016364812851,-0.0980042442679405
1.7726342709213248e+18,0.87032470703125,-0.1645722985267639,0.0745906829833984,-0.1222823858261108,-0.0059921070933341,-0.199337437748909,-0.098536878824234
1.7726342709413169e+18,0.89031689453125,-0.1185119748115539,-0.0239038467407226,-0.0455572605133056,0.0022636849898844,-0.2443448156118393,-0.0924116075038909
1.7726342709613092e+18,0.91030908203125,-0.1092682480812072,0.0167484283447265,0.0535456538200378,0.0078563187271356,-0.2901511490345001,-0.0908137187361717
1.7726342709813015e+18,0.930301513671875,-0.0685598850250244,0.1670904159545898,0.0200638771057128,-0.0006657897029072,-0.2925480008125305,-0.10359688103199
1.7726342710012936e+18,0.95029345703125,-0.039886474609375,0.1407537460327148,-0.0049338340759277,-0.0123836882412433,-0.2712427377700805,-0.1169126704335212
1.772634271021286e+18,0.970285888671875,-0.0348912477493286,0.0047807693481445,-0.0224449634552001,-0.0163784269243478,-0.2331595569849014,-0.1291632056236267
1.772634271041278e+18,0.99027783203125,-0.0849720239639282,-0.0365791320800781,-0.0117386579513549,-0.0262321140617132,-0.1862879544496536,-0.1265000402927398
1.7726342710612703e+18,1.010270263671875,-0.1499753594398498,0.0414133071899414,0.0335596799850463,-0.03795001283288,-0.1463405787944793,-0.1121189892292022
1.7726342710812626e+18,1.0302626953125,-0.1374096274375915,0.0808277130126953,0.0312579870223999,-0.0339552760124206,-0.1186437234282493,-0.1198421493172645
1.7726342711012541e+18,1.050254150390625,-0.1397224068641662,0.0578622817993164,-0.0328341126441955,-0.0155794788151979,-0.078430026769638,-0.1086568832397461
1.7726342711212457e+18,1.07024560546875,-0.0723233222961425,0.0442266464233398,-0.1593015789985656,-0.0118510564789175,-0.0211721118539571,-0.0849547684192657
1.7726342711412372e+18,1.0902373046875,0.0438798666000366,0.0492963790893554,-0.2173593044281005,-0.0134489517658948,0.0275636930018663,-0.064182125031948
1.7726342711612288e+18,1.110228759765625,0.0078026056289672,0.0018587112426757,-0.1439824104309082,-0.0091878976672887,0.0541952811181545,-0.0647147595882415
1.77263427118122e+18,1.13022021484375,-0.0407860279083251,-0.0548343658447265,-0.2178916931152343,0.0027963167522102,0.0720384493470192,-0.0673779174685478
1.7726342712012116e+18,1.150211669921875,0.0281463861465454,-0.0443630218505859,-0.23862886428833,0.0203731656074523,0.0872184485197067,-0.0623179152607917
1.7726342712411948e+18,1.19019482421875,0.1345562934875488,0.2385711669921875,-0.2907063066959381,0.017710005864501,0.0802942365407943,-0.0753673911094665
1.7726342712611863e+18,1.210186279296875,0.1086883544921875,0.3049783706665039,-0.2159030735492706,0.0113184247165918,0.0821584463119506,-0.0940095037221908
1.7726342712811776e+18,1.230177490234375,0.0276416540145874,0.1650018692016601,-0.2642354965209961,0.0158457942306995,0.0712395012378692,-0.1150484606623649
1.7726342713011692e+18,1.250169189453125,0.0601269006729126,0.12158203125,-0.2153211236000061,0.0235689561814069,0.0427436977624893,-0.0671116039156913
1.7726342713211607e+18,1.27016064453125,0.0488392114639282,0.0445432662963867,-0.2082594037055969,0.0334226414561271,-0.0134489517658948,-0.0085221081972122
1.7726342713411523e+18,1.29015234375,0.0367871522903442,-0.0277376174926757,-0.0726629495620727,0.0241015870124101,-0.0270310621708631,0.0495347529649734
1.7726342713611438e+18,1.310143798828125,-0.081152319908142,-0.1143159866333007,-0.0472364425659179,0.0238352715969085,-0.0560594946146011,0.0356863290071487
1.772634271381135e+18,1.330135009765625,-0.0744440555572509,-0.0044898986816406,-0.0893824994564056,0.0083889504894614,-0.062717393040657,0.0183757953345775
1.7726342714011267e+18,1.350126708984375,-0.1516737341880798,0.1239824295043945,0.0238531827926635,0.0328900106251239,-0.0824247673153877,-0.032490536570549
1.7726342714211182e+18,1.3701181640625,-0.2042596936225891,0.1990900039672851,0.0886336863040924,0.0384826436638832,-0.0893489792943,-0.0529968589544296
1.7726342714411098e+18,1.39010986328125,-0.1066906452178955,0.0691032409667968,0.0226303040981292,0.0318247489631176,-0.0925447717308998,-0.0367515906691551
1.7726342714611013e+18,1.410101318359375,-0.0793449878692627,0.0300569534301757,0.1050153374671936,0.0262321140617132,-0.0944089815020561,0.0298273786902427
1.7726342714810926e+18,1.430092529296875,-0.0640149116516113,0.1821966171264648,0.1305689513683319,0.0206394810229539,-0.0749679207801818,0.0495347529649734
1.7726342715010842e+18,1.450084228515625,-0.0662193298339843,0.1631946563720703,0.2153197526931762,0.0395479090511798,-0.017710005864501,0.0322242230176925
1.7726342715210757e+18,1.47007568359375,-0.0635555982589721,-0.0049524307250976,0.161787748336792,0.027830010280013,-0.0203731656074523,0.0074568446725606
1.7726342715410673e+18,1.4900673828125,-0.0897620916366577,-0.0726385116577148,0.0155386328697204,0.0203731656074523,0.0118510564789175,0.0101200034841895
1.7726342715610586e+18,1.51005859375,-0.0144127607345581,-0.0732288360595703,-0.0817775130271911,0.0139815835282206,0.0499342270195484,0.0114515833556652
1.77263427158105e+18,1.530050048828125,0.0752913951873779,0.0412263870239257,-0.1263638734817505,0.0150468470528721,0.0768321305513382,0.0114515833556652
1.772634271601042e+18,1.5500419921875,0.1547716856002807,0.1412734985351562,-0.1766402125358581,0.0174436904489994,0.1074584573507309,0.020240006968379
1.7726342716210335e+18,1.570033447265625,0.190712571144104,0.1640071868896484,-0.2227884531021118,0.0134489517658948,0.1258342564105987,0.0260989554226398
1.7726342716410253e+18,1.590025390625,0.268726110458374,0.1352710723876953,-0.2519912123680115,0.010785792954266,0.1346226781606674,0.0250336937606334
1.772634271661017e+18,1.61001708984375,0.2260582447052002,0.1208019256591796,-0.298500120639801,0.0134489517658948,0.1258342564105987,0.0213052704930305
1.772634271681009e+18,1.6300087890625,0.2235282659530639,0.0732259750366211,-0.3522560596466064,0.0174436904489994,0.1039963513612747,0.017310531809926
1.7726342717010007e+18,1.650000732421875,0.2583630084991455,0.0353765487670898,-0.3710245490074157,0.0187752693891525,0.0893489792943,0.0106526352465152
1.7726342717209925e+18,1.669992431640625,0.2200667858123779,0.1027946472167968,-0.311369240283966,0.003328948514536,0.0581900216639041,-0.0007989476434886
1.7726342717409843e+18,1.689984375,0.1844450235366821,0.1556673049926757,-0.2137379646301269,-0.010785792954266,0.0275636930018663,-0.0098536871373653
1.772634271760976e+18,1.709975830078125,0.1546186208724975,0.1599864959716797,-0.1993317008018493,-0.0110521093010902,-0.0089215822517871,-0.0226368494331836
1.7726342717809677e+18,1.7299677734375,0.2075846195220947,0.1553049087524414,-0.2007291913032531,0.0001331579405814,-0.03715106472373,-0.034621063619852
1.7726342718009595e+18,1.74995947265625,0.2501451969146728,0.1271333694458007,-0.2672687768936157,0.0073236869648098,-0.0499342270195484,-0.034621063619852
1.7726342718209513e+18,1.769951416015625,0.1994820833206176,0.1081037521362304,-0.3096354007720947,0.0027963167522102,-0.0403468571603298,-0.020240006968379
1.772634271840943e+18,1.789943115234375,0.2546563148498535,0.1372480392456054,-0.3053128123283386,-0.0035952643956989,-0.0275636930018663,-0.0045273699797689
1.772634271860935e+18,1.809934814453125,0.3152185678482055,0.19464111328125,-0.2693582773208618,-0.0022636849898844,-0.0219710599631071,0.0045273699797689
1.7726342718809265e+18,1.829926513671875,0.3327887058258056,0.2239999771118164,-0.2071180343627929,-0.0094542140141129,-0.02490053512156,0.0058589493855834
1.7726342719009183e+18,1.849918212890625,0.2437790632247924,0.2538938522338867,-0.1619989871978759,-0.0182426385581493,-0.0283626411110162,0.0
1.77263427192091e+18,1.86991015625,0.253461480140686,0.2986898422241211,-0.1623947620391845,-0.0185089539736509,-0.0294279046356678,-0.0095873717218637
1.772634271940902e+18,1.88990185546875,0.2742812633514404,0.2765874862670898,-0.1999589502811432,-0.0190415848046541,-0.02569948323071,-0.019441058859229
1.7726342719608937e+18,1.909893798828125,0.3457592725753784,0.4078025817871094,-0.3002287447452545,-0.0336889587342739,-0.0150468470528721,-0.0378168560564518
1.7726342719808855e+18,1.929885498046875,0.4393048286437988,0.5809221267700195,-0.4101092517375946,-0.0504668578505516,0.0065247388556599,-0.0527305454015731
1.7726342720008773e+18,1.949877197265625,0.3167358636856079,0.5814609527587891,-0.4775985479354858,-0.0589889660477638,0.0581900216639041,-0.0529968589544296
1.7726342720208689e+18,1.969868896484375,0.1863665580749511,0.4762916564941406,-0.4889708757400512,-0.0683100223541259,0.0994689837098121,-0.0356863290071487
1.7726342720408607e+18,1.989860595703125,0.4475250244140625,0.1610870361328125,-0.2675786018371582,-0.0619184412062168,0.1031974032521247,0.0095873717218637
1.7726342720608525e+18,2.0098525390625,0.3669480085372925,0.103189468383789,0.0425037741661071,-0.0536626502871513,0.0818921327590942,0.0604537054896354
1.7726342720808443e+18,2.02984423828125,-0.1523688435554504,0.2128276824951172,0.018198013305664,-0.0579237043857574,0.1031974032521247,0.0972052961587905
1.772634272100837e+18,2.049837158203125,-0.0798248052597045,-0.3085670471191406,-0.0394709110260009,-0.0368847511708736,0.1471395194530487,0.0892158225178718
1.7726342721208305e+18,2.06983056640625,-0.3337777256965637,-0.5520792007446289,0.0255382657051086,0.0019973691087216,0.1386174112558365,0.0300936941057443
1.7726342721408236e+18,2.089823486328125,-0.172789990901947,-0.3553581237792969,-0.0226319432258605,0.0091878976672887,0.144476369023323,-0.0210389550775289
1.772634272160817e+18,2.10981689453125,0.2992079257965088,-0.1631832122802734,-0.5315337777137756,0.0507331751286983,0.1359542608261108,-0.0655137076973915
1.77263427218081e+18,2.12981005859375,0.2276395559310913,-0.1154441833496093,-1.1855673789978027,0.0363521166145801,0.0739026591181755,-0.092677928507328
1.7726342722008033e+18,2.14980322265625,-0.1378642916679382,-0.0056209564208984,-1.365757703781128,0.0089215822517871,0.0280963256955146,-0.1030642464756965
1.7726342722207967e+18,2.169796630859375,-0.2677898406982422,0.0053291320800781,-1.212069034576416,0.0246342197060585,0.0302268527448177,-0.1123853027820587
1.7726342722407898e+18,2.189789794921875,-0.3402562737464905,-0.158365249633789,-1.11517596244812,0.0483363308012485,0.0291615892201662,-0.1004010885953903
1.772634272260783e+18,2.209783203125,-0.2648171186447143,-0.13458251953125,-1.4254616498947144,0.019840532913804,0.062717393040657,-0.0766989737749099
1.7726342722807762e+18,2.229776123046875,-0.3039984107017517,0.2477092742919922,-1.6935397386550903,-0.0328900106251239,0.2004027068614959,-0.0719052851200103
1.7726342723007695e+18,2.24976953125,-0.1940107345581054,0.4242181777954101,-1.7507891654968262,-0.0986700356006622,0.3721764385700226,-0.1392832100391388
1.7726342723207626e+18,2.2697626953125,-0.2559728026390075,0.3793344497680664,-1.7978070974349976,-0.1221058294177055,0.4273038208484649,-0.2436790317296981
1.772634272340756e+18,2.289755859375,-0.237161636352539,0.5245285034179688,-1.759793758392334,-0.1266331970691681,0.4070638120174408,-0.323041170835495
1.7726342723607493e+18,2.309749267578125,-0.0857207179069519,0.8071699142456055,-1.8581799268722532,-0.0888163447380065,0.3415501117706299,-0.3613906502723694
1.7726342723807424e+18,2.329742431640625,0.0766451358795166,0.6390895843505859,-1.807961225509644,-0.0640489682555198,0.288286954164505,-0.3520695865154266
1.7726342724007357e+18,2.34973583984375,0.0435723066329956,0.4463024139404297,-1.603838562965393,-0.0422110669314861,0.2243711352348327,-0.3267695903778076
1.7726342724207288e+18,2.369728759765625,-0.1118248105049133,0.4587888717651367,-1.431777000427246,0.008655265904963,0.1559279412031173,-0.2828274667263031
1.7726342724407222e+18,2.38972216796875,-0.0598475933074951,0.4708175659179687,-1.5342128276824951,0.0704405531287193,0.0962731912732124,-0.2484727203845977
1.7726342724607155e+18,2.409715576171875,-0.0224798917770385,0.3478784561157226,-1.7156232595443726,0.0957405567169189,0.0800279229879379,-0.2460758686065673
1.7726342724807086e+18,2.42970849609375,-0.2735660672187805,0.3681240081787109,-1.7545191049575806,0.0906805545091629,0.1162468791007995,-0.2633863985538482
1.772634272500702e+18,2.449701904296875,-0.3367635607719421,0.4931850433349609,-1.702629804611206,0.0978710874915123,0.181494265794754,-0.2814958989620209
1.772634272520695e+18,2.469695068359375,-0.3121458888053894,0.3033761978149414,-1.6256661415100098,0.1223721504211425,0.2129195481538772,-0.2735064029693603
1.7726342725406884e+18,2.4896884765625,-0.524979293346405,0.0940666198730468,-1.4976017475128174,0.1367532014846801,0.2185121774673462,-0.2567285001277923
1.7726342725606815e+18,2.509681396484375,-0.9402891397476196,0.1470470428466797,-1.550093650817871,0.1266331970691681,0.2723079919815063,-0.240216925740242
1.7726342725806748e+18,2.5296748046875,-1.1773114204406738,0.2523193359375,-1.8104149103164675,0.1103879362344741,0.313586950302124,-0.2396842986345291
1.7726342726006674e+18,2.54966748046875,-1.190927028656006,0.4879722595214844,-2.3078863620758057,0.1087900400161743,0.3082606196403503,-0.2689790427684784
1.77263427262066e+18,2.569659912109375,-1.383513569831848,0.6168909072875977,-2.753191471099853,0.1183774098753929,0.3199785351753235,-0.2916159033775329
1.7726342726406523e+18,2.58965234375,-0.6176742315292358,0.3547449111938476,-2.7168424129486084,0.1071921437978744,0.3878890872001648,-0.2655169367790222
1.7726342726606449e+18,2.609644775390625,0.238267183303833,0.0757474899291992,-2.106898546218872,0.0802942365407943,0.4858933389186859,-0.1952095478773117
1.7726342726806372e+18,2.62963720703125,0.0426307916641235,0.1520233154296875,-2.146680355072021,-0.010785792954266,0.5942838788032532,-0.119309514760971
1.7726342727006298e+18,2.649629638671875,-0.4697001576423645,-0.1793880462646484,-1.8992905616760252,-0.2371542900800705,0.6664555072784424,-0.0551273860037326
1.772634272720622e+18,2.6696220703125,-1.5330801010131836,-0.4727191925048828,-0.9386918544769288,-0.3255711793899536,0.4653870165348053,0.0181094799190759
1.7726342727406147e+18,2.68961474609375,-0.8252406716346741,-0.9451961517333984,0.8306267857551575,-0.3665838241577148,-0.0238352715969085,0.1323589980602264
1.7726342727806e+18,2.72960009765625,1.643768548965454,-0.0339612960815429,1.7365586757659912,-0.2864227294921875,-0.5074648857116699,0.3099916875362396
1.7726342728005955e+18,2.749595458984375,2.4054672718048096,-0.4332571029663086,0.5309295654296875,-0.2440785020589828,-0.6406228542327881,0.570448637008667
1.7726342728205908e+18,2.7695908203125,1.736023187637329,-2.498594284057617,-0.3749208748340606,-0.1732384860515594,-0.4728438556194305,0.7811045050621033
1.7726342728405865e+18,2.78958642578125,0.8642573356628418,-3.993352890014648,-1.0265698432922363,-0.1055942475795745,-0.0494015961885452,0.7233139276504517
1.772634272860582e+18,2.809581787109375,1.1838892698287964,-3.5036821365356445,-1.1619970798492432,0.1676458418369293,0.0067910552024841,0.660729706287384
1.7726342728805773e+18,2.829577392578125,0.7843217849731445,-1.3702659606933594,-0.7048158049583435,0.2890858948230743,-0.1974732279777526,0.5472791194915771
1.772634272900573e+18,2.849572998046875,0.3675801753997803,0.5644702911376953,-0.2402414083480835,0.2384858727455139,-0.5149217844009399,0.3627222180366516
1.7726342729205683e+18,2.869568359375,0.6443390846252441,1.1682605743408203,0.0522904396057128,0.2177132368087768,-0.8613986968994141,0.2545979917049408
1.7726342729405637e+18,2.889563720703125,0.3255965709686279,0.9544095993041992,0.2827098965644836,0.2206427007913589,-1.0861693620681765,0.281229555606842
1.7726342729605594e+18,2.909559326171875,-0.0156874656677246,0.6002511978149414,0.0562238693237304,0.2320942878723144,-1.1181272268295288,0.404800146818161
1.7726342729805548e+18,2.9295546875,0.0296523571014404,1.057765007019043,-0.1999831199645996,0.2701774537563324,-0.9719198346138,0.4716454148292541
1.7726342730005501e+18,2.949550048828125,-0.0872554779052734,2.029407024383545,0.0556864142417907,0.2786995768547058,-0.8187881708145142,0.4085285663604736
1.7726342730205458e+18,2.9695458984375,-0.2850738763809204,2.655782699584961,0.5353522300720215,0.2283658683300018,-0.6866955161094666,0.234091654419899
1.7726342730605368e+18,3.009536865234375,-0.3582037687301636,2.4041919708251958,0.1160225868225097,0.1577921658754348,-0.6020070314407349,0.0980042442679405
1.7726342730805322e+18,3.0295322265625,-0.0605806112289428,1.929769515991211,-0.7666628956794739,0.0876179262995719,-0.5864275693893433,0.048469491302967
1.7726342731005263e+18,3.0495263671875,0.480494737625122,1.835714340209961,-1.760347604751587,0.0157126374542713,-0.5776391625404358,-0.0258326400071382
1.7726342731205202e+18,3.069520263671875,1.2586417198181152,1.7584199905395508,-2.076310634613037,-0.245276927947998,-0.5842970609664917,-0.2780337929725647
1.7726342731405138e+18,3.089513671875,1.4023698568344116,0.8796939849853516,-1.1396832466125488,-0.3379548490047455,-0.4916191101074219,-0.3190464377403259
1.7726342731605076e+18,3.109507568359375,1.213164448738098,-0.5073261260986328,0.183892011642456,-0.3515369594097137,-0.2729737758636474,-0.2165148109197616
1.7726342731805015e+18,3.12950146484375,0.3192812204360962,-1.3195066452026367,0.7035123109817505,-0.342215895652771,-0.1592568904161453,-0.0165115855634212
1.772634273200495e+18,3.1494951171875,0.1329902410507202,-0.7938308715820312,-0.3934934735298157,-0.2977411448955536,-0.2767021954059601,0.0945421382784843
1.772634273220489e+18,3.169489013671875,0.9744242429733276,0.6848363876342773,-1.9707489013671875,-0.2098569124937057,-0.4572643637657165,0.0490021221339702
1.7726342732404828e+18,3.18948291015625,2.2747602462768555,1.780362606048584,-3.389369249343872,-0.1661811172962188,-0.539289653301239,-0.0924116075038909
1.7726342732604764e+18,3.209476318359375,3.7380623817443848,0.4280290603637695,-3.651082754135132,-0.162452682852745,-0.358993798494339,-0.1179779320955276
1.7726342732804703e+18,3.22947021484375,1.827359676361084,-4.885063171386719,-1.462783694267273,-0.1411474198102951,0.0029294746927917,0.0934768766164779
1.772634273300464e+18,3.249464111328125,-0.5897852182388306,-7.834073066711426,2.9240219593048096,-0.0431431718170642,0.2218411266803741,0.4082622528076172
1.772634273320458e+18,3.2694580078125,-1.0310101509094238,-2.8076295852661133,5.568702697753906,0.2375537604093551,0.1728390008211136,0.6340981125831604
1.7726342733404516e+18,3.28945166015625,-1.0736641883850098,2.483814239501953,4.363520622253418,0.5113264918327332,-0.2378200888633728,0.6287717819213867
1.7726342733604454e+18,3.309445556640625,-0.7791374325752258,3.893754005432129,2.0041372776031494,0.3336938023567199,-0.4913527965545654,0.0774979218840599
1.772634273380439e+18,3.32943896484375,-1.439933180809021,1.13092041015625,1.1965320110321045,0.2141179740428924,-0.627173900604248,-0.4878906905651092
1.772634273400433e+18,3.349432861328125,-1.8343158960342407,-2.0192136764526367,0.7347802519798279,0.2881537973880768,-0.1531316339969635,-0.5374254584312439
1.7726342734204268e+18,3.3694267578125,-1.2405095100402832,-3.0164947509765625,0.0147151350975036,0.4226433038711548,0.3592601120471954,-0.1424790024757385
1.7726342734404204e+18,3.38942041015625,-1.084045648574829,-1.1478509902954102,0.8359197974205017,0.4021369814872741,0.5347622632980347,0.2024000734090805
1.7726342734604142e+18,3.409414306640625,-1.3183876276016235,0.5539207458496094,1.4160839319229126,0.2591253519058227,0.4838959574699402,0.1595232188701629
1.772634273480408e+18,3.429407958984375,-1.5119824409484863,0.6448841094970703,0.7911033630371094,0.1177116185426712,0.3472759127616882,-0.019441058859229
1.7726342735004017e+18,3.449401611328125,-1.007514715194702,-0.4951658248901367,-0.6267201900482178,-0.0402136966586113,0.3603253960609436,-0.2109221816062927
1.7726342735203955e+18,3.4693955078125,-0.6170468926429749,-1.0986175537109375,-1.355366826057434,-0.1744368970394134,0.516120195388794,-0.3374222218990326
1.7726342735403894e+18,3.489389404296875,-0.4089366793632507,0.2936573028564453,-0.9006683826446533,-0.3273022174835205,0.7265097498893738,-0.371244341135025
1.772634273560383e+18,3.509383056640625,-0.4355741143226623,1.5730838775634766,0.1986383497714996,-0.3342264294624328,0.9001476764678955,-0.2439453452825546
1.7726342735803768e+18,3.529376953125,-0.3504441976547241,1.4214696884155271,0.4936797320842743,-0.2572611272335052,0.9725856184959412,-0.1004010885953903
1.7726342736003697e+18,3.54936962890625,-0.1512522101402282,1.142592430114746,-0.7847053408622742,-0.2106558680534362,0.9078708291053772,-0.1004010885953903
1.7726342736203617e+18,3.56936181640625,-0.2031264901161193,0.973285675048828,-2.2155838012695312,-0.185355857014656,0.7835013270378113,-0.3249053657054901
1.772634273640354e+18,3.58935400390625,-0.2727649807929992,0.8568792343139648,-2.178818941116333,-0.1904158592224121,0.5946833491325378,-0.6926876306533813
1.7726342736603464e+18,3.609346435546875,-0.6060320138931274,1.0732450485229492,-2.188629150390625,-0.1251684576272964,0.4820317327976227,-0.8495476841926575
1.7726342736803387e+18,3.629338623046875,-0.7082887887954712,1.0190305709838867,-2.483043909072876,-0.0178431645035743,0.4343611896038055,-0.6604633927345276
1.772634273700331e+18,3.6493310546875,-0.3065376877784729,0.8765068054199219,-1.763710379600525,0.0905473977327346,0.3400853872299194,-0.4780369997024536
1.772634273720323e+18,3.669322998046875,-0.426846444606781,0.6523962020874023,-0.486625462770462,0.1707084774971008,0.2199769169092178,-0.4367580413818359
1.7726342737403154e+18,3.6893154296875,-0.8261545300483704,0.0182304382324218,-0.8033637404441833,0.2348906099796295,0.240216925740242,-0.4277032911777496
1.7726342737803e+18,3.729300048828125,-1.054964900016785,0.6773319244384766,-2.8646109104156494,0.2822948396205902,0.3536674976348877,-0.4181159436702728
1.772634273800292e+18,3.7492919921875,-1.6297218799591064,1.1938095092773438,-3.61098313331604,0.2703106105327606,0.3848264515399933,-0.4484759569168091
1.7726342738202844e+18,3.769284423828125,-2.2673816680908203,0.8184709548950195,-3.4549121856689453,0.2093242853879928,0.3547327518463135,-0.4559327960014343
1.772634273860269e+18,3.80926904296875,-0.1297441720962524,-0.5280828475952148,0.5976930856704712,0.070840023458004,0.1422126740217209,-0.207726389169693
1.7726342739002534e+18,3.84925341796875,-0.5618784427642822,-0.2463979721069336,0.2301608026027679,-0.0005326317623257,0.0149136893451213,-0.0319579057395458
1.7726342739202458e+18,3.869245849609375,-0.4471800327301025,-1.1530208587646484,1.7621338367462158,-0.2125200778245926,0.0250336937606334,0.0886831879615783
1.772634273940238e+18,3.889238037109375,2.717414617538452,-2.121510505676269,1.8908491134643557,-0.5589970350265503,0.3467432856559753,0.3848264515399933
1.7726342739602304e+18,3.90923046875,3.51440691947937,-5.08889102935791,0.5863559246063232,-0.2242379784584045,-0.5291696786880493,1.28470778465271
1.7726342739802225e+18,3.929222412109375,1.4468836784362793,-6.267253875732422,-1.2338087558746338,-0.3962780237197876,-0.3677822351455688,1.3832446336746216
1.7726342740002148e+18,3.94921484375,0.6637953519821167,-5.084809303283691,-0.9905708432197572,-0.2303632348775863,-0.0282294824719429,1.2639352083206177
1.772634274020207e+18,3.96920703125,0.7094225883483887,-1.5455865859985352,-0.7913910150527954,0.1637842655181884,-0.1866874396800995,1.0373003482818604
1.7726342740401994e+18,3.989199462890625,0.6863481998443604,1.2022333145141602,0.19229257106781,0.2751043140888214,-0.6572675704956055,0.6660560369491577
1.7726342740801838e+18,4.029183837890625,0.7376093864440918,2.1359243392944336,1.0891163349151611,0.1278316229581833,-1.0221203565597534,0.2530000805854797
1.7726342741001756e+18,4.049175537109375,-0.0278753042221069,1.0259552001953125,1.0984995365142822,0.054328441619873,-1.2855067253112793,0.0615189671516418
1.7726342741201674e+18,4.06916748046875,-0.5356358885765076,0.6210041046142578,0.7596482634544373,0.0838894993066787,-1.3265193700790403,0.1992042809724807
1.7726342741401592e+18,4.0891591796875,-0.6025730967521667,1.844781875610352,0.4177226424217224,0.3012032508850097,-1.1845730543136597,0.5560675859451294
1.7726342741601508e+18,4.10915087890625,-0.7425348162651062,3.821999549865722,0.6532354950904846,0.3584611713886261,-0.8855003118515015,0.475906491279602
1.7726342742001341e+18,4.149134033203125,0.3027479648590088,3.696544170379639,1.6268364191055298,0.2945453524589538,-0.5819001793861389,0.2202432304620742
1.772634274220126e+18,4.1691259765625,0.7467828989028931,2.3359909057617188,0.5447572469711304,0.1462074220180511,-0.4617917239665985,0.0114515833556652
1.772634274260109e+18,4.209109130859375,0.763831377029419,0.8137741088867188,-2.8764023780822754,-0.0237021129578351,-0.5020054578781128,-0.0854873955249786
1.7726342743000927e+18,4.2490927734375,1.45841646194458,-1.5282392501831057,0.7459720373153687,-0.1786979585886001,-0.3866906464099884,-0.2676474750041961
1.7726342743200842e+18,4.269084228515625,-0.2996886372566223,-2.3269948959350586,1.7814610004425049,-0.3696464300155639,-0.4226433038711548,-0.5310338735580444
1.772634274340076e+18,4.289075927734375,-0.4246339797973633,-1.460404396057129,-0.846113920211792,-0.4777706861495971,-0.5163865089416504,-0.7177212834358215
1.7726342743600676e+18,4.309067626953125,1.90351402759552,1.4324321746826172,-3.651753902435303,-0.2838927209377289,-0.4596612155437469,-0.3640538156032562
1.7726342743800594e+18,4.329059326171875,4.682555675506592,-0.3046960830688476,-3.3233413696289062,-0.0071905287913978,-0.4569980502128601,0.1760347932577133
1.772634274400051e+18,4.349051025390625,1.9506309032440183,-6.586599349975586,0.9168993830680848,0.0780305564403534,-0.3446127474308014,-0.0559263341128826
1.7726342744200428e+18,4.369042724609375,-0.9467242360115052,-5.317734718322754,3.801983833312988,-0.081758975982666,0.1374190002679824,0.0191747434437274
1.7726342744400343e+18,4.389034423828125,-2.205073118209839,1.1423091888427734,4.696876525878906,-0.0849547684192657,0.5906886458396912,0.4266380369663238
1.772634274460026e+18,4.409026123046875,-2.2491559982299805,4.75548267364502,2.9929678440093994,0.4687159657478332,0.6878939270973206,0.8956202864646912
1.7726342744800177e+18,4.429017578125,-1.304310321807861,0.6686620712280273,2.037792205810547,0.7536739706993103,0.1944105923175811,0.7313033938407898
1.7726342745000095e+18,4.449009521484375,-0.979845941066742,-5.488651275634766,0.0088344812393188,0.5169191360473633,-0.3014695644378662,0.1472726762294769
1.772634274520001e+18,4.4690009765625,-1.068629026412964,-5.116598129272461,-0.3385473489761352,0.145674780011177,-0.4032022356986999,-0.2924148440361023
1.7726342745399928e+18,4.488992919921875,-0.4459950923919678,0.2697010040283203,1.6729376316070557,0.1099884584546089,0.1139831990003585,-0.3624559044837951
1.7726342745599844e+18,4.508984375,-0.9461934566497804,2.8099327087402344,3.436722755432129,0.1510011106729507,0.2543316781520843,-0.2394179701805114
1.772634274599969e+18,4.548968994140625,-1.2439906597137451,-1.3632526397705078,-0.1144003272056579,0.3406180143356323,0.1217063590884208,-0.049268439412117
1.7726342746199626e+18,4.568962646484375,-1.536282658576965,-2.2139101028442383,-2.283710241317749,0.2415485084056854,0.2186453342437744,0.1704421639442443
1.7726342746399562e+18,4.588956298828125,-0.7052645683288574,0.5039873123168945,-1.6005148887634275,0.1027979329228401,0.4311653971672058,0.1230379343032836
1.7726342746599498e+18,4.60894970703125,-0.1051884889602661,2.8145618438720703,-0.0932980179786682,-0.0900147706270217,0.6178528666496277,-0.1808284819126129
1.7726342746799432e+18,4.628943115234375,-0.7025362849235535,2.624673843383789,0.8583464622497559,-0.3054643273353576,0.879108726978302,-0.8053392171859741
1.7726342746999368e+18,4.648936767578125,-0.6811825037002563,1.5909137725830078,0.0657251477241516,-0.2375537604093551,0.9976192712783812,-0.6000096797943115
1.7726342747199304e+18,4.668930419921875,-0.1449567079544067,0.717803955078125,-1.8693441152572632,-0.1430116295814514,0.9973529577255248,-0.2900179922580719
1.772634274739924e+18,4.688924072265625,-0.0204633474349975,0.7521047592163086,-2.927409410476685,0.019441058859229,0.7914907932281494,-0.2404832392930984
1.7726342747799112e+18,4.7289111328125,-0.0477608442306518,2.014674186706543,-2.129903793334961,-0.0095873717218637,0.5677854418754578,-0.5693833827972412
1.772634274819898e+18,4.768898193359375,-1.2244164943695068,-0.1116762161254882,-0.6576298475265503,-0.0633831769227981,0.480433851480484,-0.9017455577850342
1.7726342748398917e+18,4.7888916015625,-0.7017179131507874,-1.5324554443359375,-1.1361467838287354,0.0487358048558235,0.4676506817340851,-0.8125297427177429
1.7726342748598853e+18,4.80888525390625,-0.4104880094528198,-0.1840267181396484,-2.1015844345092773,0.1701758503913879,0.4314317405223846,-0.4852275252342224
1.772634274879879e+18,4.82887890625,-0.8666121363639832,2.00323486328125,-3.0657520294189453,0.2394179701805114,0.3826959133148193,-0.2881537973880768
1.7726342748998723e+18,4.848872314453125,-1.9933850765228271,2.3110713958740234,-2.938633441925049,0.2279663980007171,0.4554001688957214,-0.2767021954059601
1.7726342749198659e+18,4.868865966796875,-0.4431401491165161,1.2214241027832031,-1.1921756267547607,0.1925463825464248,0.5227780938148499,-0.2985401153564453
1.7726342749398595e+18,4.888859375,-0.3865429162979126,0.1191911697387695,0.5060163140296936,0.158457949757576,0.5241096615791321,-0.2948116660118103
1.772634274959853e+18,4.90885302734375,-0.5998261570930481,-0.7505292892456055,-1.1345460414886477,0.1174453049898147,0.3579285442829132,-0.2210421860218048
1.7726342749798467e+18,4.9288466796875,0.1216521263122558,-1.3296728134155271,-0.9395872354507446,0.0705737099051475,0.0825579240918159,-0.0351536944508552
1.77263427499984e+18,4.948840087890625,1.0009641647338867,-2.239588737487793,1.3742077350616455,-0.1740374267101287,-0.0199736915528774,0.0607200190424919
1.7726342750198336e+18,4.96883349609375,2.899729013442993,-4.400601387023926,2.708570957183838,-0.5982786417007446,0.3416832685470581,0.1597895324230194
1.7726342750398272e+18,4.9888271484375,2.209867477416992,-6.090337753295898,2.327751636505127,-0.7080007791519165,0.3145190477371216,0.4524706900119781
1.7726342750598208e+18,5.00882080078125,0.9461009502410888,-4.6805267333984375,0.548111081123352,-0.762595534324646,-0.1230379343032836,0.8439550399780273
1.7726342750798144e+18,5.028814453125,0.8281745910644531,-2.7931432723999023,-0.5009739398956299,-0.4315648972988128,-0.3086601197719574,1.1808446645736694
1.7726342750998077e+18,5.048807861328125,0.6328103542327881,-1.243025779724121,-0.7673584222793579,-0.2921485304832458,-0.1312937289476394,1.2924309968948364
1.772634275119801e+18,5.068801025390625,1.1489096879959106,0.0733890533447265,-0.4340248107910156,0.0298273786902427,0.0268979035317897,1.2660657167434692
1.7726342751397944e+18,5.08879443359375,1.49287748336792,1.2294855117797852,-0.0201460123062133,0.1794968992471695,-0.2537990212440491,0.9440897703170776
1.772634275179781e+18,5.128781005859375,0.1712782382965088,1.3986310958862305,0.3846577405929565,0.1808284819126129,-0.5829654932022095,0.4711127877235412
1.7726342751997742e+18,5.148774169921875,-0.1997913122177124,1.5944366455078125,0.7289970517158508,0.1278316229581833,-0.7416897416114807,0.1086568832397461
1.7726342752197676e+18,5.168767578125,-0.5404325723648071,3.0677380561828613,1.1736198663711548,0.0766989737749099,-0.7925560474395752,0.0556600205600261
1.772634275239761e+18,5.188760986328125,-0.629003643989563,4.0859222412109375,1.4743916988372805,0.1113200411200523,-0.839427649974823,0.2005358636379242
1.7726342752597542e+18,5.208754150390625,-0.5741463899612427,3.911520957946777,1.6916816234588623,0.2338253408670425,-0.9739171862602234,0.3709780275821686
1.7726342752797476e+18,5.22874755859375,0.0084607601165771,3.1113052368164062,1.5303854942321775,0.2806969285011291,-1.0636656284332275,0.3283674716949463
1.772634275299741e+18,5.248740966796875,0.5206695795059204,2.1503443717956543,0.1761934161186218,0.223439022898674,-0.9020118713378906,0.1046621426939964
1.7726342753197343e+18,5.268734375,0.9072227478027344,1.1731195449829102,-2.095622539520264,0.1488705724477768,-0.6841654777526855,-0.0460726469755172
1.7726342753397276e+18,5.2887275390625,1.4000612497329712,0.0216274261474609,-3.294143915176392,0.0260989554226398,-0.4996086061000824,-0.0282294824719429
1.772634275359721e+18,5.308720947265625,1.851729273796081,-0.6874723434448242,-2.222983837127685,-0.3435474932193756,-0.081758975982666,-0.2617885172367096
1.7726342753997076e+18,5.348707763671875,0.1230074167251586,-0.8784856796264648,1.3871468305587769,-0.4498075246810913,-0.064182125031948,-0.4668517410755157
1.772634275419701e+18,5.368700927734375,0.1674866676330566,-0.244450569152832,-0.8283935785293579,-0.4189148843288421,-0.1374190002679824,-0.5195822715759277
1.7726342754396943e+18,5.3886943359375,2.69990873336792,1.0295515060424805,-2.594663381576538,-0.320910632610321,-0.3177148401737213,-0.3901527523994446
1.7726342754596877e+18,5.408687744140625,4.817306518554688,-1.8917579650878904,-1.4780850410461426,-0.2183790206909179,-0.4849612116813659,-0.1475390046834945
1.772634275479681e+18,5.428680908203125,0.9218300580978394,-8.944912910461426,2.687016010284424,-0.0972052961587905,-0.5446159839630127,-0.1629853248596191
1.7726342754996744e+18,5.44867431640625,-3.3700108528137207,-6.067970275878906,5.469220161437988,-0.1688442677259445,-0.1699095368385315,0.0607200190424919
1.7726342755196677e+18,5.468667724609375,-1.859610199928284,2.8669724464416504,4.612721920013428,-0.0271642208099365,0.3347590565681457,0.4689822793006897
1.772634275539661e+18,5.4886611328125,-1.4691764116287231,5.970525741577148,2.474189758300781,0.5219791531562805,0.3957453966140747,0.7906918525695801
1.7726342755596544e+18,5.508654296875,-1.1980431079864502,2.0049777030944824,0.7582675218582153,0.8583360910415649,0.1091895103454589,0.516120195388794
1.7726342755796475e+18,5.5286474609375,-0.7479063272476196,-4.752176284790039,-0.4538711309432983,0.45140540599823,-0.002130527049303,-0.1259674131870269
1.7726342755996403e+18,5.548640380859375,-0.8280338644981384,-6.384660720825195,-0.4601691365242004,0.1169126704335212,-0.0023968429304659,-0.3984085619449615
1.7726342756196326e+18,5.568632568359375,-1.14900541305542,-1.063983917236328,1.023836612701416,0.1834916472434997,0.4753738343715668,-0.3382211625576019
1.772634275639625e+18,5.588625,-1.867114305496216,2.955141544342041,2.6535286903381348,0.1874863803386688,0.5518065094947815,-0.1347558349370956
1.7726342756596173e+18,5.6086171875,-1.898019790649414,2.0072808265686035,2.472776412963867,0.3392864465713501,0.4332959353923797,0.0370179079473018
1.772634275699602e+18,5.648601806640625,-1.452020287513733,-2.2217884063720703,-2.016690492630005,0.1813611090183258,0.2761695683002472,0.0916126668453216
1.7726342757195942e+18,5.66859423828125,-0.6111305356025696,0.344278335571289,-1.8117928504943848,0.0332894846796989,0.3776359260082245,-0.0796284452080726
1.7726342757395866e+18,5.688586669921875,-0.091124415397644,2.881392478942871,-0.1989414691925048,-0.206661120057106,0.5776391625404358,-0.2577937841415405
1.772634275759579e+18,5.708578857421875,-0.3084100484848022,3.000067710876465,1.0449228286743164,-0.4093275070190429,0.8745813369750977,-0.4181159436702728
1.7726342757995635e+18,5.7485634765625,-0.3481897711753845,0.7512102127075195,-2.24713397026062,-0.2474074512720108,1.0607361793518066,-0.4546011984348297
1.7726342758195558e+18,5.768555908203125,-0.4328290820121765,0.3599500656127929,-2.72061538696289,-0.1920137554407119,1.0940256118774414,-0.234624296426773
1.7726342758395482e+18,5.788548095703125,-0.2088632583618164,0.8790082931518555,-2.0642006397247314,-0.1435442566871643,0.8562055826187134,-0.2998716831207275
1.7726342758595405e+18,5.80854052734375,-0.2308636903762817,1.4914417266845703,-1.8628392219543457,-0.1691105812788009,0.5619264841079712,-0.7321023344993591
1.7726342758795328e+18,5.82853271484375,-0.375780701637268,1.4227190017700195,-1.2562105655670166,-0.0713726580142974,0.3502053916454315,-0.8708529472351074
1.772634275899525e+18,5.848525146484375,-0.9969000816345216,0.569366455078125,-0.5412185192108154,0.0290284305810928,0.3616569638252258,-0.5414201617240906
1.7726342759195174e+18,5.868517333984375,-0.995598316192627,-0.6611738204956055,-1.1838173866271973,0.1019989848136901,0.3049316704273224,-0.4748412072658539
1.7726342759395098e+18,5.888509765625,-0.6981812715530396,-0.575103759765625,-2.4972527027130127,0.162452682852745,0.3304980099201202,-0.5060001611709595
1.772634275959502e+18,5.908502197265625,-0.8358489274978638,1.0528545379638672,-3.502377510070801,0.2050632238388061,0.4708464741706848,-0.4785696268081665
1.7726342759794944e+18,5.928494384765625,-1.7118637561798096,2.014598846435547,-3.8207390308380127,0.1856221705675125,0.4735096395015716,-0.4122569859027862
1.7726342759994867e+18,5.94848681640625,-0.3089017868041992,1.5568084716796875,-2.37471866607666,0.1358211040496826,0.373374879360199,-0.2194442898035049
1.772634276019479e+18,5.96847900390625,0.2459925413131714,0.48187255859375,-0.3721298277378082,0.0721716061234474,0.168577954173088,0.0327568538486957
1.7726342760394714e+18,5.988471435546875,0.0517228841781616,-0.5381479263305664,-0.7820954918861389,-0.1163800433278083,0.0468715950846672,0.2327600866556167
1.7726342760594637e+18,6.008463623046875,0.3084530830383301,-1.4641971588134766,0.1946417987346649,-0.47830331325531,0.2498043030500412,0.3922832906246185
1.7726342760994488e+18,6.04844873046875,1.4888430833816528,-3.197824478149414,3.300240993499756,-0.5265064835548401,0.0213052704930305,0.6245107650756836
1.772634276119442e+18,6.06844189453125,2.1059017181396484,-5.172147750854492,1.9363136291503904,-0.5502086281776428,-0.5078643560409546,0.9014792442321776
1.7726342761394348e+18,6.088434814453125,1.269692063331604,-5.148089408874512,-0.2431041002273559,-0.3107906281948089,-0.7318360209465027,1.1251846551895142
1.7726342761594278e+18,6.108427734375,0.6136798858642578,-3.770855903625488,-1.103873610496521,-0.098536878824234,-0.2109221816062927,1.2042803764343262
1.772634276199414e+18,6.1484140625,1.4263612031936646,0.1162261962890625,-0.9051499366760254,0.1398158371448516,-0.1379516273736953,0.9142624139785768
1.772634276219407e+18,6.168406982421875,2.040954113006592,1.1907663345336914,0.0537635087966918,0.2079927027225494,-0.4002727568149566,0.4767054319381714
1.7726342762394e+18,6.18839990234375,0.8710216283798218,1.406280517578125,0.7369608879089355,0.0780305564403534,-0.7898929119110107,0.1158474087715148
1.772634276259393e+18,6.20839306640625,-0.5084986090660095,0.8159551620483398,0.9987465143203736,0.0303600095212459,-1.1147983074188232,0.1502021551132202
1.7726342762993792e+18,6.248379150390625,-0.7568787336349487,2.228965759277344,0.9248419404029846,0.2050632238388061,-1.3331773281097412,0.4567317366600036
1.772634276319372e+18,6.2683720703125,-1.1512060165405271,4.137827396392822,1.0873279571533203,0.3478085398674011,-1.4229257106781006,0.618651807308197
1.772634276339365e+18,6.288365234375,-0.8874461054801941,4.550493240356445,1.8438663482666016,0.3419495820999145,-1.1454246044158936,0.4980106949806213
1.7726342763793513e+18,6.328351318359375,0.815861701965332,2.911848545074463,0.3111051917076111,0.15180005133152,-0.755271852016449,-0.0308926422148942
1.7726342763993444e+18,6.348344482421875,1.1228151321411133,2.1782469749450684,-2.1552155017852783,-0.0042610540986061,-0.6372938752174377,-0.0596547573804855
1.7726342764193375e+18,6.36833740234375,1.2390620708465576,1.0103683471679688,-3.3552489280700684,-0.1773663759231567,-0.4199801385402679,-0.1968074291944503
1.7726342764393303e+18,6.388330322265625,1.330340027809143,-0.4806442260742187,-2.1269726753234863,-0.5243759751319885,-0.3307643234729767,-0.6226465106010437
1.7726342764593234e+18,6.408323486328125,1.3049601316452026,-1.5395021438598633,0.6220566034317017,-0.4727106988430023,-0.323041170835495,-0.5640570521354675
1.7726342764793165e+18,6.42831640625,0.2616775035858154,-2.07241439819336,1.860321402549744,-0.3219758868217468,-0.3595264256000519,-0.3281011581420898
1.7726342764993093e+18,6.448309326171875,-0.2406328320503235,-1.007369041442871,-0.1114464402198791,-0.2079927027225494,-0.3153179883956909,-0.0580568611621856
1.7726342765193024e+18,6.468302490234375,3.28951358795166,-0.6568717956542969,-2.416634321212769,-0.1038631945848465,-0.3872233033180237,0.0511326491832733
1.7726342765392955e+18,6.48829541015625,2.6793971061706543,-6.826106071472168,-0.9992820024490356,-0.0181094799190759,-0.5768402218818665,-0.1352884620428085
1.7726342765592886e+18,6.50828857421875,-1.3451604843139648,-7.911662101745605,3.972529411315918,-0.1254347860813141,-0.2138516455888748,-0.0516652800142765
1.7726342765792817e+18,6.52828173828125,-0.3708792924880981,1.6239290237426758,4.47901725769043,0.258060097694397,0.4034685492515564,0.3720432817935943
1.7726342765992753e+18,6.548275146484375,0.1466115713119506,6.603984832763672,3.021576404571533,0.9574055671691896,0.6511423587799072,0.9294424057006836
1.772634276619269e+18,6.56826904296875,-1.5829503536224363,4.640312194824219,1.5597305297851562,0.6013412475585938,0.5986781120300293,0.6135917901992798
1.772634276639263e+18,6.588262939453125,-0.9039570689201356,-2.524148941040039,-0.1268395185470581,0.2071937620639801,0.3992075026035309,0.2045305967330932
1.7726342766592568e+18,6.6082568359375,-1.927229642868042,-8.43333911895752,-1.1956738233566284,0.2024000734090805,0.4258390963077545,-0.0330231711268425
1.7726342766792507e+18,6.628250732421875,-0.9850438237190248,-4.749156951904297,0.6564478278160095,0.1733716428279876,0.3536674976348877,-0.278832733631134
1.7726342766992445e+18,6.64824462890625,-0.934533715248108,2.271657466888428,3.140941858291626,0.283360093832016,0.0942758247256279,-0.4772380590438843
1.7726342767192384e+18,6.66823828125,-1.5118447542190552,3.917931079864502,4.150132179260254,0.2266348153352737,-0.0687095001339912,-0.3510043323040008
1.7726342767392323e+18,6.688232177734375,-1.055668830871582,1.4881553649902344,2.103980541229248,0.0990695059299469,0.0330231711268425,-0.0929442420601844
1.772634276759226e+18,6.70822607421875,-0.7395421862602234,-2.508856773376465,-1.7057156562805176,0.0812263414263725,0.4652538299560547,-0.0596547573804855
1.77263427677922e+18,6.728219970703125,-1.4763364791870115,-2.921344757080078,-3.130094051361084,-0.1621863692998886,0.7797728776931763,-0.2556632459163666
1.7726342767992138e+18,6.7482138671875,-0.4792588353157043,0.6744318008422852,-1.225077748298645,-0.3776359260082245,0.9158602952957152,-0.5526054501533508
1.7726342768192077e+18,6.768207763671875,-0.3973546028137207,3.0940465927124023,0.6190990805625916,-0.2982738018035888,0.9720529913902284,-0.630103349685669
1.7726342768392015e+18,6.788201416015625,-0.6869308352470398,3.125626564025879,1.2786294221878052,-0.2777674496173858,0.9946898221969604,-0.3233074843883514
1.7726342768591954e+18,6.8081953125,-0.5914113521575928,1.828047275543213,-0.3050091564655304,-0.1664474308490753,0.8420908451080322,-0.1070589870214462
1.772634276899183e+18,6.84818310546875,-0.5436142086982727,0.4804973602294922,-2.15924072265625,-0.0862863436341285,0.6261086463928223,-0.2450106143951416
1.772634276919177e+18,6.868177001953125,-0.326616883277893,1.227399826049805,-1.9324158430099487,-0.1496695280075073,0.4253064692020416,-0.7379612922668457
1.7726342769391708e+18,6.8881708984375,-0.4212916493415832,1.7604551315307615,-1.8075873851776123,-0.1563274264335632,0.3523359000682831,-1.0426266193389893
1.7726342769591647e+18,6.90816455078125,-0.5848763585090637,1.5470447540283203,-1.013850212097168,0.019441058859229,0.3701790869235992,-0.6828339099884033
1.7726342769991524e+18,6.94815234375,-1.0131958723068235,-1.4680795669555664,-1.5086976289749146,0.1099884584546089,0.3153179883956909,-0.5760412216186523
1.77263427703914e+18,6.98814013671875,-0.8648991584777832,0.7651395797729492,-3.63966965675354,0.2125200778245926,0.3787011802196502,-0.4916191101074219
1.772634277059134e+18,7.008134033203125,-1.7132554054260254,1.5412912368774414,-4.235479354858398,0.2215748131275177,0.5251749157905579,-0.4370243549346924
1.7726342770791278e+18,7.0281279296875,0.1437770128250122,0.8972301483154297,-2.7724051475524902,0.1251684576272964,0.6689854860305786,-0.3696464300155639
1.7726342770991217e+18,7.04812158203125,0.3458551168441772,0.033949851989746,-0.6287128925323486,0.0266315881162881,0.2050632238388061,-0.0167779009789228
1.7726342771191155e+18,7.068115478515625,-1.191399097442627,-0.5668582916259766,-1.0096166133880615,-0.1587242633104324,0.0292947478592395,0.13209268450737
1.7726342771391094e+18,7.088109375,-0.1741692423820495,-0.7604284286499023,-0.2997894883155823,-0.4908201694488525,0.1896169036626815,0.2553969323635101
1.7726342771591032e+18,7.108103271484375,0.2590523958206177,-0.7592287063598633,2.167843103408813,-0.4988096356391907,-0.1302284598350525,0.5336970090866089
1.772634277199091e+18,7.148091064453125,2.6497445106506348,-4.370321273803711,2.077338695526123,-0.5597959756851196,-0.594150722026825,0.8133286833763123
1.7726342772190848e+18,7.168084716796875,1.1280081272125244,-6.513799667358398,0.2570586204528808,-0.3536674976348877,-0.7227813005447388,1.0245171785354614
1.7726342772390787e+18,7.18807861328125,0.5103836059570312,-5.393987655639648,-0.7346436977386475,-0.3302316963672638,-0.5432844161987305,1.1845730543136597
1.7726342772590725e+18,7.208072509765625,0.2722342014312744,-2.4118452072143555,-1.007801532745361,0.2609895765781402,-0.2492716610431671,1.2258520126342771
1.7726342772990602e+18,7.248060302734375,1.318104267120361,1.8002862930297852,-0.0306169986724853,0.2937464118003845,-0.5613938570022583,0.7970834374427795
1.772634277319054e+18,7.26805419921875,0.9518822431564332,2.137521266937256,0.4935218095779419,0.1358211040496826,-0.991227686405182,0.2623211443424225
1.772634277339048e+18,7.2880478515625,0.2214471101760864,1.9070382118225095,0.5455743074417114,0.0537958070635795,-1.1438267230987549,-0.032490536570549
1.7726342773590418e+18,7.308041748046875,0.0037652254104614,1.5962066650390625,0.7129056453704834,0.2207758724689483,-1.1624687910079956,0.3792338073253631
1.7726342773990295e+18,7.348029541015625,-0.9069737195968628,4.220264434814453,0.6547762155532837,0.3344927430152893,-1.2833762168884275,0.5315665006637573
1.7726342774190234e+18,7.3680234375,-1.0429236888885498,4.799455642700195,1.3008825778961182,0.3339601159095764,-1.1803120374679563,0.4604601562023163
1.7726342774390172e+18,7.388017333984375,-0.1690660715103149,4.246532440185547,1.3178255558013916,0.2932137846946716,-1.0175930261611938,0.224504292011261
1.772634277459011e+18,7.408010986328125,0.6219302415847778,3.2383599281311035,-0.2191238403320312,0.0519315972924232,-0.907071888446808,-0.1302284598350525
1.772634277479005e+18,7.4280048828125,0.8022603988647461,1.8134441375732424,-2.0529141426086426,-0.157392680644989,-0.74248868227005,-0.2194442898035049
1.7726342774989988e+18,7.447998779296875,1.0852311849594116,-0.1057443618774414,-2.8640522956848145,-0.3946801424026489,-0.5624591112136841,-0.4173169732093811
1.7726342775189926e+18,7.46799267578125,1.2329423427581787,-1.7027454376220703,-1.6125507354736328,-0.527039110660553,-0.4929507076740265,-0.5041359663009644
1.7726342775389865e+18,7.487986572265625,1.2641375064849854,-2.4592103958129883,1.5113177299499512,-0.457530677318573,-0.4008054137229919,-0.4173169732093811
1.7726342775589804e+18,7.50798046875,-0.3383131027221679,-2.309785842895508,1.8206567764282229,-0.3368895947933197,-0.3344927430152893,-0.1941442787647247
1.7726342775789742e+18,7.52797412109375,0.1244988441467285,0.0063962936401367,-1.6105408668518066,-0.223439022898674,-0.2806969285011291,0.1187768802046775
1.7726342775989673e+18,7.54796728515625,2.831637144088745,2.234729766845703,-4.803854465484619,-0.0157126374542713,-0.2982738018035888,0.1323589980602264
1.7726342776189601e+18,7.567960205078125,6.0063157081604,-4.109971046447754,-1.375619888305664,0.0,-0.1739042699337005,-0.0884168744087219
1.7726342776389532e+18,7.587953125,1.179863691329956,-10.253190994262695,3.453892469406128,-0.1616537421941757,0.2306295484304428,0.1121189892292022
1.772634277658946e+18,7.607946044921875,-4.203681945800781,-3.349360466003418,5.914644241333008,-0.0495347529649734,0.7139928936958313,0.6013412475585938
1.772634277678939e+18,7.62793896484375,-2.960814476013184,4.153059959411621,5.910373210906982,0.4775043725967407,0.2599242925643921,0.891359269618988
1.7726342777189248e+18,7.6679248046875,-0.4383213520050049,-1.3098201751708984,1.92920982837677,0.8040076494216919,-0.2460758686065673,0.2790990471839905
1.7726342777389176e+18,7.687917724609375,-0.8578715920448303,-4.268192291259766,-1.7350633144378662,0.4420843720436096,-0.2141179740428924,-0.2013348042964935
1.7726342777589105e+18,7.707910400390625,-0.5946152210235596,-1.9333972930908203,-1.0839979648590088,0.1214400380849838,0.0820252895355224,-0.503337025642395
1.772634277798896e+18,7.747896240234375,-1.485811471939087,1.3096399307250977,2.7364821434021,0.2093242853879928,0.4713791012763977,-0.527039110660553
1.7726342778188892e+18,7.76788916015625,-1.5810506343841553,-1.5427570343017578,1.0214167833328247,0.3033337891101837,0.6335654854774475,-0.1038631945848465
1.772634277838882e+18,7.787882080078125,-1.378627061843872,-2.594032287597656,-1.3086228370666504,0.1411474198102951,0.8956202864646912,0.2242379784584045
1.772634277858875e+18,7.807875,-0.8463543653488159,0.0064516067504882,-2.1599841117858887,-0.2897516787052154,0.918789803981781,-0.3195790648460388
1.7726342778988608e+18,7.84786083984375,-0.1407580375671386,2.702733993530273,0.7167772054672241,-0.4356927871704101,0.9281108379364014,-0.7291728854179382
1.7726342779388465e+18,7.887846435546875,-0.4694209694862366,1.5943126678466797,-1.053225874900818,-0.3302316963672638,0.9914939999580384,-0.7656581401824951
1.7726342779588393e+18,7.90783935546875,-0.3409802913665771,1.0906648635864258,-2.696556806564331,-0.1728390008211136,1.0807098150253296,-0.4633896350860595
1.7726342779788324e+18,7.927832275390625,-0.58207106590271,1.2018613815307615,-2.90435528755188,-0.0812263414263725,0.6516749858856201,-0.4945485889911651
1.772634278018818e+18,7.967818115234375,-0.5165424942970276,1.9979538917541504,-1.4995167255401611,-0.0849547684192657,0.4908201694488525,-1.0293108224868774
1.772634278038811e+18,7.987810791015625,-0.6512768268585205,1.3784446716308594,-0.5747506618499756,0.0508663319051265,0.5174517631530762,-0.6649907827377319
1.772634278058804e+18,8.007803955078124,-0.8361855745315552,-0.1737432479858398,-0.6052258014678955,0.1121189892292022,0.4601938426494598,-0.3829622268676758
1.7726342780787968e+18,8.027796875,-0.4499977827072143,-1.2984743118286133,-1.888751983642578,0.1637842655181884,0.4040012061595917,-0.4293012022972107
1.7726342780987896e+18,8.04778955078125,-0.4386177062988281,0.0313444137573242,-3.343798875808716,0.1688442677259445,0.5193159580230713,-0.4474106729030609
1.772634278118783e+18,8.067782958984376,-1.3003246784210205,1.5056352615356443,-3.917291402816773,0.1776326894760131,0.6860297322273254,-0.4450138509273529
1.772634278138776e+18,8.087776123046876,-1.7709953784942627,1.4833135604858398,-2.580148696899414,0.1225053071975708,0.6894918084144592,-0.3137201070785522
1.7726342781587692e+18,8.10776904296875,1.102248191833496,0.7845268249511719,-0.3564518690109253,0.0806937143206596,0.3938812017440796,-0.1323589980602264
1.7726342781787622e+18,8.12776220703125,0.0483251810073852,-0.1044530868530273,-0.5514017939567566,-0.0023968429304659,0.0996021404862403,0.0130494777113199
1.7726342782187484e+18,8.16774853515625,0.5354558229446411,-1.5544729232788086,1.6243568658828735,-0.4623243808746338,0.2138516455888748,0.1171789914369583
1.7726342782387415e+18,8.187741455078125,2.027840137481689,-4.457780838012695,2.863158702850342,-0.5608612298965454,0.3360906541347503,0.4372906684875488
1.7726342782587348e+18,8.20773486328125,1.9161607027053835,-6.750665664672852,2.13885498046875,-0.5597959756851196,-0.2868221998214721,1.0229192972183228
1.772634278278728e+18,8.22772802734375,0.673380970954895,-4.827990531921387,0.199136197566986,-0.1307611018419265,-0.1901495456695556,1.6394405364990234
1.772634278318714e+18,8.267714111328125,0.8930742740631104,-1.5861454010009766,-0.9786521196365356,0.035420011729002,0.0135821104049682,1.6008247137069702
1.7726342783387072e+18,8.287707275390625,1.0795682668685913,-0.3950119018554687,-0.6138772964477539,0.0482031740248203,-0.3033337891101837,1.2056119441986084
1.7726342783587003e+18,8.3077001953125,1.448659896850586,0.738372802734375,-0.0377399921417236,0.040480013936758,-0.6748444437980652,0.5965476036071777
1.7726342783786934e+18,8.327693359375,1.0234997272491455,1.0677146911621094,0.5667687654495239,0.0356863290071487,-0.8623307943344116,0.234624296426773
1.7726342783986867e+18,8.347686767578125,0.2067309617996215,0.7921485900878906,0.9644312858581544,-0.0500673875212669,-1.075383543968201,0.1251684576272964
1.7726342784186798e+18,8.3676796875,-0.2846671342849731,0.5214633941650391,1.248593807220459,-0.0865526646375656,-1.2415646314620972,0.2655169367790222
1.772634278438673e+18,8.3876728515625,-0.4736394882202148,1.7013516426086426,1.2657369375228882,0.0260989554226398,-1.3813804388046265,0.5193159580230713
1.772634278458666e+18,8.407666015625,-0.6700165867805481,3.644868850708008,1.1563470363616943,0.1203747764229774,-1.4663352966308594,0.6476802229881287
1.772634278478659e+18,8.4276591796875,-0.9826344847679138,4.570443153381348,1.533771276473999,0.1400821506977081,-1.3432973623275757,0.5137233138084412
1.7726342784986522e+18,8.447652099609375,-0.8983184695243835,4.210112571716309,1.7577266693115234,0.1177116185426712,-1.1385003328323364,0.1747032105922699
1.7726342785186452e+18,8.467645263671875,-0.2900410890579223,3.270214080810547,0.9424166679382324,0.0966726616024971,-1.0476866960525513,-0.0766989737749099
1.7726342785386386e+18,8.487638671875,0.6989151239395142,2.3610587120056152,-0.831099271774292,0.0165115855634212,-1.0594046115875244,-0.1075916141271591
1.7726342785586317e+18,8.507631591796875,0.9709841012954712,1.4760046005249023,-2.389380931854248,-0.1022652983665466,-0.9443561434745787,-0.1472726762294769
1.7726342785786248e+18,8.527624755859375,0.684127688407898,0.3918294906616211,-2.224826574325561,-0.2993390560150146,-0.7523423433303833,-0.3257043361663818
1.7726342785986179e+18,8.547617919921874,0.7335442304611206,-0.9545812606811525,0.195437490940094,-0.4801675379276275,-0.5962812304496765,-0.527039110660553
1.772634278618611e+18,8.56761083984375,0.4348700046539306,-2.106386184692383,1.6761574745178225,-0.4964128136634826,-0.4764391183853149,-0.5893570184707642
1.7726342786386043e+18,8.587604248046874,-0.6066113114356995,-2.039183616638184,-0.3001862168312073,-0.4157190918922424,-0.4495412111282348,-0.4258390963077545
1.7726342786585974e+18,8.607597412109374,0.6724656820297241,0.7577371597290039,-4.019554615020752,-0.3526022136211395,-0.3885548710823059,-0.1392832100391388
1.7726342786785905e+18,8.627590576171874,5.821345329284668,0.7980985641479492,-4.901388168334961,-0.2450106143951416,-0.4511390924453735,-0.0340884327888488
1.7726342786985838e+18,8.647583740234374,4.245819091796875,-7.195671081542969,0.5170648097991943,-0.0490021221339702,-0.5795033574104309,-0.2410158663988113
1.772634278718577e+18,8.667576904296874,-2.821794986724853,-9.101537704467772,5.359330654144287,-0.1046621426939964,-0.3824295997619629,-0.2287653386592865
1.77263427873857e+18,8.687570068359374,-3.4328479766845703,-0.4146976470947265,7.110222816467285,-0.1504684686660766,0.1813611090183258,0.212786391377449
1.772634278758563e+18,8.70756298828125,-2.128831386566162,6.449975967407227,4.780127048492432,0.3166495859622955,0.4117243587970733,0.8066707849502563
1.7726342787785564e+18,8.727556396484376,-1.299611210823059,3.831368923187256,2.7354044914245605,0.7539402842521667,-0.2724411487579345,0.2892190515995025
1.7726342787985495e+18,8.747549560546876,0.3546142578125,-4.2158613204956055,-0.4311316013336181,0.2221074402332306,-0.3510043323040008,-0.3161169588565826
1.7726342788185426e+18,8.76754248046875,-1.4728789329528809,-6.673344612121582,-1.9390640258789065,0.1475390046834945,0.1669800579547882,-0.4306327700614929
1.7726342788385357e+18,8.78753564453125,-0.8514733910560608,-1.245314598083496,0.4850376844406128,0.1472726762294769,0.415452778339386,-0.2841590344905853
1.772634278858529e+18,8.807529052734376,-0.7065765857696533,3.084989547729492,3.9002609252929688,0.3978759348392486,0.2689790427684784,-0.1249021515250206
1.772634278878522e+18,8.827522216796876,-1.7197580337524414,2.0234780311584477,3.9941093921661377,0.2753706276416778,0.2892190515995025,0.0793621316552162
1.7726342788985152e+18,8.84751513671875,-1.2934751510620115,-1.6402654647827148,0.0029160380363464,0.0436758026480674,0.5102612376213074,0.0535294935107231
1.7726342789185083e+18,8.86750830078125,-1.5896317958831787,-3.231961250305176,-2.804391860961914,-0.0460726469755172,0.7084002494812012,-0.119309514760971
1.7726342789385016e+18,8.887501708984376,-0.8499382138252258,0.0983285903930664,-2.237789392471313,-0.2721748352050781,0.8239813446998596,-0.5025380849838257
1.7726342789584947e+18,8.90749462890625,-0.0881859064102172,2.887449264526367,-0.9576343297958374,-0.3214432597160339,0.919322431087494,-0.71559077501297
1.7726342789784878e+18,8.92748779296875,-0.5864818692207336,2.871393203735352,0.7151602506637573,-0.258060097694397,1.0628666877746582,-0.4929507076740265
1.7726342789984812e+18,8.947481201171875,-0.928234338760376,1.818922519683838,0.8133355379104614,-0.2013348042964935,1.090829849243164,-0.1904158592224121
1.7726342790184742e+18,8.96747412109375,-0.66237473487854,0.9808111190795898,-1.177280068397522,-0.0471379123628139,0.8543413281440735,-0.1339568942785263
1.7726342790384673e+18,8.98746728515625,-0.565885066986084,0.6034555435180664,-2.202880382537842,-0.0745684504508972,0.5952159762382507,-0.5073317289352417
1.7726342790584604e+18,9.00746044921875,-0.5155732035636902,1.0405607223510742,-1.8608773946762085,-0.1773663759231567,0.4106590747833252,-0.9741834998130798
1.7726342790784538e+18,9.027453857421875,-0.5862997174263,1.857924461364746,-1.848188519477844,-0.0996021404862403,0.4524706900119781,-0.9741834998130798
1.772634279098447e+18,9.047447021484375,-0.5083444714546204,2.219308376312256,-1.6356143951416016,0.0292947478592395,0.5717802047729492,-0.6652570962905884
1.7726342791184404e+18,9.0674404296875,-0.9980258941650392,1.7491817474365234,-0.6852647066116333,0.0910800322890281,0.5376917719841003,-0.5355612635612488
1.772634279138434e+18,9.08743408203125,-0.9178257584571838,0.4471426010131836,-0.7071515321731567,0.1419463604688644,0.522245466709137,-0.5550022721290588
1.7726342791584274e+18,9.107427490234375,-0.3506104946136474,-0.7010707855224609,-1.8687689304351809,0.179230585694313,0.621048629283905,-0.5273054242134094
1.772634279178421e+18,9.1274208984375,-0.5425221920013428,0.673182487487793,-3.2034616470336914,0.1581916362047195,0.7318360209465027,-0.4546011984348297
1.7726342791984143e+18,9.147414306640623,-1.6771512031555176,1.792884349822998,-3.698986053466797,0.162452682852745,0.8098666071891785,-0.3499390780925751
1.772634279218408e+18,9.167407958984375,-0.8897283673286438,1.2561016082763672,-2.1652603149414062,0.1507347822189331,0.822383463382721,-0.1763011068105697
1.7726342792384013e+18,9.1874013671875,1.2027114629745483,0.8904228210449219,0.1528378278017044,0.0932105556130409,0.4822980463504791,0.0042610540986061
1.7726342792583946e+18,9.20739453125,0.2741214036941528,0.3262939453125,-0.9296522736549376,-0.0082557927817106,0.1459411084651947,0.0804273933172226
1.7726342792783882e+18,9.22738818359375,0.393889307975769,-1.4847984313964844,-1.11400306224823,-0.5235770344734192,0.4191811978816986,0.0916126668453216
1.7726342792983816e+18,9.247381591796875,-0.3282778859138489,-3.3282203674316406,2.0745673179626465,-0.5637907385826111,0.4396875202655792,0.2964095771312713
1.7726342793183752e+18,9.267375244140624,2.5190954208374023,-4.670358657836914,4.215405464172363,-0.6713823080062866,-0.3810980319976806,0.7680550217628479
1.7726342793383688e+18,9.28736865234375,2.268651962280273,-5.165340423583984,4.470084190368652,-0.3046653568744659,-0.8191876411437988,1.210405707359314
1.772634279358362e+18,9.307362060546875,0.8321622610092163,-3.452566146850586,1.4844539165496826,-0.2455432415008545,-0.5531380772590637,1.406680464744568
1.7726342793783555e+18,9.32735546875,1.0509297847747805,-2.065506935119629,-0.4198286533355713,-0.102531611919403,-0.1398158371448516,1.3462268114089966
1.772634279398349e+18,9.34734912109375,1.727211356163025,-1.7158222198486328,-0.9382878541946412,0.0551273860037326,-0.2186453342437744,1.0064077377319336
1.7726342794183424e+18,9.36734228515625,0.9985545873641968,-1.6877069473266602,-0.8227850198745728,0.1565937399864196,-0.4388885796070099,0.4862928092479706
1.772634279438336e+18,9.3873359375,0.7650185823440552,-0.5693864822387695,-0.2610782384872436,0.174170583486557,-0.4197138249874115,0.2221074402332306
1.7726342794583293e+18,9.407329345703126,0.1590371131896972,0.6769733428955078,0.5492440462112427,0.1344895213842392,-0.7171886563301086,0.2487390339374542
1.772634279478323e+18,9.427322998046876,-0.3597617149353027,1.0584802627563477,0.8546018600463867,0.13209268450737,-0.95660662651062,0.3033337891101837
1.7726342794983163e+18,9.44731640625,-0.3349199295043945,0.8718624114990234,1.2302191257476809,0.1371526718139648,-1.0972213745117188,0.4604601562023163
1.77263427951831e+18,9.467309814453126,-0.0186115503311157,1.1798419952392578,1.5486018657684326,0.0969389826059341,-1.2458256483078003,0.5723128318786621
1.7726342795383032e+18,9.48730322265625,-0.5824113488197327,2.740921974182129,1.1761970520019531,0.0836231857538223,-1.071388840675354,0.5182507038116455
1.7726342795582968e+18,9.507296875,-0.9198307991027832,4.088920593261719,1.0047016143798828,0.0993358269333839,-0.7068023681640625,0.2886864244937897
1.7726342795782902e+18,9.527290283203126,-0.555062472820282,4.364441394805908,1.069877862930298,0.0921452939510345,-0.5403549075126648,-0.0069242129102349
1.7726342795982828e+18,9.54728271484375,0.0281046628952026,3.882431983947754,0.5005678534507751,0.0402136966586113,-0.5041359663009644,-0.1211737245321273
1.772634279618275e+18,9.567275146484375,0.4726086854934692,3.2589011192321777,-0.9946686029434204,-0.0932105556130409,-0.343813806772232,-0.0806937143206596
1.7726342796382671e+18,9.58726708984375,0.8996933698654175,2.939049243927002,-2.9131553173065186,-0.3179811537265777,-0.224504292011261,-0.1110537201166153
1.7726342796582592e+18,9.60725927734375,1.3361741304397583,2.749519824981689,-2.861557483673096,-0.5384907126426697,-0.1925463825464248,-0.1925463825464248
1.7726342796782515e+18,9.62725146484375,1.4310730695724487,1.96763277053833,-0.4927033185958862,-0.6354296803474426,-0.2018674314022064,-0.2338253408670425
1.7726342796982436e+18,9.64724365234375,1.1472773551940918,0.5293369293212891,1.1775808334350586,-0.5637907385826111,-0.1094558238983154,-0.1107874065637588
1.772634279718236e+18,9.66723583984375,0.259066104888916,-1.167743682861328,1.157376766204834,-0.5030707120895386,-0.196008488535881,0.1688442677259445
1.772634279738228e+18,9.68722802734375,0.5295131802558899,-2.5445051193237305,-0.1218770742416381,-0.459128588438034,-0.3717769682407379,0.3070622086524963
1.77263427975822e+18,9.707219970703123,1.963183641433716,-1.0835628509521484,-1.4724684953689575,-0.2292979806661605,-0.4279696345329284,0.164583221077919
1.772634279778212e+18,9.727212158203123,5.204497337341309,0.0524091720581054,-2.3420777320861816,-0.1211737245321273,-0.4522043764591217,-0.0681768655776977
1.7726342797982044e+18,9.747204345703125,3.634030818939209,-5.584948539733887,-2.2427544593811035,-0.1613874286413192,-0.3581948578357696,-0.0737695023417472
1.7726342798181965e+18,9.767196533203125,-2.5000417232513428,-10.364008903503418,0.9335826635360718,-0.1139831990003585,-0.0141147412359714,0.1286305636167526
1.7726342798381885e+18,9.7871884765625,-0.3252205848693847,-4.429370880126953,4.213150501251221,0.3342264294624328,0.1430116295814514,0.3363569676876068
1.7726342798581809e+18,9.807180908203126,0.2077445983886718,3.6097822189331055,3.17348313331604,1.1592730283737185,-0.129962146282196,0.4940159618854522
1.772634279878173e+18,9.8271728515625,-0.8441646695137024,5.841534614562988,1.894108772277832,0.6378265619277954,0.0090547399595379,0.2868221998214721
1.772634279898165e+18,9.8471650390625,-1.9029405117034912,1.3060007095336914,0.8060018420219421,0.3536674976348877,-0.3177148401737213,-0.2447443008422851
1.7726342799181573e+18,9.8671572265625,-3.377079486846924,-5.685588836669922,0.3518794775009155,0.5496760010719299,-0.0828242376446724,-0.020240006968379
1.7726342799381494e+18,9.8871494140625,-3.28132963180542,-5.833069801330566,1.9746408462524412,0.6319676041603088,0.0167779009789228,0.52091383934021
1.7726342799581414e+18,9.907141357421876,-1.7486941814422607,1.0395193099975586,2.8688535690307617,0.6562023162841797,-0.1366200447082519,0.7209171056747437
1.7726342799781338e+18,9.9271337890625,-0.9831282496452332,4.376156330108643,2.901075839996338,0.5145222544670105,-0.1848232150077819,0.4511390924453735
1.7726342799981258e+18,9.947125732421876,-1.1579965353012085,1.596994400024414,2.5314760208129883,0.0604537054896354,-0.1323589980602264,-0.1725726872682571
1.772634280018118e+18,9.967117919921876,-1.4166648387908936,-3.63189697265625,0.0705634355545044,-0.0612526535987854,0.042610540986061,-0.4482096135616302
1.7726342800381102e+18,9.987110107421875,-1.5181328058242798,-4.6360273361206055,-2.1541268825531006,0.0085221081972122,0.468183308839798,-0.2993390560150146
1.7726342800581023e+18,10.007102294921877,-0.4664919376373291,-0.5447111129760742,-1.2065038681030271,-0.0095873717218637,0.9062729477882384,-0.1957421749830246
1.7726342800780943e+18,10.02709423828125,-0.3881651163101196,2.3475780487060547,0.5943196415901184,-0.0564589649438858,1.141696214675903,-0.2516685128211975
1.7726342800980867e+18,10.047086669921876,-0.599441409111023,2.091777801513672,1.018665790557861,-0.108390562236309,1.1161298751831057,-0.1978726983070373
1.772634280118079e+18,10.067078857421874,-0.8024616837501526,1.046462059020996,-0.2571444511413574,0.0031957905739545,0.906006634235382,-0.1512674242258072
1.7726342801380713e+18,10.0870712890625,-0.8618897199630737,0.5473041534423828,-1.6078376770019531,0.0665789693593978,0.7054707407951355,-0.2599242925643921
1.7726342801580636e+18,10.107063720703126,-0.8937084078788757,0.7011175155639648,-1.7300705909729004,-0.0087884236127138,0.5595296621322632,-0.5928191542625427
1.772634280178056e+18,10.127055908203126,-0.3866821527481079,1.6491985321044922,-1.3506364822387695,-0.0391484349966049,0.4769717454910278,-0.7811045050621033
1.7726342801980483e+18,10.14704833984375,-0.6704996824264526,2.250172615051269,-0.969081461429596,0.049268439412117,0.438355952501297,-0.6332991719245911
1.7726342802180406e+18,10.16704052734375,-1.3307288885116575,2.09074068069458,-0.8577682971954346,0.0705737099051475,0.410925418138504,-0.4079959392547607
1.772634280238033e+18,10.187032958984377,-1.706579566001892,1.633344650268555,-0.9358556270599364,0.1283642500638961,0.3755053877830505,-0.3046653568744659
1.7726342802580252e+18,10.207025146484376,-1.2994744777679443,1.1457557678222656,-1.193601369857788,0.2777674496173858,0.3725759088993072,-0.2133190184831619
1.7726342802780175e+18,10.227017578125,-0.9561520218849182,0.5622539520263672,-1.6274361610412598,0.3637875020503998,0.3928159177303314,-0.0591221265494823
1.7726342802980099e+18,10.247009765625,-1.2431635856628418,0.7003984451293945,-1.870033264160156,0.3400853872299194,0.4841622710227966,0.0577905476093292
1.7726342803180022e+18,10.267002197265626,-1.1196632385253906,1.849517822265625,-2.350531578063965,0.2439453452825546,0.6000096797943115,0.0407463312149047
1.7726342803379948e+18,10.286994873046876,-1.298464298248291,2.208641529083252,-2.7078564167022705,0.1390168964862823,0.5012065172195435,-0.0135821104049682
1.7726342803579868e+18,10.30698681640625,-0.5844792127609253,1.1110382080078125,-2.00199031829834,0.0716389715671539,0.2561958730220794,-0.1217063590884208
1.7726342803779794e+18,10.3269794921875,-0.6603378057479858,-0.5373449325561523,-0.4910816550254822,0.0380831696093082,-0.0127831622958183,-0.1717737466096878
1.7726342803979717e+18,10.3469716796875,-0.917243719100952,-1.538227081298828,1.698280692100525,-0.0958737134933471,-0.2042642831802368,-0.0980042442679405
1.772634280417964e+18,10.366964111328125,1.0285149812698364,-1.1468133926391602,3.1655869483947754,-0.316915899515152,-0.3099916875362396,-0.0053263176232576
1.7726342804379564e+18,10.386956298828125,1.5763698816299438,-1.4605236053466797,3.279770374298096,-0.4695149064064026,-0.5297023057937622,0.0897484496235847
1.7726342804579487e+18,10.40694873046875,0.0033165216445922,-2.9106006622314453,2.739600658416748,-0.594150722026825,-0.5781717896461487,0.1941442787647247
1.772634280477941e+18,10.42694091796875,1.1937155723571775,-3.296577453613281,1.739559531211853,-0.5339633226394653,-0.4857601523399353,0.432230681180954
1.7726342804979333e+18,10.446933349609376,2.4920196533203125,-3.862418174743652,1.385778307914734,-0.2330264002084732,-0.4101264476776123,0.8956202864646912
1.7726342805179256e+18,10.466925537109375,2.526099681854248,-5.267812728881836,-0.0862588882446289,-0.2034653276205063,-0.2364885061979293,1.2412983179092407
1.772634280537918e+18,10.48691796875,1.5395506620407104,-4.241445541381836,-0.9331167936325072,-0.1627189964056015,0.0743021294474601,1.2343741655349731
1.7726342805579103e+18,10.50691015625,1.132018804550171,-1.368389129638672,-0.7111852169036865,0.0812263414263725,0.1797632128000259,0.9472855925559998
1.7726342805779026e+18,10.526902587890625,1.5009223222732544,0.0352201461791992,-0.2421783208847046,0.1731053292751312,-0.1824263781309127,0.4934833347797394
1.7726342805978954e+18,10.5468955078125,1.6702957153320312,-0.0576562881469726,0.6434236764907837,0.0503337010741233,-0.6996118426322937,0.1118526682257652
1.7726342806178888e+18,10.566888671875,0.7439577579498291,-0.4246492385864258,1.3066833019256592,-0.0471379123628139,-0.9941571950912476,0.0186421126127243
1.772634280637882e+18,10.586882080078125,-0.1232774257659912,-0.5374069213867188,1.164158821105957,0.011185267008841,-1.054078221321106,0.1499358415603637
1.7726342806578752e+18,10.606875244140625,-0.3591684103012085,0.0380468368530273,0.8882962465286255,0.108390562236309,-1.0420939922332764,0.3222422301769256
1.7726342806778685e+18,10.62686865234375,-0.6166484355926514,1.906826496124268,0.8509828448295593,0.1672463715076446,-1.0269140005111694,0.323041170835495
1.772634280697862e+18,10.64686181640625,-0.8221945762634277,3.5922112464904785,1.0275042057037354,0.1771000623703003,-0.8631297945976257,0.1826926916837692
1.7726342807178552e+18,10.666855224609376,-0.6876742839813232,3.795448303222656,1.332381010055542,0.1283642500638961,-0.6969486474990845,-0.0442084372043609
1.7726342807378483e+18,10.686848388671876,-0.3960766792297363,3.123088359832764,1.308718204498291,0.0511326491832733,-0.6538054943084717,-0.1603221595287323
1.7726342807578417e+18,10.706841552734376,-0.3195648193359375,2.685105800628662,0.1635270118713379,-0.0242347456514835,-0.5328980684280396,-0.1675126850605011
1.772634280777835e+18,10.7268349609375,-0.3681657314300537,2.794100284576416,-1.6006333827972412,-0.1251684576272964,-0.358993798494339,-0.1978726983070373
1.7726342807978284e+18,10.746828369140625,0.3153650760650635,2.7917633056640625,-2.5231800079345703,-0.2684464156627655,-0.3243727385997772,-0.2948116660118103
1.7726342808178214e+18,10.766821533203125,0.8927953243255615,1.994882583618164,-1.19705069065094,-0.3779022395610809,-0.2761695683002472,-0.3653853833675384
1.7726342808378148e+18,10.786814697265624,1.1184619665145874,0.5311365127563477,0.5146049857139587,-0.4242411851882934,-0.1651158481836319,-0.3022685348987579
1.7726342808578081e+18,10.80680810546875,0.6757075786590576,-1.0677108764648438,0.971030592918396,-0.4199801385402679,-0.1549958437681198,-0.1430116295814514
1.7726342808778015e+18,10.826801513671874,-0.3556997776031494,-1.3820781707763672,-0.1048099994659423,-0.4593949019908905,-0.4135885536670685,-0.0703073889017105
1.7726342808977946e+18,10.846794677734374,-0.0371644496917724,-0.5375795364379883,-1.066875696182251,-0.4327633082866668,-0.702807605266571,-0.1605884730815887
1.772634280917788e+18,10.866787841796874,2.70142126083374,-0.1302957534790039,-1.6049286127090454,-0.3238401114940643,-0.7933549880981445,-0.2484727203845977
1.7726342809377812e+18,10.88678125,3.355730533599853,-3.726128578186035,-1.502012014389038,-0.2308958619832992,-0.524642288684845,-0.1411474198102951
1.7726342809577746e+18,10.906774658203124,-0.5247167348861694,-8.598092079162598,1.5279576778411863,-0.2199769169092178,-0.0290284305810928,0.1123853027820587
1.772634280977768e+18,10.926767822265624,-1.0263290405273438,-4.739629745483398,3.4222819805145264,-0.0090547399595379,0.2383527159690857,0.2854906320571899
1.772634280997761e+18,10.946760986328124,-1.0023012161254885,1.32818603515625,3.756802558898926,0.4519380629062652,0.2311621904373169,0.3691138029098511
1.7726342810177544e+18,10.96675439453125,0.2083353996276855,3.2799859046936035,2.7662112712860107,0.2916159033775329,0.0279631670564413,0.1014663502573967
1.7726342810377477e+18,10.986747802734374,-0.3284133672714233,1.157609939575195,1.116881251335144,0.2082590162754058,-0.0804273933172226,-0.3755053877830505
1.772634281057741e+18,11.006740966796874,-1.1033064126968384,-1.7786617279052734,0.3113818764686584,0.2031990140676498,-0.0258326400071382,-0.4159854054450989
1.7726342810777344e+18,11.026734375,-1.413287878036499,-2.516268730163574,0.9923985600471495,0.3201116919517517,0.0924116075038909,-0.2495379745960235
1.772634281097728e+18,11.04672802734375,-0.9475621581077576,-0.50531005859375,2.9547665119171143,0.3704454004764557,0.0394147485494613,-0.1115863546729087
1.772634281117722e+18,11.06672216796875,-1.3425174951553345,1.645540714263916,3.418591022491455,0.2189116477966308,-0.0764326602220535,-0.2399506121873855
1.7726342811377162e+18,11.08671630859375,-1.6810959577560425,1.6505184173583984,2.331233024597168,0.0798947662115097,-0.1387505680322647,-0.4261054098606109
1.7726342811577103e+18,11.10671044921875,-1.1027950048446655,-0.8406963348388672,1.1025984287261963,-0.0178431645035743,-0.1110537201166153,-0.5326317548751831
1.7726342811777047e+18,11.12670458984375,-0.7898858189582825,-2.632720947265625,-0.4845250844955444,-0.0830905586481094,0.0364852771162986,-0.5070654153823853
1.7726342811976988e+18,11.14669873046875,-0.4218907356262207,-1.837204933166504,-0.9552000761032104,-0.2173137664794922,0.3853590786457062,-0.3187801241874695
1.772634281217693e+18,11.16669287109375,-0.3896167278289795,0.8535318374633789,-0.1936488151550293,-0.2838927209377289,0.633831799030304,-0.168577954173088
1.772634281237687e+18,11.18668701171875,-0.387427806854248,2.2917723655700684,1.070059299468994,-0.2644516825675964,0.6988128423690796,-0.0916126668453216
1.7726342812576812e+18,11.20668115234375,-0.3613965511322021,1.653000831604004,1.3033771514892578,-0.1368863582611084,0.6756433844566345,-0.1046621426939964
1.7726342812776753e+18,11.22667529296875,-0.463343858718872,0.3084449768066406,0.1128296256065368,-0.0447410680353641,0.5177180767059326,-0.2037316560745239
1.7726342812976694e+18,11.24666943359375,-0.4596552848815918,-1.019235610961914,-0.8300774097442627,-0.0599210746586322,0.3150516748428345,-0.4282359480857849
1.7726342813176637e+18,11.266663818359374,-0.5364539623260498,-0.9700164794921876,-1.3769387006759644,-0.0729705542325973,0.1507347822189331,-0.6751107573509216
1.772634281337659e+18,11.286658935546876,-0.8593797087669373,0.4502029418945312,-1.4046473503112793,-0.0287621151655912,0.0900147706270217,-0.604004442691803
1.772634281357654e+18,11.306654052734377,-0.6169777512550354,1.3180131912231443,-1.5241163969039917,0.0657800212502479,0.1318263560533523,-0.3318295776844024
1.7726342813776492e+18,11.326649169921875,-0.1966270208358764,0.7289247512817383,-1.2727134227752686,0.1190432012081146,0.1784316450357437,-0.07590002566576
1.7726342813976443e+18,11.346644287109376,-0.4582346677780151,-0.0686101913452148,-1.014085292816162,0.1339568942785263,0.1744368970394134,0.0564589649438858
1.7726342814176394e+18,11.366639404296874,-0.4805058240890503,0.1514511108398437,-1.165583610534668,0.164583221077919,0.1233042553067207,0.2018674314022064
1.7726342814376346e+18,11.386634521484376,0.6630146503448486,0.8469123840332031,-0.5948638319969177,0.2189116477966308,0.0082557927817106,0.3171822130680084
1.7726342814576297e+18,11.406629638671877,0.434616208076477,0.4765329360961914,0.7036327719688416,0.163517951965332,-0.2106558680534362,0.2953443229198456
1.7726342814776246e+18,11.42662451171875,-0.2519537210464477,-0.773533821105957,0.8321121335029602,0.040480013936758,-0.4814991056919098,0.2511358857154846
1.7726342814976197e+18,11.44661962890625,-0.6934227347373962,-1.569061279296875,0.575168251991272,-0.0556600205600261,-0.7161234021186829,0.2708432376384735
1.7726342815176148e+18,11.46661474609375,-1.000960350036621,-1.301279067993164,1.1085069179534912,-0.0468715950846672,-0.8721845149993896,0.2993390560150146
1.77263428153761e+18,11.48660986328125,-0.7708517909049988,-0.5741500854492188,1.883571982383728,-0.0657800212502479,-0.919322431087494,0.3166495859622955
1.772634281557605e+18,11.506605224609377,-0.5055935382843018,0.2645044326782226,2.444244861602783,-0.0676442310214042,-0.8998813629150391,0.320910632610321
1.7726342815776003e+18,11.526600341796875,-0.1584055423736572,0.9162940979003906,2.8542728424072266,-0.1037300378084182,-0.7097318172454834,0.301735907793045
1.772634281597594e+18,11.546593994140624,-0.1076878309249877,0.8267221450805664,2.976785659790039,-0.1125184595584869,-0.4945485889911651,0.2351569235324859
1.7726342816175875e+18,11.56658740234375,-0.2787914276123047,-0.0081605911254882,2.481512546539306,-0.1103879362344741,-0.3057306408882141,0.1422126740217209
1.7726342816375808e+18,11.586580810546875,-0.2869778871536255,-0.6101217269897461,1.5648128986358645,-0.0800279229879379,-0.1027979329228401,0.0753673911094665
1.7726342816575741e+18,11.60657421875,-0.007631778717041,-0.3622245788574219,0.9496027827262878,-0.0315584316849708,0.1019989848136901,0.0138484258204698
1.7726342816775675e+18,11.6265673828125,0.3805283308029175,0.2389583587646484,0.8233569860458374,-0.0030626326333731,0.2609895765781402,-0.023169482126832
1.7726342816975608e+18,11.646560791015624,0.3681873083114624,0.530064582824707,0.7791134715080261,0.0070573706179857,0.4000064432621002,-0.0143810575827956
1.7726342817175542e+18,11.66655419921875,0.1559095382690429,0.5115480422973633,0.6159762144088745,0.0097205294296145,0.5435507297515869,0.0332894846796989
1.7726342817375475e+18,11.686547607421875,0.2381095886230468,0.1922807693481445,0.6371891498565674,0.0131826363503932,0.5938844084739685,0.0500673875212669
1.7726342817575409e+18,11.706540771484375,0.2868306636810303,-0.155797004699707,0.5157917737960815,0.008655265904963,0.5451486110687256,0.0141147412359714
1.7726342817775342e+18,11.7265341796875,0.1993241310119629,-0.2836036682128906,0.2286771535873413,-0.0153131633996963,0.5179843902587891,-0.006657897029072
1.7726342817975276e+18,11.746527587890624,0.2189737558364868,-0.2197504043579101,0.0613261461257934,-0.011584741063416,0.5126580595970154,-0.0394147485494613
1.772634281817521e+18,11.76652099609375,0.3603569269180298,0.145547866821289,-0.096030056476593,0.0113184247165918,0.4588622748851776,-0.0756337121129036
1.7726342818375142e+18,11.78651416015625,0.442934513092041,-0.030400276184082,0.1179432868957519,0.0219710599631071,0.4111917316913605,-0.0892158225178718
1.7726342818575076e+18,11.806507568359375,0.3602814674377441,0.0038604736328125,0.1031638383865356,0.0091878976672887,0.4127896130084991,-0.1382179409265518
1.772634281877501e+18,11.8265009765625,0.3364156484603882,0.1812362670898437,-0.015756607055664,-0.0081226341426372,0.4375569820404053,-0.0956073999404907
1.7726342818974943e+18,11.846494384765624,0.3581109046936035,0.2583541870117187,-0.0525954365730285,0.0288952738046646,0.4372906684875488,-0.0982705578207969
1.7726342819174876e+18,11.866487548828124,0.3139448165893554,0.1631584167480468,0.018862247467041,0.0392815917730331,0.4117243587970733,-0.1161137223243713
1.772634281937481e+18,11.88648095703125,0.2733904123306274,0.063481330871582,0.0664149522781372,0.0334226414561271,0.3928159177303314,-0.108390562236309
1.772634281957474e+18,11.90647412109375,0.1745100021362304,0.0546197891235351,0.0608069896697998,0.03795001283288,0.3861580193042755,-0.1046621426939964
1.7726342819774674e+18,11.92646728515625,0.0890202522277832,0.0644359588623046,0.0539973974227905,0.0374173820018768,0.3760380148887634,-0.1118526682257652
1.7726342819974607e+18,11.946460693359375,0.1126755475997924,0.117136001586914,0.0117822885513305,0.0402136966586113,0.3699127733707428,-0.1347558349370956
1.772634282017454e+18,11.9664541015625,0.2407466173171997,0.0978193283081054,-0.0683476328849792,0.0490021221339702,0.3771032989025116,-0.1384842544794082
1.7726342820374474e+18,11.986447509765624,0.3041690587997436,0.1115274429321289,-0.1632448434829712,0.0561926513910293,0.3949464559555053,-0.1230379343032836
1.7726342820574408e+18,12.006440673828124,0.4104199409484863,0.162602424621582,-0.3082587718963623,0.0561926513910293,0.4143875241279602,-0.1118526682257652
1.772634282077434e+18,12.02643408203125,0.3550022840499878,0.1888236999511718,-0.4312061667442322,0.0596547573804855,0.4189148843288421,-0.1147821471095085
1.7726342820974272e+18,12.04642724609375,0.3794898986816406,0.2049951553344726,-0.5668986439704895,0.0719052851200103,0.3960117101669311,-0.1115863546729087
1.7726342821174203e+18,12.066420166015623,0.5086495876312256,0.0721139907836914,-0.6631014347076416,0.0905473977327346,0.3619232773780823,-0.0950747728347778
1.772634282137413e+18,12.0864130859375,0.3314650058746338,0.0316743850708007,-0.7830647826194763,0.1086568832397461,0.3121222257614136,-0.0772316083312034
1.7726342821574062e+18,12.10640625,0.2779122591018677,0.1205577850341796,-0.8306724429130554,0.1137168779969215,0.2804306149482727,-0.0628505498170852
1.7726342821773993e+18,12.1263994140625,0.2747451066970825,0.2008180618286132,-0.5957942605018616,0.1290300488471985,0.2095905989408493,-0.0681768655776977
1.7726342821973921e+18,12.14639208984375,0.1644760370254516,0.1806879043579101,-0.2099273204803466,0.1130510941147804,0.1520663648843765,-0.0873516052961349
1.7726342822173852e+18,12.16638525390625,-0.0182486772537231,0.1754741668701172,0.0346184372901916,0.0837563425302505,0.1089231967926025,-0.103330560028553
1.7726342822373783e+18,12.18637841796875,-0.1373494863510131,0.2571516036987304,0.2131288945674896,0.0672447606921196,0.066046342253685,-0.0908137187361717
1.7726342822573711e+18,12.20637109375,-0.0222061872482299,0.2574520111083984,0.3402344882488251,0.053928967565298,0.0428768582642078,-0.0687095001339912
1.7726342822773642e+18,12.2263642578125,0.0209490060806274,0.1046028137207031,0.3244177103042602,0.0355531685054302,0.0569915995001792,-0.0553937032818794
1.7726342822973573e+18,12.246357421875,-0.0166705846786499,-0.042647361755371,0.3306487798690796,0.0089215822517871,0.1089231967926025,-0.0319579057395458
1.7726342823173501e+18,12.26635009765625,-0.0662521123886108,-0.0754594802856445,0.3902583718299866,0.0059921070933341,0.1395495235919952,-0.0319579057395458
1.7726342823373432e+18,12.28634326171875,-0.0252529382705688,-0.0365867614746093,0.4625691771507263,0.0113184247165918,0.1648495346307754,-0.0572579130530357
1.772634282357336e+18,12.306336181640624,-0.0416798591613769,0.0587396621704101,0.3465918004512787,0.0099868457764387,0.1845569014549255,-0.0673779174685478
1.7726342823773292e+18,12.3263291015625,0.0017246007919311,0.1013851165771484,0.2402993142604828,0.0038615802768617,0.2218411266803741,-0.0540621243417263
1.7726342823973222e+18,12.346322265625,0.0309343338012695,0.0294075012207031,0.0792311429977417,0.0019973691087216,0.2596579790115356,-0.0372842252254486
1.772634282417315e+18,12.366315185546876,0.0484088659286499,-0.0195550918579101,-0.03519207239151,0.0102531611919403,0.2918822169303894,-0.0271642208099365
1.7726342824373082e+18,12.38630810546875,0.0110530853271484,0.0079145431518554,-0.146388292312622,0.0182426385581493,0.3190464377403259,-0.0079894764348864
1.7726342824573012e+18,12.40630126953125,0.0557080507278442,0.0927743911743164,-0.2778833508491516,0.0209057964384555,0.3238401114940643,0.0
1.772634282477294e+18,12.426294189453126,0.118151307106018,0.1737203598022461,-0.4004882574081421,0.0326236970722675,0.3273022174835205,-0.0055926335044205
1.7726342824972872e+18,12.446287109375,0.052802562713623,0.1302804946899414,-0.5192589163780212,0.0446079112589359,0.3296990692615509,-0.0189084280282259
1.77263428251728e+18,12.466280029296875,0.0735837221145629,0.072728157043457,-0.4778446555137634,0.0395479090511798,0.3094590604305267,-0.0450073853135108
1.772634282537273e+18,12.486273193359375,0.0423866510391235,0.0589532852172851,-0.3462232947349548,0.0390152782201767,0.2628537714481354,-0.0671116039156913
1.7726342825572662e+18,12.50626611328125,-0.036256194114685,0.0641145706176757,-0.2123544216156005,0.0355531685054302,0.2303632348775863,-0.0711063370108604
1.772634282577259e+18,12.526259033203123,-0.0701146125793457,0.0833272933959961,-0.1810700893402099,0.0270310621708631,0.1952095478773117,-0.0689758136868476
1.7726342825972518e+18,12.546251953125,-0.156456708908081,0.1845922470092773,-0.1282060742378235,0.0267647467553615,0.1563274264335632,-0.0707068666815757
1.7726342826172442e+18,12.566244140625,-0.0766597986221313,0.2615203857421875,-0.0452510714530944,0.019840532913804,0.1251684576272964,-0.0765658169984817
1.7726342826372365e+18,12.586236572265625,-0.1224952936172485,0.1754665374755859,-0.0644610524177551,0.0134489517658948,0.1097221449017524,-0.0805605575442314
1.772634282657229e+18,12.60622900390625,-0.1376653909683227,0.0568389892578125,-0.1847351193428039,0.0099868457764387,0.1091895103454589,-0.0704405531287193
1.7726342826772214e+18,12.626221435546874,-0.1365762948989868,0.0624732971191406,-0.2374563813209533,0.017710005864501,0.1246358305215835,-0.0651142299175262
1.772634282697214e+18,12.6462138671875,-0.0880113840103149,0.100799560546875,-0.2638259530067444,0.0230363234877586,0.1110537201166153,-0.0709731802344322
1.7726342827172063e+18,12.666206298828126,-0.0720968246459961,0.0733404159545898,-0.2652663588523865,0.0126500045880675,0.0996021404862403,-0.0728373900055885
1.7726342827371988e+18,12.68619873046875,-0.0516782999038696,0.0597400665283203,-0.2528879642486572,0.0019973691087216,0.0886831879615783,-0.0691089704632759
1.7726342827571912e+18,12.706191162109375,-0.0677543878555297,0.0797233581542968,-0.1819912791252136,0.0030626326333731,0.0830905586481094,-0.0560594946146011
1.7726342827771837e+18,12.726183837890623,-0.0652178525924682,0.1134357452392578,-0.0864162445068359,-0.0025300008710473,0.0713726580142974,-0.048868965357542
1.772634282797176e+18,12.746176025390625,-0.0303797721862792,0.0571441650390625,-0.0809382200241088,-0.0049268435686826,0.0639158114790916,-0.0502005442976951
1.7726342828171686e+18,12.766168701171877,0.0057508945465087,0.0291938781738281,-0.0671140551567077,-0.0081226341426372,0.0633831769227981,-0.0438089631497859
1.772634282837161e+18,12.786160888671876,-0.0428708791732788,0.0782938003540039,-0.0793455839157104,-0.0089215822517871,0.0575242303311824,-0.0376836955547332
1.7726342828571535e+18,12.806153564453124,-0.0439571142196655,0.1075124740600586,-0.1483610868453979,-0.0057257916778326,0.0615189671516418,-0.0334226414561271
1.7726342828771459e+18,12.826145751953124,-0.0080885887145996,0.0466527938842773,-0.164678692817688,-0.0099868457764387,0.0583231784403324,-0.0390152782201767
1.7726342828971384e+18,12.846138427734376,0.0174988508224487,-0.0341243743896484,-0.1662185192108154,-0.017710005864501,0.0498010702431201,-0.0486026480793952
1.7726342829171308e+18,12.866130859375,-0.0190998315811157,-0.0429286956787109,-0.1459975838661193,-0.0161121115088462,0.045540016144514,-0.0451405420899391
1.772634282937123e+18,12.886123046875,-0.0598210096359252,0.0345287322998046,-0.1111828684806823,-0.0105194775387644,0.0266315881162881,-0.0419447496533393
1.7726342829571156e+18,12.90611572265625,-0.0619682073593139,0.0737810134887695,-0.0376516580581665,-0.0078563187271356,0.013315794058144,-0.0374173820018768
1.772634282977108e+18,12.92610791015625,-0.0647040605545044,0.0937261581420898,-0.0498139262199401,-0.0083889504894614,0.0042610540986061,-0.0438089631497859
1.7726342829971005e+18,12.9461005859375,-0.0913100242614746,0.1039581298828125,-0.1025691032409668,-0.0081226341426372,0.0090547399595379,-0.0462058037519454
1.7726342830170929e+18,12.9660927734375,-0.0226126909255981,0.0517835617065429,-0.1193852424621582,-0.0121173728257417,0.0170442163944244,-0.0446079112589359
1.7726342830370854e+18,12.98608544921875,-0.0391498804092407,0.0474567413330078,-0.116554856300354,-0.008655265904963,0.0245010610669851,-0.0432763323187828
1.7726342830570778e+18,13.006077880859374,-0.0239371061325073,0.0957536697387695,-0.1477435231208801,-0.0083889504894614,0.0311589576303958,-0.032091062515974
1.7726342830770703e+18,13.0260703125,-0.0408730506896972,0.1009635925292968,-0.1118407249450683,-0.0097205294296145,0.0298273786902427,-0.0195742174983024
1.7726342830970634e+18,13.0460634765625,-0.1152806282043457,0.0966978073120117,-0.0902943611145019,-0.0091878976672887,0.0170442163944244,-0.0147805316373705
1.7726342831370506e+18,13.086050537109376,-0.0439666509628295,0.0546073913574218,-0.0434706807136535,-0.0070573706179857,0.0061252652667462,-0.0158457942306995
1.7726342831570442e+18,13.106044189453126,-0.0900849103927612,0.0072431564331054,-0.0573751926422119,-0.008655265904963,-0.0087884236127138,-0.0126500045880675
1.7726342831770378e+18,13.126037841796874,-0.1115896701812744,0.0030994415283203,-0.080685019493103,-0.0113184247165918,-0.017310531809926,-0.010785792954266
1.7726342831970314e+18,13.146031494140624,-0.0517882108688354,0.0230016708374023,-0.0630761981010437,-0.013715268112719,-0.0119842141866683,-0.0091878976672887
1.772634283217025e+18,13.16602490234375,-0.0693703889846801,0.0762834548950195,-0.0689412951469421,-0.0081226341426372,-0.0114515833556652,-0.0155794788151979
1.7726342832370186e+18,13.1860185546875,-0.08217453956604,0.0768823623657226,-0.0800655782222747,-0.0089215822517871,-0.0146473739296197,-0.0206394810229539
1.7726342832570122e+18,13.20601220703125,-0.0757503509521484,0.0774030685424804,-0.1038487255573272,-0.0118510564789175,-0.011185267008841,-0.0206394810229539
1.7726342832770058e+18,13.226005859375,-0.0254701375961303,0.0734176635742187,-0.1164737939834594,-0.0097205294296145,-0.006657897029072,-0.0251668505370616
1.7726342832969994e+18,13.24599951171875,-0.0524630546569824,0.1123208999633789,-0.1075914502143859,-0.0078563187271356,-0.0031957905739545,-0.0302268527448177
1.7726342833369866e+18,13.285986572265625,-0.0448582172393798,0.0556821823120117,-0.1006539463996887,-0.0070573706179857,-0.002130527049303,-0.0326236970722675
1.7726342833569802e+18,13.305980224609376,-0.0640428066253662,0.0367298126220703,-0.0715552568435669,-0.0097205294296145,0.0002663158811628,-0.0344879068434238
1.7726342833769738e+18,13.325973876953125,-0.0972481966018676,0.0130653381347656,-0.1051328182220459,-0.0094542140141129,-0.0013315794058144,-0.0334226414561271
1.7726342833969674e+18,13.345967529296876,-0.077383279800415,-0.0009346008300781,-0.1296173334121704,-0.0094542140141129,-0.0130494777113199,-0.0296942200511693
1.7726342834369546e+18,13.38595458984375,-0.0095483064651489,0.0219621658325195,-0.0771938860416412,-0.008655265904963,-0.032490536570549,-0.0174436904489994
1.7726342834569482e+18,13.4059482421875,-0.039152979850769,0.0563020706176757,-0.0942371785640716,-0.00093210558407,-0.0364852771162986,-0.017710005864501
1.7726342834769418e+18,13.42594189453125,-0.06979501247406,0.1574373245239257,-0.0852569341659545,-0.0022636849898844,-0.0370179079473018,-0.0201068483293056
1.7726342834969354e+18,13.445935302734377,-0.0705187320709228,0.1629562377929687,-0.0714848637580871,-0.003328948514536,-0.0332894846796989,-0.0171773750334978
1.772634283516929e+18,13.465928955078123,-0.0657379627227783,0.1399049758911132,-0.1116792857646942,0.013715268112719,-0.0314252749085426,-0.0286289565265178
1.7726342835369226e+18,13.485922607421877,-0.0181306600570678,0.0823583602905273,-0.1307457685470581,-0.0219710599631071,-0.0423442237079143,-0.0078563187271356
,,,,,-0.0163784269243478,-0.0418115928769111,0.0027963167522102
,,,,,-0.0219710599631071,-0.0314252749085426,0.0011984214652329
,,,,,-0.0254331659525632,-0.0263652727007865,-0.0067910552024841
,,,,,0.0003994738217443,-0.0258326400071382,0.0030626326333731
