time,seconds_elapsed,accel_z,accel_y,accel_x,gyro_x,gyro_y,gyro_z
1.7726342361942177e+18,0.2982177734375,-0.0068298578262329,0.0784807205200195,-0.0349341630935668,-0.0189084280282259,0.0055926335044205,0.003328948514536
1.772634236214211e+18,0.318211181640625,-0.0598483085632324,0.0502405166625976,-0.0167183876037597,-0.0093210563063621,0.0050600017420947,-0.0003994738217443
1.7726342362342047e+18,0.33820458984375,-0.1037878990173339,0.0695314407348632,-0.0042613744735717,-0.0058589493855834,0.0029294746927917,-0.0083889504894614
1.7726342362541983e+18,0.3581982421875,-0.0706394910812377,0.0987482070922851,0.0075041055679321,-0.0074568446725606,-0.0010652635246515,-0.0123836882412433
1.772634236274192e+18,0.37819189453125,-0.057942509651184,0.0945682525634765,0.0269744396209716,-0.0057257916778326,-0.0109189506620168,-0.011584741063416
1.7726342362941852e+18,0.398185302734375,-0.0764244794845581,0.065953254699707,0.0462771654129028,-0.0019973691087216,-0.0276968516409397,-0.00093210558407
1.7726342363141788e+18,0.4181787109375,-0.1376111507415771,0.0285253524780273,0.109970211982727,-0.0019973691087216,-0.040480013936758,0.0049268435686826
1.7726342363341724e+18,0.43817236328125,-0.1792943477630615,0.0340166091918945,0.1653330326080322,-0.0065247388556599,-0.0450073853135108,0.0017310532275587
1.7726342363541658e+18,0.458165771484375,-0.220784306526184,0.0154581069946289,0.2207938432693481,-0.0078563187271356,-0.0479368567466735,-0.0050600017420947
1.7726342363741594e+18,0.478159423828125,-0.203328251838684,0.0071563720703125,0.2172822952270507,-0.0049268435686826,-0.05139896646142,-0.011185267008841
1.772634236394153e+18,0.498153076171875,-0.169556975364685,0.0141868591308593,0.23047935962677,-0.0102531611919403,-0.0474042259156703,-0.0097205294296145
1.7726342364141463e+18,0.518146240234375,-0.1811718940734863,0.0359964370727539,0.1805462837219238,-0.0146473739296197,-0.0431431718170642,-0.0099868457764387
1.77263423643414e+18,0.538139892578125,-0.1744352579116821,0.0234966278076171,0.2587196826934814,-0.0149136893451213,-0.0359526425600051,-0.004660528153181
1.7726342364541335e+18,0.558133544921875,-0.1854224205017089,-0.0649137496948242,0.190736174583435,-0.0087884236127138,-0.0167779009789228,-0.0075900023803114
1.772634236474127e+18,0.578127197265625,-0.0992449522018432,-0.080174446105957,0.0323989391326904,-0.0127831622958183,0.0165115855634212,-0.0214384291321039
1.7726342364941204e+18,0.598120361328125,0.0108585357666015,-0.0228843688964843,-0.0252989530563354,-0.019441058859229,0.0495347529649734,-0.0403468571603298
1.772634236514114e+18,0.618114013671875,0.0203772783279418,0.0494556427001953,-0.0577303171157836,-0.0197073742747306,0.0825579240918159,-0.0507331751286983
1.7726342365341076e+18,0.638107666015625,-0.0376621484756469,0.1075811386108398,-0.0825765132904052,-0.0095873717218637,0.1267663538455963,-0.0398142226040363
1.772634236554101e+18,0.65810107421875,-0.0800271034240722,0.0943708419799804,-0.1326884031295776,-0.0077231605537235,0.1733716428279876,-0.0608531795442104
1.7726342365740946e+18,0.678094482421875,0.0307576656341552,0.0425567626953125,-0.1765127182006836,-0.013315794058144,0.1973400712013244,-0.0898816064000129
1.772634236594088e+18,0.698087890625,0.0151318311691284,0.0138063430786132,-0.1994953155517578,-0.0125168468803167,0.202133759856224,-0.1093226671218872
1.7726342366140805e+18,0.71808056640625,-0.0237891674041748,0.0517044067382812,-0.2044662237167358,-0.0101200034841895,0.2008021771907806,-0.1303616166114807
1.7726342366340733e+18,0.7380732421875,-0.0631848573684692,0.1182279586791992,-0.2046582698822021,-0.0034621064551174,0.2074600756168365,-0.1418132036924362
1.772634236654066e+18,0.75806591796875,0.0034209489822387,0.1319999694824218,-0.1898889541625976,-0.011185267008841,0.2213084995746612,-0.1508679538965225
1.7726342366740588e+18,0.778058837890625,0.0062901973724365,0.1788301467895507,-0.2171717882156372,-0.0165115855634212,0.2085253298282623,-0.1404816210269928
1.7726342366940513e+18,0.79805126953125,-0.0067541599273681,0.1725616455078125,-0.2720153331756592,-0.0079894764348864,0.1712411046028137,-0.1250353008508682
1.7726342367140442e+18,0.818044189453125,-0.0436539649963378,0.060704231262207,-0.2833716869354248,0.0037284223362803,0.1363537311553955,-0.1250353008508682
1.7726342367340367e+18,0.83803662109375,-0.0677301883697509,-0.0412359237670898,-0.2624963521957397,0.0045273699797689,0.1286305636167526,-0.1237037256360054
1.7726342367540296e+18,0.858029541015625,-0.1296346187591552,0.0993986129760742,-0.2888234853744507,-0.0018642111681401,0.1129179298877716,-0.1178447753190994
1.7726342367740221e+18,0.878022216796875,-0.0878264904022216,0.1828174591064453,-0.3540574312210083,0.0018642111681401,0.092677928507328,-0.1087900400161743
1.772634236794015e+18,0.898014892578125,-0.1643633842468261,0.1134605407714843,-0.339762806892395,0.0047936858609318,0.064981073141098,-0.101066879928112
1.7726342368340004e+18,0.93800048828125,-0.1879290342330932,0.1825942993164062,-0.2754403352737427,-0.0002663158811628,0.0399473831057548,-0.0917458236217498
1.7726342368539932e+18,0.9579931640625,-0.1472557783126831,0.2003030776977539,-0.1497634649276733,0.0026631588116288,-0.0071905287913978,-0.0874847695231437
1.7726342368739858e+18,0.97798583984375,-0.2066313028335571,0.1119441986083984,-0.0819858312606811,0.0151800047606229,-0.0466052778065204,-0.0834900289773941
1.7726342368939786e+18,0.997978515625,-0.2353090047836303,0.0230369567871093,-0.120333194732666,0.0191747434437274,-0.0748347640037536,-0.0786963403224945
1.7726342369139712e+18,1.01797119140625,-0.171687364578247,-0.0083122253417968,-0.1142225265502929,0.0061252652667462,-0.1086568832397461,-0.0829573944211006
1.772634236933964e+18,1.037964111328125,-0.1378480195999145,0.0599822998046875,-0.0348404645919799,-0.0175768472254276,-0.1778990030288696,-0.094142660498619
1.7726342369539566e+18,1.05795654296875,-0.0576359033584594,0.0854730606079101,-0.0123658180236816,-0.0167779009789228,-0.1816274374723434,-0.0890826657414436
1.7726342369739494e+18,1.077949462890625,-0.0304275751113891,0.0723705291748046,0.0436060428619384,-0.0210389550775289,-0.1928126960992813,-0.0640489682555198
1.772634236993942e+18,1.09794189453125,-0.055405855178833,0.0166816711425781,0.0291202068328857,-0.0292947478592395,-0.2026663869619369,-0.03795001283288
1.7726342370139348e+18,1.117934814453125,-0.0766376256942749,-0.0110797882080078,-0.1140133142471313,-0.0199736915528774,-0.2218411266803741,-0.0307594835758209
1.7726342370339277e+18,1.137927734375,-0.0510997772216796,-0.0916576385498046,-0.1674733161926269,-0.0162452682852745,-0.2543316781520843,-0.0427436977624893
1.7726342370539203e+18,1.157920166015625,0.0578619241714477,-0.0909509658813476,-0.2418307065963745,-0.0146473739296197,-0.2775011360645294,-0.0355531685054302
1.772634237073913e+18,1.1779130859375,-0.0042780637741088,0.014510154724121,-0.2450220584869384,-0.011185267008841,-0.2884201109409332,-0.0304931681603193
1.7726342370939057e+18,1.19790576171875,-0.067352294921875,0.0815353393554687,-0.1862663030624389,-0.0127831622958183,-0.2844253480434418,-0.0267647467553615
1.772634237113898e+18,1.21789794921875,-0.1194870471954345,0.0395936965942382,-0.068385362625122,-0.0061252652667462,-0.2798979878425598,-0.0270310621708631
1.77263423713389e+18,1.23789013671875,-0.2505033016204834,0.0315561294555664,0.0481393337249755,-0.0002663158811628,-0.283360093832016,-0.0302268527448177
1.7726342371538824e+18,1.25788232421875,-0.3131165504455566,0.0903692245483398,0.1353508234024047,0.0029294746927917,-0.342215895652771,-0.0288952738046646
1.7726342371738747e+18,1.277874755859375,-0.3585010766983032,0.0673990249633789,0.2277098894119262,0.0170442163944244,-0.394147515296936,-0.0230363234877586
1.772634237193867e+18,1.297866943359375,-0.3617223501205444,0.0398340225219726,0.2190814018249511,0.020240006968379,-0.4343611896038055,-0.0451405420899391
1.7726342372138593e+18,1.317859375,-0.2784246206283569,0.0169000625610351,0.1409162282943725,0.0085221081972122,-0.4535359442234039,-0.0541952811181545
1.7726342372338514e+18,1.337851318359375,-0.2402459383010864,0.0899639129638671,0.1122739315032959,0.0,-0.4516717195510864,-0.0576573871076107
1.7726342372538437e+18,1.35784375,-0.1454958915710449,0.0575284957885742,0.2659155130386352,-0.0058589493855834,-0.43010014295578,-0.0419447496533393
1.772634237273836e+18,1.3778359375,-0.1360045671463012,0.034616470336914,0.3150951266288757,-0.0109189506620168,-0.3872233033180237,-0.0222373753786087
1.7726342372938284e+18,1.397828369140625,-0.1338651180267334,0.0077552795410156,0.3355798721313476,-0.0266315881162881,-0.3355579972267151,-0.0083889504894614
1.772634237333813e+18,1.43781298828125,-0.0917780399322509,0.0763797760009765,0.1829595565795898,-0.0274305362254381,-0.3086601197719574,-0.0011984214652329
1.772634237353805e+18,1.45780517578125,-0.0641975402832031,-0.0182762145996093,0.2468815445899963,-0.0364852771162986,-0.2918822169303894,0.0041278963908553
1.7726342373737974e+18,1.47779736328125,-0.0789783000946044,-0.0080423355102539,0.1904952526092529,-0.0319579057395458,-0.2703106105327606,0.0017310532275587
1.7726342373937897e+18,1.497789794921875,-0.046380877494812,0.1115827560424804,0.1780729293823242,-0.0303600095212459,-0.244211658835411,0.0019973691087216
1.772634237413782e+18,1.517781982421875,-0.019942283630371,0.097818374633789,0.3055620193481445,-0.0359526425600051,-0.1981390118598938,0.0001331579405814
1.7726342374337743e+18,1.5377744140625,-0.1221458911895752,-0.006204605102539,0.2456012368202209,-0.037550538778305,-0.1137168779969215,0.0203731656074523
1.7726342374537664e+18,1.557766357421875,-0.0925780534744262,-0.0727663040161132,0.1804111003875732,-0.0327568538486957,-0.0865526646375656,0.02490053512156
1.7726342374737587e+18,1.5777587890625,-0.0131217241287231,-0.053502082824707,0.2159454226493835,-0.0330231711268425,-0.0822916105389595,0.0211721118539571
1.772634237493751e+18,1.5977509765625,-0.0055868625640869,0.0041999816894531,0.2879651188850403,-0.0266315881162881,-0.0524642281234264,0.0201068483293056
1.7726342375137434e+18,1.617743408203125,-0.0080052614212036,0.0996532440185546,0.2682264447212219,-0.017310531809926,-0.034621063619852,0.0003994738217443
1.7726342375337357e+18,1.637735595703125,-0.0427442789077758,0.1335697174072265,0.186747670173645,-0.0151800047606229,-0.0154463211074471,-0.0094542140141129
1.7726342375537277e+18,1.657727783203125,-0.1039745807647705,0.1052703857421875,0.1311019659042358,-0.0037284223362803,0.002130527049303,-0.0150468470528721
1.77263423757372e+18,1.677719970703125,-0.0646858215332031,0.0770435333251953,0.0764795541763305,0.0095873717218637,0.0178431645035743,-0.0171773750334978
1.7726342375937124e+18,1.69771240234375,-0.0283284187316894,0.0639734268188476,-0.0304981470108032,0.0143810575827956,0.0290284305810928,-0.0286289565265178
1.7726342376336973e+18,1.737697265625,0.0720076560974121,0.0843982696533203,-0.0765053033828735,0.0189084280282259,0.0503337010741233,-0.0363521166145801
1.7726342376536896e+18,1.757689697265625,0.0745593309402465,0.0762882232666015,-0.1423500776290893,0.0143810575827956,0.0647147595882415,-0.0363521166145801
1.7726342376736822e+18,1.77768212890625,0.0735421180725097,0.0828723907470703,-0.1468141078948974,0.0085221081972122,0.0857537165284156,-0.0304931681603193
1.7726342376936745e+18,1.797674560546875,0.0544482469558715,0.166208267211914,-0.1604294776916504,0.0039947382174432,0.0969389826059341,-0.0272973775863647
1.7726342377136668e+18,1.817666748046875,0.0355390310287475,0.1778106689453125,-0.2507272958755493,-0.0029294746927917,0.0950747728347778,-0.0254331659525632
1.7726342377336607e+18,1.83766064453125,0.1170117855072021,0.1416273117065429,-0.2422019243240356,-0.002130527049303,0.0713726580142974,-0.0416784361004829
1.7726342377536548e+18,1.85765478515625,0.1163876056671142,0.1148653030395507,-0.1816236972808838,-0.0058589493855834,0.0628505498170852,-0.0552605465054512
1.772634237773649e+18,1.87764892578125,0.0600365400314331,0.1168680191040039,-0.1764562129974365,-0.0143810575827956,0.045540016144514,-0.0568584389984607
1.772634237793643e+18,1.89764306640625,0.0720635652542114,0.1909523010253906,-0.1895312070846557,-0.0191747434437274,0.0268979035317897,-0.0544615983963012
1.7726342378136369e+18,1.917636962890625,0.2076605558395385,0.2219467163085937,-0.2035795450210571,-0.0247673764824867,0.0141147412359714,-0.0525973848998546
1.772634237833631e+18,1.937630859375,0.2569187879562378,0.229008674621582,-0.2372665405273437,-0.0292947478592395,-0.0058589493855834,-0.0520647540688514
1.772634237853625e+18,1.957625,0.2339855432510376,0.2407979965209961,-0.2096810340881347,-0.0250336937606334,-0.025300009176135,-0.051798440515995
1.7726342378736192e+18,1.977619140625,0.285117506980896,0.2807579040527344,-0.1715161800384521,-0.0314252749085426,-0.0298273786902427,-0.0432763323187828
1.7726342378936133e+18,1.99761328125,0.3077356815338135,0.2953977584838867,-0.1329336166381836,-0.0407463312149047,-0.0242347456514835,-0.0395479090511798
1.7726342379336015e+18,2.0376015625,0.0248188972473144,0.3226842880249023,-0.2151060104370117,-0.0402136966586113,-0.0338221155107021,-0.043010015040636
1.7726342379535956e+18,2.057595703125,0.2154474258422851,0.3495063781738281,-0.3057229518890381,-0.0423442237079143,-0.0564589649438858,-0.0416784361004829
1.7726342379735898e+18,2.07758984375,0.2789599895477295,0.2941131591796875,-0.079013705253601,-0.0412789620459079,-0.0910800322890281,-0.040879487991333
1.7726342379935836e+18,2.09758349609375,0.0635493993759155,0.3917560577392578,0.061528205871582,-0.0298273786902427,-0.108390562236309,-0.0326236970722675
1.7726342380135777e+18,2.11757763671875,0.1041572093963623,0.505828857421875,0.0092240571975708,-0.0050600017420947,-0.0988031923770904,-0.0070573706179857
1.7726342380335718e+18,2.13757177734375,0.1701586246490478,0.5110998153686523,-0.1749535799026489,-0.0229031667113304,-0.0431431718170642,0.0808268710970878
1.772634238053566e+18,2.15756591796875,-0.0045255422592163,0.1779251098632812,-0.3784369230270386,-0.0245010610669851,-0.0069242129102349,0.1237037256360054
1.77263423807356e+18,2.17756005859375,-0.0832806825637817,-0.1927080154418945,-0.4073597192764282,-0.0143810575827956,-0.0322242230176925,0.1410142630338668
1.772634238093554e+18,2.197553955078125,-0.1176522970199585,-0.3918037414550781,-0.318182110786438,-0.0229031667113304,-0.0237021129578351,0.1372858434915542
1.7726342381135473e+18,2.21754736328125,-0.3464637994766235,-0.3394231796264648,-0.16485595703125,-0.0620516017079353,0.0034621064551174,0.1261005699634552
1.7726342381335406e+18,2.23754052734375,-0.4476709365844726,-0.122629165649414,-0.0762823820114135,-0.0988031923770904,-0.0042610540986061,0.1135837212204933
1.772634238153534e+18,2.257533935546875,-0.5029845833778381,-0.1771926879882812,-0.0718418359756469,-0.1352884620428085,-0.0263652727007865,0.1127847731113433
1.7726342381735273e+18,2.27752734375,-0.5410026907920837,-0.2428445816040039,-0.1405490636825561,-0.1432779431343078,-0.0639158114790916,0.1079910919070243
1.772634238193521e+18,2.29752099609375,-0.5358125567436218,-0.1655836105346679,-0.0897880792617797,-0.1328916251659393,-0.102531611919403,0.0808268710970878
1.7726342382135142e+18,2.31751416015625,-0.5559013485908508,0.0513801574707031,-0.1895540952682495,-0.1637842655181884,-0.1470063626766204,0.0230363234877586
1.7726342382335076e+18,2.337507568359375,-0.5111474990844727,0.1735954284667968,-0.4783340692520141,-0.1872200667858123,-0.1613874286413192,-0.0376836955547332
1.772634238253501e+18,2.3575009765625,-0.5152521729469299,0.1109991073608398,-0.8282051086425781,-0.1802958548069,-0.1701758503913879,-0.072571076452732
1.7726342382734943e+18,2.377494384765625,-0.4162028431892395,0.0239543914794921,-1.2486766576766968,-0.1376853138208389,-0.136087417602539,-0.0912131890654563
1.7726342382934876e+18,2.397487548828125,-0.3058655858039856,0.0040483474731445,-1.4228897094726562,-0.1049284562468528,-0.045540016144514,-0.100001610815525
1.7726342383134812e+18,2.417481201171875,-0.3756898641586303,0.1382265090942382,-1.3674750328063965,-0.1091895103454589,0.0668452829122543,-0.1583247929811477
1.7726342383334746e+18,2.437474609375,-0.32732093334198,0.3386907577514648,-1.145754337310791,-0.1283642500638961,0.2316948175430297,-0.1908153295516967
1.772634238353468e+18,2.457468017578125,-0.2368882298469543,0.4516553878784179,-0.8623136878013611,-0.1597895324230194,0.3257043361663818,-0.2012016475200653
1.7726342383734612e+18,2.477461181640625,-0.2940277457237243,0.4534368515014648,-0.9604158401489258,-0.1813611090183258,0.3161169588565826,-0.1934784948825836
1.7726342383934546e+18,2.49745458984375,-0.3039100170135498,0.4397268295288086,-1.1834449768066406,-0.1765674352645874,0.1952095478773117,-0.2166479676961898
1.7726342384134482e+18,2.5174482421875,-0.2708006501197815,0.3138246536254883,-1.2848315238952637,-0.1744368970394134,0.0745684504508972,-0.2733732461929321
1.7726342384334415e+18,2.537441650390625,-0.302458643913269,0.1913919448852539,-1.3349162340164185,-0.1520663648843765,-0.0282294824719429,-0.3130543231964111
1.772634238453435e+18,2.557434814453125,-0.4111087918281555,0.2595329284667969,-1.3918111324310305,-0.1049284562468528,-0.1121189892292022,-0.3292995989322662
1.7726342384734282e+18,2.57742822265625,-0.3313516974449157,0.2689895629882812,-1.3547616004943848,-0.0628505498170852,-0.1536642611026764,-0.3189132809638977
1.7726342384934216e+18,2.597421630859375,-0.4567199349403381,0.0771446228027343,-1.1679389476776123,-0.0335558019578456,-0.1510011106729507,-0.2757700979709625
1.772634238513415e+18,2.617414794921875,-0.533669114112854,0.1143636703491211,-0.9606964588165284,-0.0079894764348864,-0.157392680644989,-0.237953245639801
1.7726342385334085e+18,2.637408447265625,-0.5232867002487183,0.2605924606323242,-0.7034069299697876,0.0306263267993927,-0.1541968882083892,-0.2209090292453766
1.7726342385534019e+18,2.65740185546875,-0.6470966339111328,0.3254737854003906,-0.5951613783836365,0.0617852844297885,-0.1454084664583206,-0.2078595459461212
1.7726342385733952e+18,2.677395263671875,-0.907187819480896,0.4092330932617187,-0.7889431715011597,0.098536878824234,-0.1217063590884208,-0.1953427046537399
1.7726342385933883e+18,2.69738818359375,-1.1136716604232788,0.4825048446655273,-1.2324029207229614,0.1265000402927398,-0.1113200411200523,-0.210522711277008
1.7726342386133809e+18,2.717380859375,-1.2221400737762451,0.541900634765625,-1.879023790359497,0.1472726762294769,-0.0924116075038909,-0.2576606273651123
1.7726342386333734e+18,2.73737353515625,-1.545828342437744,0.7987565994262695,-2.4600167274475098,0.1688442677259445,-0.0442084372043609,-0.2946785092353821
1.772634238653366e+18,2.757365966796875,-0.9223756790161132,0.6645336151123047,-2.364621162414551,0.1757684797048568,0.0290284305810928,-0.3095922172069549
1.7726342386733586e+18,2.777358642578125,-0.325876235961914,-0.1989145278930664,-1.7727199792861938,0.1693768948316574,0.1257010996341705,-0.3063964247703552
1.7726342386933512e+18,2.79735107421875,-0.1598649024963379,-0.6245565414428711,-1.801294207572937,0.1643168926239013,0.2135853320360183,-0.2994722127914428
1.7726342387133437e+18,2.81734375,0.5631893873214722,-0.8631219863891602,-1.56921124458313,0.1533979475498199,0.2572611272335052,-0.2949448525905609
1.7726342387333363e+18,2.83733642578125,-1.031663417816162,-1.2751169204711914,-0.2834150195121765,0.0814926624298095,0.2966758906841278,-0.2656500935554504
1.7726342387533286e+18,2.85732861328125,-1.2286540269851685,-1.1517038345336914,1.1937260627746582,-0.1296958327293396,0.3845601379871368,-0.1649826914072036
1.7726342387733197e+18,2.877319580078125,-0.312170922756195,-0.6334552764892578,2.3878159523010254,-0.2450106143951416,0.2516685128211975,-0.0270310621708631
1.7726342387933105e+18,2.897310546875,0.4702863693237304,0.2989091873168945,2.3839354515075684,-0.365119069814682,-0.1499358415603637,0.110920563340187
1.7726342388133012e+18,2.91730126953125,1.3568120002746582,1.2044439315795898,1.158594012260437,-0.2511358857154846,-0.6524739265441895,0.2864227294921875
1.772634238833292e+18,2.9372919921875,1.929340124130249,1.205937385559082,-0.3053959608078003,-0.2439453452825546,-0.8583360910415649,0.3961448669433594
1.7726342388532828e+18,2.95728271484375,2.1677074432373047,-0.972783088684082,-0.9992865920066832,-0.2745716869831085,-0.6681865453720093,0.4946817457675934
1.7726342388732736e+18,2.977273681640625,2.0482945442199707,-3.62117862701416,-1.2650079727172852,-0.2876211404800415,-0.3874896168708801,0.5833649635314941
1.7726342388932644e+18,2.997264404296875,1.4348167181015017,-4.365297317504883,-0.8910277485847473,-0.2569948136806488,-0.1411474198102951,0.5146554112434387
1.772634238933246e+18,3.037245849609375,0.0025674104690551,0.6265153884887695,0.7581832408905029,-0.1062600389122963,-0.0282294824719429,0.3932153880596161
1.772634238953237e+18,3.057237060546875,0.093278169631958,1.734769344329834,1.050538182258606,0.0825579240918159,-0.0218379013240337,0.4813659489154815
1.7726342389732278e+18,3.077227783203125,0.0033509731292724,1.911362171173096,0.5115460753440857,0.1968074291944503,-0.1600558459758758,0.5961480736732483
1.7726342389932186e+18,3.097218505859375,-0.055086612701416,1.4190187454223633,0.0715709328651428,0.2664490342140198,-0.5645896792411804,0.5079975724220276
1.7726342390132093e+18,3.117209228515625,0.1153023242950439,1.2791976928710938,-0.2680898904800415,0.2683132588863373,-0.9329045414924622,0.3300985395908355
1.7726342390332e+18,3.1372001953125,-0.1125509738922119,1.5992908477783203,-0.2658209800720215,0.2006690204143524,-1.064730882644653,0.1830921620130539
1.772634239053191e+18,3.15719091796875,-0.2371658086776733,2.0101118087768555,-0.3009071946144104,0.2390184998512268,-0.8029423952102661,0.2134521752595901
1.7726342390731817e+18,3.177181640625,0.0857378244400024,2.049302101135254,-0.3395307660102844,0.2314285039901733,-0.5773728489875793,0.2531332373619079
1.772634239093173e+18,3.197173095703125,0.0326027870178222,1.9017391204833984,-0.6930187344551086,0.1829590052366256,-0.4237085580825805,0.2131858617067337
1.7726342391131653e+18,3.217165283203125,0.1297807693481445,1.832322597503662,-1.2194106578826904,0.1099884584546089,-0.4197138249874115,0.1114531978964805
1.772634239133158e+18,3.237157958984375,0.854093074798584,1.660879135131836,-1.601050853729248,0.020240006968379,-0.4564654231071472,-0.0190415848046541
1.7726342391531505e+18,3.257150390625,1.1292990446090698,1.326345443725586,-1.596851468086243,-0.0655137076973915,-0.4197138249874115,-0.144476369023323
1.7726342391731428e+18,3.277142822265625,0.8109233379364014,0.3194828033447265,-1.178725242614746,-0.1885516494512558,-0.4314317405223846,-0.2611227333545685
1.7726342391931354e+18,3.29713525390625,0.7995970249176025,-0.8702259063720703,-0.301330029964447,-0.3051980137825012,-0.3914843499660492,-0.3412837982177734
1.772634239213128e+18,3.3171279296875,0.7759319543838501,-1.5353364944458008,0.5257738828659058,-0.4271706640720367,-0.2572611272335052,-0.3186469376087188
1.7726342392331203e+18,3.337120361328125,0.8131316900253296,-0.5529594421386719,0.0066334605216979,-0.4580633044242859,-0.1430116295814514,-0.2089248150587082
1.7726342392531128e+18,3.35711279296875,1.574411392211914,0.973790168762207,-1.1877729892730713,-0.362988531589508,-0.2298306077718734,-0.0832237154245376
1.7726342392731052e+18,3.377105224609375,2.450477361679077,2.0023961067199707,-2.5026726722717285,-0.2844253480434418,-0.394147515296936,0.0043942118063569
1.7726342392930977e+18,3.39709765625,3.059441089630127,1.6327333450317385,-3.5088489055633545,-0.2498043030500412,-0.4593949019908905,0.03715106472373
1.77263423931309e+18,3.417090087890625,2.846496820449829,-2.2813282012939453,-2.235050678253174,-0.2045305967330932,-0.4261054098606109,0.0022636849898844
1.7726342393330826e+18,3.43708251953125,1.389556884765625,-7.812666893005371,2.0846710205078125,-0.1379516273736953,-0.2316948175430297,0.0600542314350605
1.7726342393530752e+18,3.4570751953125,-2.0613389015197754,-6.236839294433594,5.690125465393066,-0.0508663319051265,0.040480013936758,0.2422142922878265
1.7726342393730675e+18,3.477067626953125,-1.6296298503875732,0.7130289077758789,5.205931663513184,0.0506000183522701,0.140614777803421,0.437423825263977
1.77263423939306e+18,3.49706005859375,0.3298856019973755,3.5095415115356445,3.091305732727051,0.1755021661520004,0.1568600535392761,0.6185186505317688
1.772634239433045e+18,3.537044921875,-2.413276195526123,-0.4032764434814453,-0.0069702267646789,0.3930822312831878,-0.0476705431938171,0.670982837677002
1.7726342394530376e+18,3.55703759765625,-1.0164443254470823,-2.164674758911133,-0.3855217099189758,0.4378232955932617,-0.373374879360199,0.209457442164421
1.77263423947303e+18,3.57702978515625,-1.2217611074447632,-1.5911483764648438,0.5385003089904785,0.2071937620639801,-0.438355952501297,-0.592952311038971
1.7726342394930225e+18,3.5970224609375,-1.5032975673675537,-0.0598182678222656,1.244391918182373,0.0399473831057548,-0.0268979035317897,-0.762595534324646
1.7726342395130148e+18,3.617014892578125,-1.6911768913269043,0.2681360244750976,0.8911298513412476,0.3755053877830505,0.4780369997024536,-0.3418164253234863
1.7726342395330074e+18,3.63700732421875,-1.645772933959961,-0.9082069396972656,0.0096091032028198,0.2985401153564453,0.7595328688621521,0.155129000544548
1.772634239553e+18,3.657,-1.3212515115737915,-1.4761667251586914,-0.638049304485321,0.189883217215538,0.654604434967041,0.0624510757625103
1.7726342395729923e+18,3.6769921875,-0.7436316013336182,-0.0314035415649414,-0.4026487469673157,0.0604537054896354,0.5323654413223267,-0.0755005553364753
1.7726342395929848e+18,3.69698486328125,-0.5902079343795776,1.820380687713623,0.6646386981010437,-0.0617852844297885,0.5707149505615234,-0.2419479787349701
1.7726342396329697e+18,3.7369697265625,-0.1640444993972778,2.1858458518981934,-0.474169909954071,-0.1864211112260818,0.7331676483154297,-0.3772364556789398
1.7726342396529623e+18,3.75696240234375,-0.2141215801239013,1.0860319137573242,-2.0266895294189453,-0.2492716610431671,0.9057403206825256,-0.3878890872001648
1.7726342396729546e+18,3.77695458984375,-0.5992551445960999,0.3660964965820312,-1.7836089134216309,-0.2111884951591491,0.9904287457466124,-0.3026680052280426
1.7726342396929472e+18,3.796947265625,-0.808525800704956,0.915679931640625,-1.750959038734436,-0.1177116185426712,1.0175930261611938,-0.209457442164421
1.7726342397129395e+18,3.816939453125,-0.8014203906059265,1.472126007080078,-2.0941755771636963,-0.0766989737749099,0.9874992966651917,-0.3213101029396057
1.772634239732932e+18,3.83693212890625,-0.3616067767143249,1.2376775741577148,-2.0078697204589844,-0.0609863363206386,0.7523423433303833,-0.8707197904586792
1.7726342397529247e+18,3.856924560546875,-0.0772016048431396,0.1267595291137695,-1.4117571115493774,0.0415452793240547,0.7060034275054932,-0.7580681443214417
1.772634239772917e+18,3.8769169921875,-0.7222945690155029,-0.5004177093505859,-1.6539713144302368,0.0625842288136482,0.5866938829421997,-0.6318344473838806
1.7726342397929096e+18,3.89690966796875,-0.6657768487930298,-0.1792211532592773,-2.618914842605591,0.0841558203101158,0.4620580673217773,-0.6182523369789124
1.772634239812902e+18,3.91690185546875,-0.354850172996521,0.6593999862670898,-3.359483003616333,0.1398158371448516,0.4996086061000824,-0.5402217507362366
1.7726342398328945e+18,3.93689453125,-0.6341763138771057,1.251225471496582,-3.849259614944458,0.1893505901098251,0.604004442691803,-0.4155859351158142
1.772634239852887e+18,3.956886962890625,-1.7801785469055176,1.1427545547485352,-3.629560708999634,0.2263685017824173,0.6532728672027588,-0.3540669679641723
1.7726342398728794e+18,3.97687939453125,-0.3079256415367126,0.1439018249511718,-1.2354936599731443,0.1764342784881591,0.5984117984771729,-0.3314301073551178
1.772634239892872e+18,3.996871826171875,-0.2917744517326355,-0.556391716003418,0.917643904685974,0.1213068813085556,0.4929507076740265,-0.2283658683300018
1.7726342399128643e+18,4.0168642578125,-0.160084068775177,0.2186098098754882,-0.2971678674221039,0.0893489792943,0.2308958619832992,-0.1023984551429748
1.7726342399328568e+18,4.03685693359375,-0.3653562664985657,1.190079689025879,-0.0672902911901474,0.0451405420899391,-0.0276968516409397,0.013715268112719
1.7726342399528494e+18,4.056849365234375,-0.5413843989372253,0.4373798370361328,1.842477917671204,-0.2006690204143524,-0.1062600389122963,0.1122521460056305
1.7726342399728417e+18,4.076841796875,1.5583715438842771,-2.7567529678344727,3.037822961807251,-0.5103943943977356,0.1858884841203689,0.2020006030797958
1.7726342399928343e+18,4.096834228515625,2.1650478839874268,-7.039685249328613,2.597149133682251,-0.644883930683136,0.0777642354369163,0.3167827427387237
1.7726342400128266e+18,4.11682666015625,0.4686055183410644,-7.418075561523437,0.8021372556686401,-0.6749776005744934,-0.4785696268081665,0.5450154542922974
1.7726342400328192e+18,4.136819091796875,0.9077811241149902,-3.6232404708862314,-0.1972198486328125,-0.4235754013061523,-0.8013445138931274,0.940760850906372
1.7726342400528118e+18,4.156811767578125,1.2143040895462036,-0.6087484359741211,-0.6357715129852295,-0.3343595862388611,-0.572845458984375,1.302151441574097
1.772634240072804e+18,4.17680419921875,0.9874110221862792,0.63214111328125,-0.4109020233154297,-0.0976047739386558,-0.1259674131870269,1.4451631307601929
1.7726342400927967e+18,4.196796630859375,1.3274641036987305,0.7434301376342773,0.7772375345230103,0.1930790096521377,-0.141680046916008,1.2030819654464722
1.7726342401127892e+18,4.216789306640625,1.0543088912963867,0.3782272338867187,1.621553659439087,0.1901495456695556,-0.5091959834098816,0.5924196839332581
1.7726342401327818e+18,4.23678173828125,-0.0908505916595459,0.1710767745971679,1.492732048034668,0.0620516017079353,-0.7121286392211914,0.1735047996044159
1.7726342401527744e+18,4.2567744140625,-0.5877691507339478,0.6373920440673828,0.8628493547439575,0.0284957997500896,-0.9579382538795472,0.0557931773364543
1.772634240172767e+18,4.27676708984375,-0.6327052712440491,2.326885223388672,0.6305060386657715,0.0340884327888488,-1.0554097890853882,0.257127970457077
1.7726342401927598e+18,4.296759765625,-0.6915467381477356,3.686933994293213,0.8228904008865356,0.1171789914369583,-1.156077265739441,0.4411522448062897
1.7726342402127521e+18,4.316752197265625,-0.3719145059585571,3.843440532684326,1.0609517097473145,0.2711095809936523,-1.2021498680114746,0.439554363489151
1.772634240232745e+18,4.336744873046875,-0.2019242048263549,3.394075393676758,1.1194097995758057,0.3723095953464508,-0.9776455760002136,0.2885532677173614
1.7726342402527375e+18,4.356737548828125,0.335335373878479,2.464541435241699,0.2301321625709533,0.3486074805259704,-0.642353892326355,0.1018658280372619
1.77263424027273e+18,4.376730224609375,1.0665512084960938,1.2688026428222656,-1.870160818099976,0.2510027289390564,-0.4628570079803467,0.008655265904963
1.7726342402927227e+18,4.39672265625,1.114063739776611,0.9085855484008788,-3.666413307189941,0.1370195150375366,-0.3587274849414825,-0.0589889660477638
1.7726342403127153e+18,4.41671533203125,0.9230444431304932,0.9095306396484376,-2.9079298973083496,-0.0739026591181755,-0.3563306629657745,-0.2414153516292572
1.7726342403327078e+18,4.436707763671875,1.7377076148986816,0.1853532791137695,-0.2069308757781982,-0.3077279925346374,-0.3531348705291748,-0.4803006947040558
1.772634240372693e+18,4.47669287109375,0.2997487783432007,-1.6361198425292969,1.548456788063049,-0.506932258605957,-0.3739075064659118,-0.6379597187042236
1.7726342403926856e+18,4.496685546875,1.4505479335784912,-0.855647087097168,-1.7738847732543943,-0.492284893989563,-0.354466438293457,-0.6371607184410095
1.7726342404126781e+18,4.51667822265625,3.1154818534851074,-1.1624011993408203,-3.584928035736084,-0.3207774758338928,-0.2335590273141861,-0.3822964429855346
1.7726342404326707e+18,4.536670654296875,0.9476933479309082,-6.034219741821289,0.0499011278152465,-0.2771016657352447,-0.3552653789520263,0.0118510564789175
1.7726342404526636e+18,4.55666357421875,0.0866429805755615,-5.8994550704956055,4.837238311767578,-0.2432795614004135,-0.5105275511741638,0.1958753317594528
1.7726342404726561e+18,4.57665625,-1.376427412033081,1.1132307052612305,4.621925354003906,-0.0163784269243478,-0.3744401335716247,-0.0398142226040363
1.7726342404926487e+18,4.596648681640625,-2.1777772903442383,5.550690650939941,1.8917328119277956,-0.0531300194561481,-0.1118526682257652,0.2826943099498749
1.7726342405126413e+18,4.616641357421875,-2.797473907470703,2.335636138916016,1.2726017236709597,0.4685827791690826,0.3006706237792969,0.7676555514335632
1.7726342405326339e+18,4.6366337890625,-1.863611340522766,-4.527310371398926,1.0466933250427246,0.6997449994087219,0.3896201252937317,0.8153260946273804
1.7726342405526264e+18,4.65662646484375,-1.580627679824829,-6.165846824645996,0.4539360404014587,0.6491449475288391,0.0852210819721221,0.0608531795442104
1.772634240572619e+18,4.676618896484375,-1.0234336853027344,-1.0719690322875977,0.9484450221061708,0.3311637938022613,-0.1805621683597564,-0.4307659268379211
1.7726342405926118e+18,4.69661181640625,-1.395056962966919,2.547132968902588,2.211358070373535,0.19374480843544,0.1810947954654693,-0.3213101029396057
1.7726342406126052e+18,4.716605224609375,-1.7532544136047363,1.5261096954345703,3.1972670555114746,0.1175784617662429,0.4367580413818359,0.003328948514536
1.7726342406325985e+18,4.7365986328125,-1.4523963928222656,-1.3195104598999023,1.880702018737793,0.2541985213756561,0.1414137333631515,0.0778973922133445
1.772634240652592e+18,4.756592041015625,-1.6547620296478271,-3.024343490600586,-0.5467373132705688,0.2129195481538772,-0.1243695169687271,0.1045289859175682
1.7726342406725855e+18,4.77658544921875,-1.234870672225952,-0.5462732315063477,-1.1136143207550049,0.1231710985302925,0.1234374120831489,0.122638463973999
1.7726342406925788e+18,4.796578857421875,-0.2381340265274047,2.5240464210510254,-0.0381892919540405,-0.040080539882183,0.4672512114048004,0.0933437198400497
1.7726342407125722e+18,4.816572265625,-0.3292282223701477,3.0516223907470703,1.0805315971374512,-0.2004027068614959,0.7133271098136902,-0.1892174333333969
1.7726342407325655e+18,4.8365654296875,-0.4382609724998474,2.2263059616088867,0.544061005115509,-0.2118542790412902,0.9660608768463136,-0.5175849199295044
1.772634240752559e+18,4.85655908203125,-0.5102006196975708,1.2821474075317385,-1.5795961618423462,-0.1950763761997223,1.0664619207382202,-0.5483443737030029
1.7726342407925458e+18,4.8965458984375,-0.7089396715164185,1.5536565780639648,-1.7363420724868774,-0.1870869100093841,1.114132523536682,-0.3350253701210022
1.7726342408125391e+18,4.9165390625,-0.5895837545394897,1.8304715156555176,-1.0336533784866333,-0.0845552906394004,1.0318409204483032,-0.2492716610431671
1.7726342408525258e+18,4.95652587890625,-1.0127850770950315,0.4070901870727539,-0.1718531101942062,-0.1015995070338249,0.8275765776634216,-0.52837073802948
1.7726342408925128e+18,4.9965126953125,-0.9220699071884156,-1.4336681365966797,-1.96757972240448,-0.1553953140974044,0.6123933792114258,-0.8713855743408203
1.772634240912506e+18,5.016506103515625,-0.571246325969696,0.1583690643310547,-3.336068868637085,-0.0896152928471565,0.5005406737327576,-0.8924245238304138
1.7726342409324995e+18,5.03649951171875,-0.8090076446533203,1.623061180114746,-4.363853454589844,0.02490053512156,0.4400869905948639,-0.530767560005188
1.7726342409524928e+18,5.056492919921875,-1.7057045698165894,1.6235408782958984,-3.8068222999572754,0.1090563535690307,0.384693294763565,-0.5555348992347717
1.7726342409724864e+18,5.076486328125,0.6200008392333984,-0.0506181716918945,-1.3047757148742676,0.204397439956665,0.6491449475288391,-0.4567317366600036
1.7726342409924797e+18,5.096479736328125,-0.4318999052047729,-1.252284049987793,-0.2370867580175399,0.051798440515995,0.7910913228988647,-0.3312969505786896
1.772634241012473e+18,5.11647314453125,-0.1265057325363159,-1.2602672576904297,-0.46613210439682,-0.0174436904489994,0.5761744379997253,-0.1834916472434997
1.7726342410524598e+18,5.156459716796875,1.2417001724243164,-0.9720735549926758,2.7479190826416016,-0.0507331751286983,0.286156415939331,0.0210389550775289
1.7726342410924467e+18,5.19644677734375,1.3063085079193115,-5.253419876098633,1.083723068237305,-0.3535343408584595,0.1681784838438034,0.1728390008211136
1.77263424111244e+18,5.216440185546875,1.1706925630569458,-5.601186752319336,-0.6768758296966553,-0.5428849458694458,0.2238384932279586,0.3049316704273224
1.7726342411324334e+18,5.236433349609375,1.2803853750228882,-3.870895385742188,-0.9809837341308594,-0.5676522850990295,-0.2057290226221084,0.5438170433044434
1.7726342411524268e+18,5.2564267578125,0.2382514476776123,-1.0897483825683594,-0.5569313764572144,-0.4510059356689453,-0.5625923275947571,0.7944203019142151
1.77263424117242e+18,5.276420166015625,0.3063645362854004,1.0622844696044922,0.0393112897872924,-0.0411458052694797,-0.4954806864261627,1.1057435274124146
1.7726342411924134e+18,5.296413330078125,0.4702944755554199,1.9540395736694336,0.6401695013046265,0.105860561132431,-0.4627238512039184,1.2213246822357178
1.7726342412124068e+18,5.31640673828125,0.1804428100585937,2.054451465606689,0.7209416627883911,0.2512690424919128,-0.4765722751617431,1.0924277305603027
1.7726342412324004e+18,5.336400390625,-0.2468248605728149,1.731971263885498,0.7432812452316284,0.2456763982772827,-0.6850975751876831,0.7656581401824951
1.7726342412523935e+18,5.3563935546875,-0.4936788082122803,2.3358817100524902,0.7982079982757568,0.1548626869916916,-1.0757830142974854,0.43010014295578
1.772634241272387e+18,5.376386962890625,-0.7600792646408081,3.4495229721069336,0.984624981880188,0.0424773842096328,-1.2891020774841309,0.1944105923175811
1.7726342412923804e+18,5.39638037109375,-0.9267157316207886,3.914422035217285,1.3894422054290771,0.0938763469457626,-1.2685956954956057,0.223439022898674
1.7726342413123738e+18,5.416373779296875,-0.4758085012435913,3.3104701042175293,1.6080996990203855,0.2480732500553131,-1.152482032775879,0.3948132991790771
1.772634241332367e+18,5.4363671875,0.4469586610794067,2.1933608055114746,0.948609173297882,0.3412837982177734,-1.0313082933425903,0.5221123099327087
1.7726342413723538e+18,5.476353759765625,1.1991627216339111,1.640573501586914,-2.954944133758545,0.3306311666965484,-0.8930903077125549,0.4328964650630951
1.7726342413923471e+18,5.49634716796875,1.0670678615570068,0.5166130065917969,-2.38733434677124,0.2046637535095214,-0.9066724181175232,0.2131858617067337
1.7726342414123407e+18,5.5163408203125,1.3957840204238892,-1.055093765258789,0.0115853548049926,0.003328948514536,-0.9625987410545348,0.0142478998750448
1.772634241432334e+18,5.536333984375,1.0269991159439087,-2.1955156326293945,2.302018165588379,-0.1854890137910843,-0.7844334244728088,-0.1628521680831909
1.7726342414523274e+18,5.556327392578125,-0.2017905712127685,-2.2805871963500977,1.1396489143371582,-0.3628553748130798,-0.5154544115066528,-0.3833616971969604
1.7726342414723208e+18,5.57632080078125,0.8324037790298462,0.1204996109008789,-3.0856447219848637,-0.4994754493236542,-0.4360922574996948,-0.641155481338501
1.772634241492314e+18,5.596314208984375,3.419050693511963,-1.1743383407592771,-3.71377182006836,-0.5324985980987549,-0.4901543855667114,-0.741290271282196
1.7726342415123075e+18,5.616307373046875,2.7346150875091557,-8.524044036865234,3.4699785709381104,-0.401471197605133,-0.454201728105545,-0.5303680896759033
1.7726342415323008e+18,5.63630078125,-1.8538914918899536,-5.8919677734375,7.330233573913574,-0.2683132588863373,-0.3575290739536285,-0.1330247819423675
1.7726342415522944e+18,5.65629443359375,-4.037614345550537,2.966618061065674,4.650699615478516,-0.1367532014846801,-0.3186469376087188,0.1303616166114807
1.7726342415722877e+18,5.676287841796875,-1.5967118740081787,6.106108665466309,2.6620609760284424,0.1189100444316864,-0.3641869723796844,-0.0134489517658948
1.772634241592281e+18,5.696281005859375,-0.5246413946151733,2.0636558532714844,1.7130286693572998,0.0422110669314861,-0.3367564380168915,-0.1189100444316864
1.7726342416122747e+18,5.716274658203125,-0.3362456560134887,-3.410419464111328,-0.9380401372909546,0.043010015040636,0.2451437711715698,0.3759048581123352
1.772634241632268e+18,5.73626806640625,-1.3836190700531006,-5.267254829406738,-1.1563678979873655,0.5506080985069275,0.689358651638031,1.0869683027267456
1.7726342416522616e+18,5.75626171875,-1.308034062385559,-1.412806510925293,0.7061923742294312,0.8526102900505066,0.3990743458271026,0.8792418837547302
1.7726342416722552e+18,5.776255126953125,-1.2118160724639893,1.3098773956298828,2.730784177780152,0.6819018125534058,-0.1215732023119926,-0.1575258374214172
1.7726342416922486e+18,5.79624853515625,-1.9201385974884035,-0.4351625442504883,3.536569595336914,0.1159805655479431,0.0078563187271356,-0.5063996315002441
1.7726342417122422e+18,5.8162421875,-1.561503767967224,-2.7769289016723637,0.5450794696807861,0.0555268600583076,0.5841639041900635,-0.4006722569465637
1.7726342417322358e+18,5.83623583984375,-1.5972306728363037,-1.5354070663452148,-1.970345139503479,0.1141163557767868,0.5340964794158936,-0.2366216629743576
1.772634241752229e+18,5.85622900390625,-0.3914582133293152,1.6755924224853516,-1.5442836284637451,0.2616553604602813,0.1788311153650283,0.0834900289773941
1.7726342417722227e+18,5.87622265625,0.1475108861923217,2.6318984031677246,0.8599392175674438,0.1351553052663803,0.2611227333545685,0.3314301073551178
1.7726342417922163e+18,5.89621630859375,-0.494511067867279,1.9974188804626465,2.223358631134033,-0.0193079020828008,0.5029375553131104,0.1756353229284286
1.7726342418122097e+18,5.916209716796875,-0.8761377930641174,1.7848310470581057,-0.1842255294322967,-0.0989363491535186,0.7593997120857239,-0.1242363601922988
1.7726342418322033e+18,5.936203369140625,-0.6097196340560913,1.8115220069885252,-2.7391536235809326,-0.3660511672496795,0.8078691959381104,-0.644883930683136
1.7726342418521969e+18,5.95619677734375,-0.5094891786575317,1.995459079742432,-2.824279308319092,-0.4427501559257507,0.8725839853286743,-0.9647293090820312
1.7726342418721902e+18,5.976190185546875,-0.2382583618164062,2.339900016784668,-1.860508680343628,-0.3476753830909729,1.0379661321640017,-0.710663914680481
1.7726342418921838e+18,5.996183837890625,-0.1686712503433227,2.0593795776367188,-1.332619547843933,-0.1721732169389724,1.1301114559173584,-0.2273005992174148
1.7726342419121774e+18,6.016177490234375,-0.6214324831962585,0.7853384017944336,-1.057560920715332,-0.0709731802344322,0.9836376905441284,-0.2089248150587082
1.772634241932171e+18,6.0361708984375,-1.5389041900634766,-0.6052913665771484,-0.838906466960907,-0.1202416196465492,0.7186533808708191,-0.7868302464485168
1.772634241972158e+18,6.076157958984375,-0.6166749000549316,0.1878480911254882,-2.7932024002075195,-0.1322258412837982,0.5492765307426453,-1.1676620244979858
1.7726342419921516e+18,6.096151611328125,-1.1076866388320925,2.3062820434570312,-3.808216094970703,-0.0201068483293056,0.56312495470047,-0.9420924186706544
1.772634242012145e+18,6.116144775390625,-1.4064483642578125,2.2432966232299805,-3.0753326416015625,0.0155794788151979,0.546613335609436,-0.5894901752471924
1.7726342420321385e+18,6.136138427734375,1.1634658575057983,0.4007320404052734,-0.959001123905182,0.0597879141569137,0.4768385887145996,-0.5175849199295044
1.772634242052132e+18,6.156132080078125,0.1650440692901611,-0.2201452255249023,-0.5381290912628174,0.1583247929811477,0.4592617452144623,-0.6073333621025085
1.7726342420921188e+18,6.196118896484375,-1.383230447769165,-1.874983787536621,0.760404109954834,0.2712427377700805,0.5287702083587646,-0.6360954642295837
1.7726342421121114e+18,6.216111328125,1.1026971340179443,-3.101736068725586,3.27211332321167,0.2901511490345001,0.5719133615493774,-0.5628586411476135
1.772634242132104e+18,6.23610400390625,2.722439765930176,-4.883027076721191,3.5169873237609863,0.1732384860515594,0.448076456785202,-0.1681784838438034
1.7726342421520968e+18,6.2560966796875,1.806973218917847,-6.078649520874023,1.0043830871582031,0.0038615802768617,0.1655153185129165,0.1008005589246749
1.7726342421720893e+18,6.27608935546875,1.2456315755844116,-5.251441955566406,-0.8861424922943115,-0.4179827868938446,0.2169142812490463,0.3039995729923248
1.772634242192082e+18,6.29608203125,0.994720697402954,-3.29072380065918,-1.5443484783172607,-0.6044039130210876,0.2331595569849014,0.5615270137786865
1.7726342422120748e+18,6.31607470703125,0.6285265684127808,-1.152048110961914,-1.241184949874878,-0.6563354730606079,-0.4739091098308563,0.886432409286499
1.7726342422320673e+18,6.3360673828125,0.77686607837677,0.7828521728515625,-0.4316115379333496,-0.4539354145526886,-0.6107954978942871,1.2696609497070312
1.77263424225206e+18,6.356059814453125,1.021710753440857,1.5887956619262695,0.4482120275497436,-0.341017484664917,-0.0491352789103984,1.3844431638717651
1.7726342422720525e+18,6.376052490234375,0.1284095048904419,1.8680877685546875,0.7225174903869629,-0.0520647540688514,0.0528637021780014,1.256078839302063
1.7726342422920453e+18,6.39604541015625,-0.3843622803688049,1.6668272018432615,1.0122764110565186,0.1805621683597564,-0.2802974581718445,0.7431544661521912
1.772634242312038e+18,6.416037841796875,-1.0093286037445068,2.340085029602051,1.5721781253814695,0.1400821506977081,-0.7751123905181885,0.2448774576187133
1.7726342423320305e+18,6.436030517578125,-1.3459439277648926,4.372351169586182,1.725586175918579,-0.0290284305810928,-1.2788488864898682,-0.0129163200035691
1.772634242352023e+18,6.45602294921875,-1.4373197555541992,5.433935642242432,1.2991816997528076,-0.0966726616024971,-1.5283868312835691,-0.008655265904963
1.7726342423720156e+18,6.476015625,-0.8443548083305359,4.7471442222595215,1.2027783393859863,0.0119842141866683,-1.6546205282211304,0.2073269188404083
1.7726342423920084e+18,6.496008544921875,0.012017011642456,3.4592108726501465,0.4233660697937011,0.2367548197507858,-1.6799205541610718,0.4448806941509247
1.772634242412001e+18,6.5160009765625,0.9270181655883788,1.8189678192138672,-1.0535095930099487,0.3619232773780823,-1.4223930835723877,0.519715428352356
1.7726342424319936e+18,6.53599365234375,1.5854815244674685,-0.1997718811035156,-1.875237226486206,0.3414169549942016,-1.0708562135696411,0.4187817275524139
1.7726342424519862e+18,6.555986083984375,1.4967163801193235,-1.976280212402344,-1.5011664628982544,0.2423474490642547,-1.0173267126083374,0.1450089961290359
1.772634242471979e+18,6.57597900390625,1.098966121673584,-2.7413578033447266,0.9853966236114502,0.0881505534052848,-0.9981518983840942,-0.0989363491535186
1.7726342424919716e+18,6.5959716796875,0.0908349752426147,-2.4834775924682617,3.3900132179260254,-0.1126516163349151,-0.820519208908081,-0.2347574532032013
1.7726342425119642e+18,6.615964111328125,0.0737689733505249,-1.515852928161621,0.8647990822792053,-0.3767038285732269,-0.5864275693893433,-0.3918838202953338
1.772634242531957e+18,6.63595703125,2.645632266998291,-0.1252117156982422,-3.2242586612701416,-0.5708481073379517,-0.4977443814277649,-0.5215796828269958
1.7726342425519496e+18,6.655949462890625,2.751682758331299,-3.989456176757813,-2.510596752166748,-0.5556681156158447,-0.5187833309173584,-0.4845617413520813
1.7726342425719421e+18,6.675942138671875,0.3582836389541626,-7.641814231872559,2.777280569076538,-0.3838943541049957,-0.5273054242134094,-0.2675142884254455
1.772634242591935e+18,6.69593505859375,-0.0240232944488525,-1.5595426559448242,5.258071422576904,-0.1463405787944793,-0.3366232812404632,0.0869521349668502
1.772634242611928e+18,6.715927978515625,-1.933506727218628,5.064098358154297,3.9672622680664062,0.0395479090511798,-0.1510011106729507,0.2443448156118393
1.7726342426319212e+18,6.735921142578125,-2.802757501602173,5.817739486694336,1.993147134780884,0.0699079185724258,-0.2109221816062927,-0.0494015961885452
1.7726342426519142e+18,6.755914306640625,-1.3824632167816162,-0.673090934753418,1.124969720840454,-0.0544615983963012,0.0553937032818794,-0.045939490199089
1.7726342426719073e+18,6.7759072265625,-1.868889570236206,-6.762724876403809,-0.4543384909629822,0.2435458749532699,0.6245107650756836,0.4424838423728943
1.7726342426919004e+18,6.795900390625,-1.2306958436965942,-4.956462860107422,-0.2226197719573974,0.8640618920326233,0.8583360910415649,1.0398303270339966
1.7726342427118935e+18,6.8158935546875,-0.7989956736564636,1.1336593627929688,1.1118613481521606,0.768720805644989,0.7076013088226318,0.6731134057044983
1.7726342427318866e+18,6.835886474609375,-1.2930954694747925,2.900643825531006,2.033208131790161,0.5053343772888184,0.2024000734090805,-0.0683100223541259
1.7726342427518797e+18,6.855879638671875,-1.196089744567871,0.7333717346191406,1.108409404754639,0.2051963806152343,0.1669800579547882,-0.4837628006935119
1.7726342427718728e+18,6.875872802734375,-1.2932634353637695,-1.7602357864379885,-0.8436314463615417,0.0635163411498069,0.4980106949806213,-0.5423523187637329
1.7726342427918659e+18,6.895865966796875,-1.5255484580993652,-0.8212947845458984,-1.2429945468902588,0.2187784910202026,0.4748412072658539,-0.5311670303344727
1.772634242811859e+18,6.91585888671875,-0.4530976414680481,2.033507823944092,-0.1609761714935302,0.1391500532627105,0.4663191139698028,0.0563258081674575
1.772634242831852e+18,6.93585205078125,-0.3241432309150696,3.311400890350342,0.755510151386261,-0.0217047445476055,0.7701855301856995,0.0486026480793952
1.772634242851845e+18,6.95584521484375,-0.7659765481948853,2.6339364051818848,0.4791470170021057,-0.2470079809427261,0.8801739811897278,-0.1828258484601974
1.7726342428718382e+18,6.975838134765625,-0.411392331123352,1.6122493743896484,-1.2219955921173096,-0.3732416927814483,0.891359269618988,-0.4914859533309936
1.7726342428918313e+18,6.995831298828125,-0.2720133662223816,1.0075788497924805,-2.6162397861480717,-0.3082606196403503,0.9361003041267396,-0.595349133014679
1.7726342429118244e+18,7.015824462890625,-0.429593563079834,1.1770639419555664,-2.6481611728668213,-0.2944121956825256,1.0159951448440552,-0.44354909658432
1.7726342429318175e+18,7.0358173828125,-0.2271726131439209,1.434396743774414,-2.1916823387146,-0.1881521642208099,0.9683245420455932,-0.3551322221755981
1.7726342429518106e+18,7.055810546875,-0.2445168495178222,1.3884344100952148,-1.3911079168319702,-0.0944089815020561,0.7360970973968506,-0.5924196839332581
1.772634242971804e+18,7.075803955078125,-1.2376689910888672,0.6021461486816406,-0.627269446849823,-0.1391500532627105,0.5446159839630127,-0.9713871479034424
1.772634242991797e+18,7.095796875,-1.384535789489746,-1.0569353103637695,-1.2709275484085083,-0.0816258192062377,0.4830970168113708,-1.052879810333252
1.77263424301179e+18,7.1157900390625,-1.142399549484253,-1.1502914428710938,-2.397124767303467,0.053928967565298,0.4431496262550354,-0.7884281873703003
1.7726342430317832e+18,7.135783203125,-1.3272627592086792,0.8526477813720703,-3.4789931774139404,0.1567268967628479,0.3688474893569946,-0.538091242313385
1.7726342430517763e+18,7.1557763671875,-1.6778793334960938,1.7672648429870603,-3.1968533992767334,0.2366216629743576,0.3502053916454315,-0.4297006726264953
1.7726342430917624e+18,7.195762451171875,-0.3429865837097168,0.3963794708251953,-0.0600960701704025,0.2872216701507568,0.4032022356986999,-0.3106574714183807
1.7726342431317486e+18,7.23574853515625,-0.1672983765602111,-1.776994705200195,1.5458159446716309,0.2656500935554504,0.435027003288269,-0.2225069254636764
1.7726342431517417e+18,7.25574169921875,1.2280060052871704,-3.4269466400146484,3.530698299407959,0.2041311264038086,0.4579301476478576,-0.1692437380552292
1.7726342431917279e+18,7.295727783203125,1.4986310005187988,-7.164552688598633,1.4339144229888916,0.0890826657414436,0.3561974763870239,-0.0877510830760002
1.772634243211721e+18,7.315720947265625,0.9484913349151612,-4.4495134353637695,-0.6084920167922974,0.0057257916778326,0.0363521166145801,0.0494015961885452
1.772634243231714e+18,7.335714111328125,0.4408671855926513,-1.6927604675292969,-1.6073356866836548,-0.3607248663902282,0.0163784269243478,0.2296974509954452
1.7726342432517074e+18,7.355707275390625,0.9013898372650146,0.4713687896728515,-1.635592341423035,-0.7066692113876343,-0.2978743016719818,0.7845665812492371
1.7726342432916936e+18,7.395693603515625,0.846637487411499,1.607466697692871,0.3568184375762939,-0.3993406593799591,-0.7929555177688599,1.3930983543395996
1.7726342433116867e+18,7.415686767578125,-0.2391356229782104,0.8426246643066406,1.2993261814117432,-0.1306279450654983,-0.3732416927814483,1.6176027059555054
1.7726342433316797e+18,7.4356796875,-0.9097999930381776,0.7722282409667969,1.5900671482086182,0.1101216152310371,-0.5378249287605286,0.6853639483451843
1.7726342433516728e+18,7.4556728515625,-0.7487149834632874,2.837158679962158,1.541203498840332,0.0416784361004829,-0.9695229530334472,0.1263668835163116
1.772634243371666e+18,7.475666015625,-0.7978945970535278,4.93843412399292,1.4337164163589478,-0.0406131707131862,-1.2299798727035522,-0.0981374010443687
1.7726342433916593e+18,7.4956591796875,-0.9794365763664246,5.373745441436768,1.2178740501403809,-0.0001331579405814,-1.2563451528549194,0.0254331659525632
1.7726342434116524e+18,7.51565234375,-0.359927773475647,4.6850409507751465,1.0153815746307373,0.2784332633018493,-1.518932580947876,0.4217112064361572
1.7726342434316454e+18,7.5356455078125,0.308656096458435,3.425920009613037,-0.1858750581741333,0.3159838020801544,-1.3559472560882568,0.4020038247108459
1.7726342434516385e+18,7.555638427734375,1.0802466869354248,1.6032075881958008,-1.7548500299453735,0.3265032768249511,-0.986567199230194,0.155129000544548
1.7726342434716316e+18,7.575631591796875,1.6394367218017578,-0.5227775573730469,-2.3356680870056152,0.2466085106134414,-0.7511439323425293,-0.0699079185724258
1.7726342434916247e+18,7.595624755859375,1.2485439777374268,-1.933698654174805,-1.172670602798462,0.081758975982666,-0.6998781561851501,-0.1804290115833282
1.7726342435116178e+18,7.61561767578125,0.7979631423950195,-1.9276456832885744,1.4152204990386963,-0.1432779431343078,-0.5499423146247864,-0.2017342746257782
1.7726342435316111e+18,7.635611083984375,0.2119568586349487,-1.704014778137207,1.9649906158447263,-0.3813643455505371,-0.3960117101669311,-0.2834932506084442
1.7726342435516042e+18,7.655604248046875,0.714949369430542,-0.6186122894287109,-0.5857908725738525,-0.5070654153823853,-0.3456780016422272,-0.3367564380168915
1.7726342435715973e+18,7.675597412109375,3.255250930786133,0.461857795715332,-3.111417770385742,-0.4279696345329284,-0.3978759348392486,-0.3149185180664062
1.7726342435915904e+18,7.69559033203125,3.3113014698028564,-4.189740180969238,-1.405528903007507,-0.3038664162158966,-0.564323365688324,-0.1782984882593155
1.7726342436115837e+18,7.715583740234375,0.2293332815170288,-8.762164115905762,4.117255210876465,-0.1893505901098251,-0.533164381980896,0.0395479090511798
1.7726342436315768e+18,7.735576904296875,-1.748234748840332,-3.0461254119873047,6.834394454956055,-0.066046342253685,-0.474308580160141,0.0280963256955146
1.7726342436515702e+18,7.755570068359375,-2.534324884414673,4.8966965675354,4.553958415985107,-0.022370534017682,-0.4471443593502044,-0.1471395194530487
1.7726342436915566e+18,7.795556640625,-0.2663561105728149,-1.44244384765625,0.7216214537620544,-0.065247394144535,0.0276968516409397,0.0581900216639041
1.7726342437115497e+18,7.8155498046875,-1.4277236461639404,-6.483030319213867,-1.105194926261902,0.2415485084056854,0.4735096395015716,0.5535375475883484
1.772634243731543e+18,7.83554296875,-1.299121975898743,-3.749052047729492,-0.0888086557388305,0.8716518878936768,0.5374254584312439,0.9793766736984252
1.772634243751536e+18,7.8555361328125,-0.8721193671226501,1.5710201263427734,2.067487955093384,0.7591333985328674,0.3243727385997772,0.5175849199295044
1.7726342437715295e+18,7.875529541015625,-1.7315834760665894,2.410926818847656,3.537173271179199,0.4414185583591461,0.031691588461399,-0.2187784910202026
1.772634243811516e+18,7.915515869140625,-1.4508298635482788,-2.251638412475586,-1.2311697006225586,0.2326269149780273,0.2359558641910553,-0.5109270215034485
1.772634243831509e+18,7.935509033203125,-1.793790578842163,-0.2003993988037109,-1.935129165649414,0.2944121956825256,0.4857601523399353,-0.3423490524291992
1.7726342438515023e+18,7.95550244140625,-0.503061830997467,2.9864697456359863,-0.5793150663375854,0.2760364115238189,0.3802990913391113,-0.0970721393823623
1.7726342438914888e+18,7.99548876953125,-1.1435363292694092,2.101917266845703,0.9878555536270142,0.1050616130232811,0.5265064835548401,0.0664458125829696
1.7726342439114819e+18,8.01548193359375,-1.0718882083892822,0.7870655059814453,-0.8796514272689819,0.0584563352167606,0.7270423769950867,-0.0406131707131862
1.7726342439314752e+18,8.03547509765625,-0.8423969149589539,0.3618936538696289,-2.3767411708831787,-0.1767005920410156,0.8231824040412903,-0.4233090877532959
1.7726342439514685e+18,8.055468505859375,-0.5523187518119812,0.8554344177246094,-2.3989381790161133,-0.2283658683300018,1.0455561876296997,-0.7823029160499573
1.7726342439914547e+18,8.095454833984375,-0.430417537689209,1.3437023162841797,-2.5199625492095947,-0.1940111219882965,1.2277162075042725,-0.5199817419052124
1.772634244011448e+18,8.115447998046875,-0.7471920251846313,0.944544792175293,-1.3119375705718994,-0.0680437088012695,1.2040140628814695,-0.3884217143058777
1.7726342440314414e+18,8.13544140625,-0.9143630266189576,-0.2398300170898437,-1.299587607383728,-0.187619537115097,0.7041391730308533,-0.9841703176498412
1.7726342440514345e+18,8.1554345703125,-0.4398849010467529,-1.1095857620239258,-2.220803022384644,-0.127698466181755,0.7502118349075317,-1.1436935663223269
1.7726342440714278e+18,8.175427734375,-0.5254132747650146,0.3768091201782226,-3.249593734741211,-0.0238352715969085,0.8213181495666504,-0.9594029784202576
1.7726342440914207e+18,8.195420654296875,-1.7515051364898682,1.635106086730957,-4.072479248046875,0.0142478998750448,0.7081339359283447,-0.8092008233070374
1.772634244111413e+18,8.2154130859375,-0.050336480140686,1.2753162384033203,-3.0326623916625977,0.1712411046028137,0.5587307214736938,-0.5647228360176086
1.772634244131405e+18,8.235405029296874,1.0886129140853882,0.3428258895874023,-1.4880032539367676,0.2018674314022064,0.5720465183258057,-0.4568648934364319
1.7726342441513974e+18,8.2553974609375,-0.3556719422340393,-0.8140144348144531,-1.102096438407898,0.2183790206909179,0.536892831325531,-0.3801659345626831
1.7726342441713897e+18,8.2753896484375,-0.5586320757865906,-2.052528381347656,0.2841809689998626,0.1278316229581833,0.4165180325508117,-0.226235345005989
1.7726342441913818e+18,8.2953818359375,0.2668174505233764,-2.84051513671875,3.301783800125122,-0.141680046916008,-0.2591253519058227,0.1340900510549545
1.772634244211374e+18,8.3153740234375,1.8049170970916748,-4.142495155334473,4.77247953414917,-0.5379580855369568,-0.0026631588116288,0.318114310503006
1.7726342442313661e+18,8.3353662109375,1.5349887609481812,-5.186250686645508,3.5369043350219727,-0.4500738382339477,-0.2479400783777237,0.7546060681343079
1.7726342442513585e+18,8.3553583984375,0.6439977884292603,-4.57210636138916,0.944181740283966,-0.3643201291561126,-0.969922423362732,1.139166235923767
1.7726342442713508e+18,8.375350830078125,1.0054843425750732,-3.088282585144043,-1.015406608581543,-0.2218411266803741,-1.0171935558319092,1.362871527671814
1.7726342442913428e+18,8.3953427734375,0.6417660713195801,-1.7515840530395508,-1.6982097625732422,-0.2243711352348327,-0.4904206991195678,1.4888389110565186
1.7726342443113352e+18,8.415335205078126,0.6022558212280273,-0.0685939788818359,-1.0290039777755735,-0.032091062515974,-0.1087900400161743,1.422526240348816
1.7726342443313275e+18,8.435327392578126,0.8345966339111328,1.3854351043701172,0.0017962455749511,0.0906805545091629,-0.1498026847839355,0.9791103601455688
1.7726342443513196e+18,8.455319580078125,0.2977558374404907,1.9673967361450195,0.8742645978927612,0.1213068813085556,-0.4118575155735016,0.4336954057216644
1.7726342443713119e+18,8.475311767578125,-0.1706060171127319,1.5935630798339844,1.1728262901306152,0.101066879928112,-0.7815039753913879,0.1996037513017654
1.772634244391304e+18,8.495303955078125,-0.2979971170425415,1.4573392868041992,1.160193920135498,0.0541952811181545,-1.0169272422790527,0.203332170844078
1.7726342444112963e+18,8.515296142578125,-0.650128960609436,2.818093776702881,1.0286171436309814,0.0560594946146011,-1.1519492864608765,0.3141195774078369
1.7726342444312886e+18,8.53528857421875,-1.1683355569839478,4.316269397735596,1.1273436546325684,0.1458079516887664,-1.318396806716919,0.5455480813980103
1.7726342444512806e+18,8.55528076171875,-1.11448335647583,4.360045909881592,1.5285539627075195,0.2392848134040832,-1.3487567901611328,0.6929539442062378
1.7726342444912653e+18,8.595265380859376,0.1854760646820068,3.1369738578796387,-0.4611285924911499,0.28455850481987,-1.1554114818572998,0.5797696709632874
1.7726342445112573e+18,8.61525732421875,1.0794998407363892,2.290154457092285,-2.1090214252471924,0.237953245639801,-0.9985513687133788,0.3151848316192627
1.7726342445312497e+18,8.635249755859375,1.0814601182937622,1.165386199951172,-2.605651378631592,0.1247689872980117,-0.978577733039856,0.0912131890654563
1.7726342445512417e+18,8.65524169921875,0.9500714540481568,-0.4499692916870117,-1.5186123847961426,-0.0363521166145801,-0.9066724181175232,-0.0129163200035691
1.7726342445912264e+18,8.695226318359374,-0.3247885704040527,-3.081202507019043,2.8150417804718018,-0.2635195553302765,-0.7852323651313782,-0.1910816431045532
1.7726342446112195e+18,8.715219482421874,0.5269780158996582,-1.5782194137573242,-0.5123233795166016,-0.535694420337677,-0.6251765489578247,-0.6310355067253113
1.7726342446312123e+18,8.73521240234375,2.26692008972168,0.7135076522827148,-4.547341346740723,-0.531965970993042,-0.7327681183815002,-0.6275733709335327
1.7726342446512054e+18,8.755205322265626,4.2231926918029785,-4.004388809204102,-1.0157548189163208,-0.4139880239963531,-0.7367628812789917,-0.3918838202953338
1.7726342446711982e+18,8.7751982421875,1.7873626947402954,-8.371050834655762,5.411967277526856,-0.2683132588863373,-0.5498091578483582,0.0890826657414436
1.7726342446911913e+18,8.79519140625,-3.2674264907836914,-2.1876840591430664,5.963408946990967,0.1067926660180091,-0.5768402218818665,-0.0251668505370616
1.7726342447111844e+18,8.815184326171876,-4.2822465896606445,4.107187747955322,3.718939781188965,0.0468715950846672,-0.0545947551727294,0.062717393040657
1.7726342447311772e+18,8.83517724609375,-2.424765586853028,2.072282314300537,2.338893413543701,0.2695116698741913,0.4612590968608856,0.6355628371238708
1.7726342447511703e+18,8.85517041015625,-0.3409750461578369,-4.059329986572266,0.4125781059265136,0.6918886303901672,0.4908201694488525,1.1229208707809448
1.7726342447711631e+18,8.8751630859375,-1.2553598880767822,-4.296192169189453,-2.071985244750977,0.946220338344574,0.0226368494331836,0.4073301255702972
1.7726342447911562e+18,8.89515625,-0.3739290237426758,-0.0918359756469726,0.1597998142242431,0.5459475517272949,-0.1315600425004959,-0.209457442164421
1.7726342448311421e+18,8.93514208984375,-2.019831418991089,0.8824405670166016,4.120440006256104,0.1752358525991439,0.1392832100391388,-0.4773712158203125
1.7726342448511352e+18,8.95513525390625,-1.3439202308654783,-2.2902727127075195,0.3633525371551513,0.1233042553067207,0.4657864868640899,-0.3735080361366272
1.772634244871128e+18,8.975128173828125,-1.6834796667099,-3.505486488342285,-2.6487996578216557,0.3893538117408752,0.070041075348854,-0.2744385302066803
1.7726342448911212e+18,8.99512109375,-1.1696665287017822,0.8276500701904297,-2.164590835571289,0.324239581823349,0.1004010885953903,0.2110553383827209
1.772634244911114e+18,9.015114013671877,-0.1086922883987426,3.7004899978637695,0.1555109024047851,0.1988048106431961,0.5113264918327332,0.5625923275947571
1.772634244931107e+18,9.035107177734377,-0.8610794544219971,2.9919233322143555,1.987110376358032,-0.226235345005989,0.6684528589248657,-0.3436806499958038
1.7726342449511002e+18,9.05510009765625,-1.1424822807312012,2.0343918800354004,0.9290532469749452,-0.2707100808620453,0.8231824040412903,-0.7695197463035583
1.772634244971093e+18,9.075093017578125,-0.9820938110351562,1.2773551940917969,-1.576221227645874,-0.2195774465799331,0.8908266425132751,-0.6355628371238708
1.772634244991086e+18,9.095086181640625,-0.7413919568061829,1.0776281356811523,-2.513420820236206,-0.2027995437383651,0.9153276681900024,-0.2440785020589828
1.772634245011079e+18,9.115078857421874,-0.5744278430938721,1.1974735260009766,-1.899160623550415,-0.0406131707131862,0.7246454954147339,-0.1820269078016281
1.772634245031072e+18,9.135072021484374,-0.8117657899856567,1.469365119934082,-1.3789595365524292,-0.1042626649141311,0.4234422445297241,-0.6707165241241455
1.7726342450510648e+18,9.15506494140625,-1.0428104400634766,1.702531814575195,-1.3349775075912476,-0.2115879654884338,0.2522011399269104,-1.1538136005401611
1.772634245071058e+18,9.175057861328124,-1.2765495777130127,1.0403451919555664,-1.1369662284851074,-0.1367532014846801,0.2564621865749359,-1.057407259941101
1.7726342450910508e+18,9.19505078125,-0.9838265180587769,-0.4262886047363281,-1.4726126194000244,0.0141147412359714,0.3821632862091064,-0.6432859897613525
1.7726342451110433e+18,9.215043212890626,-0.8779371380805969,-0.735417366027832,-2.306239128112793,0.097737930715084,0.423974871635437,-0.4086617231369018
1.772634245131036e+18,9.235035888671876,-1.144091010093689,1.1767005920410156,-3.0093822479248047,0.1129179298877716,0.4021369814872741,-0.4400869905948639
1.7726342451510285e+18,9.255028564453124,-1.1885257959365845,2.045630931854248,-2.369174003601074,0.1102547720074653,0.4719117283821106,-0.4440817236900329
1.7726342451710208e+18,9.275020751953123,1.242032170295715,1.4079256057739258,-0.3607024550437927,0.1272989958524704,0.5640570521354675,-0.3753722310066223
1.7726342451910134e+18,9.295013427734377,-0.0414023399353027,1.098555564880371,-0.4463497996330261,0.1608547866344452,0.6418212652206421,-0.2587258815765381
1.772634245211006e+18,9.315005859375,-0.7509576082229614,-0.5689468383789062,-1.5310330390930176,0.1139831990003585,0.5592633485794067,-0.1599226891994476
1.7726342452309985e+18,9.33499853515625,-1.1829426288604736,-3.378645896911621,0.9737018942832948,0.011185267008841,0.2261021882295608,-0.0073236869648098
1.772634245250991e+18,9.3549912109375,1.2637012004852295,-5.549616813659668,4.123164653778076,-0.4173169732093811,0.1768337488174438,0.1527321636676788
1.7726342452709834e+18,9.3749833984375,2.9097230434417725,-6.102389335632324,5.122409343719482,-0.6274402141571045,0.2801643013954162,0.4427501559257507
1.772634245290976e+18,9.39497607421875,2.2524895668029785,-3.574950218200684,2.84456205368042,-0.8042739629745483,-0.4985433220863342,0.9311735033988952
1.7726342453109686e+18,9.414968505859376,1.1425845623016355,-1.61285400390625,-0.3096570968627929,-0.5747096538543701,-1.0886993408203125,1.268862009048462
1.7726342453309612e+18,9.434961181640626,1.5225551128387451,-1.7825040817260742,-1.9294006824493408,-0.4207790791988373,-0.6801707744598389,1.4472936391830444
1.7726342453509537e+18,9.45495361328125,1.1093050241470337,-1.740941047668457,-1.864053726196289,-0.2540653645992279,0.0167779009789228,1.4315810203552246
1.7726342453709463e+18,9.4749462890625,0.5932857990264893,-0.1949672698974609,-1.029073715209961,-0.1446095257997512,0.1880190074443817,1.159672498703003
1.7726342453909386e+18,9.494938720703123,0.2665799856185913,1.0364809036254885,-0.0836811065673828,-0.0282294824719429,-0.1978726983070373,0.5711144208908081
1.7726342454109312e+18,9.51493115234375,-0.0313636064529418,1.1385126113891602,0.7911132574081421,0.0335558019578456,-0.4663191139698028,0.1918805986642837
1.7726342454309238e+18,9.534923828125,-0.469704806804657,0.8767871856689453,1.094292402267456,0.0042610540986061,-0.7006770968437195,0.2035984843969345
1.7726342454509164e+18,9.554916259765625,-0.5172438025474548,1.255568504333496,1.531404733657837,-0.0327568538486957,-0.9744498133659364,0.3452785313129425
1.772634245470909e+18,9.574908935546874,-0.8741153478622437,3.25589370727539,1.8391910791397093,-0.0014647373463958,-1.2868382930755615,0.4933501780033111
1.7726342454909012e+18,9.5949013671875,-1.2569005489349363,5.006842613220215,2.0122106075286865,0.0872184485197067,-1.466068983078003,0.6571344137191772
1.7726342455108938e+18,9.614893798828126,-0.6366567015647888,5.3104095458984375,2.005014181137085,0.1380847841501236,-1.4112077951431274,0.6307691931724548
1.7726342455308864e+18,9.634886474609376,-0.0277369022369384,4.562109470367432,1.547377109527588,0.1380847841501236,-1.07618248462677,0.3852259218692779
1.772634245550879e+18,9.65487890625,0.0904865264892578,3.551332473754883,-0.1501755714416504,0.0962731912732124,-0.7827023863792419,0.048868965357542
1.7726342455708716e+18,9.67487158203125,0.603943943977356,2.619349479675293,-2.601198196411133,-0.017710005864501,-0.7406244874000549,-0.1516668945550918
1.7726342455908641e+18,9.694864013671875,1.400385499000549,1.676321029663086,-3.414495944976806,-0.199337437748909,-0.6135917901992798,-0.2195774465799331
1.772634245610857e+18,9.71485693359375,1.3979793787002563,0.0262031555175781,-1.6117693185806274,-0.4062648713588714,-0.4079959392547607,-0.2459427118301391
1.7726342456308498e+18,9.734849853515623,1.2984962463378906,-1.8347244262695312,0.8516391515731812,-0.5785712599754333,-0.2500706017017364,-0.2869553565979004
1.772634245650843e+18,9.7548427734375,0.9820898175239564,-2.501307487487793,1.5217339992523191,-0.6193175911903381,-0.1027979329228401,-0.3452785313129425
1.7726342456708357e+18,9.774835693359377,0.4699933528900146,-1.513625144958496,-0.2212224006652832,-0.5226449370384216,0.0149136893451213,-0.2850911617279053
1.7726342456908285e+18,9.79482861328125,2.548489570617676,1.2701358795166016,-2.5858194828033447,-0.4316980540752411,-0.0897484496235847,-0.0113184247165918
1.7726342457108216e+18,9.814821533203125,7.04209041595459,-0.9097003936767578,-2.6927037239074707,-0.3821632862091064,-0.1840242743492126,0.2472742944955825
1.7726342457308145e+18,9.834814453125,1.4220483303070068,-9.111899375915527,1.526158332824707,-0.1824263781309127,-0.2583264112472534,0.161254271864891
1.7726342457508073e+18,9.854807373046874,-3.897145748138428,-8.722994804382324,6.423694610595703,-0.0503337010741233,-0.4700475335121155,-0.1790974289178848
1.7726342457708004e+18,9.87480029296875,-3.717982769012451,1.8460869789123533,5.931027412414551,-0.0857537165284156,-0.2623211443424225,-0.204397439956665
1.7726342457907932e+18,9.894793212890624,-2.294697999954224,7.46937370300293,2.314941883087158,0.0508663319051265,0.2069274336099624,0.1585911065340042
1.772634245810786e+18,9.9147861328125,-1.195706486701965,2.6747140884399414,0.9918083548545836,0.8881634473800659,0.1336905658245086,0.6773744225502014
1.7726342458307791e+18,9.934779052734376,-1.5230112075805664,-4.309679985046387,-0.334693431854248,1.361140489578247,-0.2972085177898407,0.7878955602645874
1.772634245850772e+18,9.95477197265625,-1.2863364219665527,-5.235600471496582,-0.4229490756988525,0.7909581661224365,-0.3456780016422272,0.1572595238685608
1.7726342458707648e+18,9.974764892578126,-1.1866048574447632,-0.47900390625,0.4344925880432129,0.3789674937725067,-0.2753706276416778,-0.2294311374425888
1.772634245890758e+18,9.9947578125,-0.95912367105484,1.0340642929077148,3.112745523452759,0.3656516969203949,0.145674780011177,0.2241048067808151
1.7726342459107507e+18,10.014750732421875,-0.9049211144447328,-1.094329833984375,3.2348127365112305,0.527039110660553,0.1251684576272964,0.5495428442955017
1.7726342459307436e+18,10.03474365234375,-1.085487723350525,-3.033719062805176,0.5105315446853638,0.497211754322052,0.1403484642505645,0.5519396662712097
1.7726342459507364e+18,10.054736328125,-0.6495256423950195,-1.5027532577514648,-1.2062065601348877,0.1344895213842392,0.1339568942785263,0.3213101029396057
1.7726342459707295e+18,10.0747294921875,-0.1198523044586181,0.9406633377075196,-1.1670734882354736,0.0556600205600261,0.394147515296936,0.1870869100093841
1.7726342459907223e+18,10.094722412109377,-0.4266849756240845,1.7520651817321775,-0.3609521389007568,0.0721716061234474,0.6695181131362915,0.035020537674427
1.7726342460107151e+18,10.114715087890623,-0.7126625776290894,1.1863622665405271,0.9572839736938475,-0.0034621064551174,0.7571360468864441,-0.2510027289390564
1.7726342460307082e+18,10.134708251953125,-0.637555718421936,0.7487058639526367,0.9769359827041626,-0.0226368494331836,0.9582045674324036,-0.3149185180664062
1.772634246050701e+18,10.154701171875,-1.1047511100769043,1.1583271026611328,-0.8053250312805176,-0.0029294746927917,0.9976192712783812,-0.1455416232347488
1.772634246070694e+18,10.17469384765625,-1.1049280166625977,1.0349607467651367,-1.1228712797164917,0.1077247709035873,0.8141276240348816,-0.0089215822517871
1.772634246090687e+18,10.19468701171875,-1.0264406204223633,0.8854990005493164,-0.5784914493560791,0.1093226671218872,0.6532728672027588,-0.0680437088012695
1.7726342461106796e+18,10.214679443359374,-1.4532359838485718,1.269352912902832,-0.5043742656707764,0.0621847584843635,0.5653886198997498,-0.3314301073551178
1.772634246130672e+18,10.234672119140624,-1.5366408824920654,1.1515235900878906,-1.4161301851272583,0.0778973922133445,0.2996053695678711,-0.672314465045929
1.772634246150665e+18,10.2546650390625,-0.6916849613189697,0.6830511093139648,-2.605179786682129,0.1782984882593155,0.3067958950996399,-0.6193175911903381
1.7726342461706575e+18,10.274657470703126,-0.5917199850082397,0.6312627792358398,-2.486600399017334,0.2701774537563324,0.5251749157905579,-0.401471197605133
1.77263424619065e+18,10.294650146484376,-1.0126638412475586,1.0507946014404297,-1.967864751815796,0.3292995989322662,0.6567349433898926,-0.2925480008125305
1.7726342462106427e+18,10.314642578125,-1.0919089317321775,1.6902565956115725,-1.8049817085266116,0.3553985357284546,0.7752455472946167,-0.2499374598264694
1.7726342462306355e+18,10.334635498046875,-0.8253374099731445,1.819100379943848,-0.7041326761245728,0.3202448487281799,0.8466181755065918,-0.2539321780204773
1.772634246250628e+18,10.354628173828123,-0.4369454383850097,1.0694026947021484,0.5047653913497925,0.3588606417179107,0.8330360651016235,-0.265383780002594
1.7726342462706207e+18,10.37462060546875,0.6604272127151489,0.0722560882568359,0.6071063280105591,0.3109237849712372,0.6733797192573547,-0.2523342967033386
1.7726342462906135e+18,10.394613525390625,0.8809002637863159,-2.296649932861328,-0.0031605958938598,0.1524658352136612,0.29893958568573,-0.2808300852775574
1.772634246310606e+18,10.414606201171877,-1.397844314575195,-6.213153839111328,1.209754467010498,0.0001331579405814,-0.1426121592521667,-0.2776342928409576
1.7726342463305987e+18,10.4345986328125,-0.6992816925048828,-6.021506309509277,3.08760404586792,-0.1636511087417602,-0.2728406190872192,-0.2347574532032013
1.7726342463505912e+18,10.45459130859375,1.6864081621170044,-4.100557327270508,4.233587265014648,-0.4342280328273773,-0.280031144618988,-0.0984037145972251
1.772634246370584e+18,10.474583984375,2.715370178222656,-2.463526725769043,3.047959089279175,-0.7964176535606384,-0.3290332853794098,0.2294311374425888
1.7726342463905766e+18,10.49457666015625,2.5916709899902344,-0.5962581634521484,0.9716528654098512,-0.5026712417602539,-0.6621944308280945,0.5857617855072021
1.7726342464105692e+18,10.5145693359375,1.9934953451156616,-0.6834478378295898,0.0823853015899658,-0.3207774758338928,-0.63263338804245,0.5178512334823608
1.772634246430562e+18,10.53456201171875,1.731772780418396,-2.0569276809692383,-0.5504722595214844,-0.2789658904075622,-0.0038615802768617,0.5285038948059082
1.7726342464505546e+18,10.5545546875,0.9947675466537476,-2.4769515991210938,-0.5746896266937256,-0.3234406411647796,0.2400837689638137,0.6779070496559143
1.7726342464705472e+18,10.574547119140624,-0.2299180030822754,-0.8542852401733398,0.1509759426116943,-0.2190448194742202,0.1271658390760421,0.342615395784378
1.7726342464905398e+18,10.594539794921875,-0.6584487557411194,0.9820451736450196,1.209481716156006,-0.0762995034456253,-0.0904142409563064,-0.0267647467553615
1.7726342465105326e+18,10.61453271484375,-0.2110333442687988,1.3932065963745115,2.4729466438293457,0.0054594753310084,-0.3964111804962158,-0.1101216152310371
1.7726342465305252e+18,10.634525146484377,0.154807448387146,1.0746126174926758,3.4725959300994877,0.0174436904489994,-0.888829231262207,0.0270310621708631
1.7726342465505178e+18,10.654517822265625,-0.1619100570678711,1.464470386505127,3.101514339447021,0.0419447496533393,-1.2771178483963013,0.1777658462524414
1.7726342465705106e+18,10.674510498046876,-0.4303029775619507,2.1777238845825195,1.564720869064331,0.0081226341426372,-1.3985579013824463,0.3058637976646423
1.7726342465905032e+18,10.694503173828124,-0.3393876552581787,2.233832359313965,0.7859177589416504,-0.010785792954266,-1.240898847579956,0.3631217181682586
1.772634246610496e+18,10.71449609375,-0.3552355766296386,1.982040882110596,0.2854999303817749,-0.0035952643956989,-0.8376966118812561,0.2600574493408203
1.7726342466304886e+18,10.734488525390624,-1.2337902784347534,1.9903631210327148,-0.8519507646560669,0.0502005442976951,-0.4688491225242615,-0.0451405420899391
1.7726342466504814e+18,10.7544814453125,-0.636308491230011,1.8381705284118648,-2.2203409671783447,0.0672447606921196,-0.3098585307598114,-0.3205111622810364
1.7726342466704742e+18,10.77447412109375,0.3178576231002807,1.245615005493164,-2.350311279296875,0.0467384383082389,-0.176966905593872,-0.3061301112174988
1.772634246690467e+18,10.794467041015626,0.5969477891921997,0.6263341903686523,-0.9901864528656006,-0.0406131707131862,-0.0571247562766075,-0.1777658462524414
1.7726342467104596e+18,10.814459716796875,0.8706575632095337,0.2907695770263672,0.1521894931793213,-0.1311605721712112,-0.0813594982028007,-0.1812279522418975
1.7726342467304525e+18,10.834452392578124,0.8714643716812134,-0.1810083389282226,0.7201998829841614,-0.2893522083759308,-0.0573910735547542,-0.2315616607666015
1.7726342467504453e+18,10.8544453125,0.0863360166549682,0.0630340576171875,0.2707188129425049,-0.3814975023269653,-0.0062584234401583,-0.237953245639801
1.7726342467704381e+18,10.874438232421875,-0.0924547910690307,0.5719766616821289,-0.4844348430633545,-0.4504733085632324,-0.0909468755125999,-0.1990711241960525
1.7726342467904307e+18,10.8944306640625,1.144562602043152,0.7592372894287109,-0.5976778268814087,-0.517318606376648,-0.2536658644676208,-0.1912147998809814
1.7726342468104236e+18,10.914423583984377,2.223145008087158,-1.1916875839233398,0.2760871648788452,-0.3884217143058777,-0.2621879875659942,-0.2399506121873855
1.7726342468304164e+18,10.93441650390625,1.7910064458847046,-4.815086364746094,2.8563449382781982,-0.2731069326400757,-0.2017342746257782,-0.266582190990448
1.7726342468504092e+18,10.9544091796875,0.2875065803527832,-4.217006683349609,3.847915172576904,-0.2233058661222458,-0.1018658280372619,-0.131027415394783
1.7726342468704018e+18,10.97440185546875,-1.5497952699661257,-1.083944320678711,2.047633409500122,-0.1953427046537399,0.0922784507274627,0.0798947662115097
1.7726342468903946e+18,10.99439453125,1.029880404472351,-0.1480770111083984,2.0444278717041016,-0.1202416196465492,0.2017342746257782,0.1950763761997223
1.7726342469103875e+18,11.014387451171874,0.8625079393386841,-0.2981319427490234,2.137457132339477,0.011584741063416,0.1002679318189621,0.1615205854177475
1.7726342469303803e+18,11.03438037109375,-0.1141402721405029,-0.1340360641479492,1.0291342735290527,0.0549942292273044,-0.1407479494810104,-0.1639174222946167
1.7726342469503729e+18,11.054372802734376,-0.6009564995765686,0.5556163787841797,0.030140995979309,0.1894837468862533,-0.1237037256360054,-0.6328997015953064
1.7726342469703657e+18,11.07436572265625,-1.055225849151611,1.2849664688110352,0.409999668598175,0.1141163557767868,0.2483395636081695,-0.4653870165348053
1.7726342469903585e+18,11.094358642578126,-1.1687928438186646,0.8271446228027344,1.6848604679107666,0.1543300598859787,0.3263701200485229,-0.1087900400161743
1.7726342470103514e+18,11.114351318359375,-1.5707740783691406,-0.8656425476074219,2.7067999839782715,0.2771016657352447,0.2733732461929321,-0.02490053512156
1.772634247030344e+18,11.134343994140623,-1.643033742904663,-2.1256227493286133,2.9713728427886963,0.1969406008720398,0.1812279522418975,-0.0549942292273044
1.7726342470503368e+18,11.154336669921875,-1.2471274137496948,-1.261404037475586,1.1134562492370603,0.0848216116428375,0.0003994738217443,-0.144476369023323
1.7726342470703296e+18,11.17432958984375,-0.378378689289093,0.2521677017211914,-0.4653514623641968,0.0017310532275587,-0.1245026737451553,-0.2667153477668762
1.7726342470903222e+18,11.194322265625,-0.0512601137161254,0.5255823135375977,-0.2536438107490539,-0.0363521166145801,-0.1782984882593155,-0.3837611973285675
1.7726342471103148e+18,11.214314697265625,-0.2982332110404968,0.5057401657104492,0.2437021732330322,-0.0565921254456043,-0.1042626649141311,-0.4807001650333404
1.7726342471303073e+18,11.234307373046876,-0.2460106015205383,0.7222480773925781,0.7913057804107666,-0.1402153074741363,0.0789626613259315,-0.5637907385826111
1.7726342471503e+18,11.2542998046875,-0.2628054022789001,0.8473606109619141,0.9528855681419371,-0.203332170844078,0.3085269629955292,-0.4319643676280975
1.7726342471702922e+18,11.274292236328124,-0.2548707127571106,0.6145200729370117,0.719336211681366,-0.2041311264038086,0.5018723011016846,-0.1270326822996139
1.7726342471902848e+18,11.294284912109376,-0.4512183666229248,0.0497121810913085,0.5539718866348267,-0.1956090182065963,0.4613922536373138,-0.0556600205600261
1.7726342472102774e+18,11.31427734375,-0.6348665356636047,-0.4227533340454101,0.0662296712398529,-0.221175342798233,0.3215764164924621,-0.2114548087120056
1.77263424723027e+18,11.33427001953125,-0.6621272563934326,-0.4516534805297851,-0.5259188413619995,-0.1788311153650283,0.1743037402629852,-0.440752774477005
1.7726342472502623e+18,11.35426220703125,-0.5420816540718079,-0.1337862014770507,-0.8897328972816467,-0.1034637168049812,0.072571076452732,-0.5659212470054626
1.7726342472702548e+18,11.3742548828125,0.1098300218582153,0.0702400207519531,-0.3573174178600311,-0.0352868549525737,0.0520647540688514,-0.5102612376213074
1.7726342472902474e+18,11.394247314453125,0.8906378746032715,0.0900678634643554,0.3608922362327575,0.0150468470528721,0.0715058147907257,-0.3826959133148193
1.77263424731024e+18,11.414239990234377,0.5668797492980957,0.2181005477905273,-0.0933785438537597,0.0475373864173889,0.0728373900055885,-0.2516685128211975
1.7726342473302326e+18,11.434232666015625,-0.3786004781723022,0.1069860458374023,-0.3901844620704651,0.079228974878788,0.1039963513612747,-0.1131842508912086
1.772634247350225e+18,11.454224853515624,-0.9811323285102844,-0.2311992645263672,0.2314439415931701,0.0810931846499443,0.1173121482133865,0.022370534017682
1.7726342473702175e+18,11.474217529296874,-1.048946738243103,-0.2326316833496093,1.1893976926803589,0.0358194857835769,0.1303616166114807,0.1368863582611084
1.77263424739021e+18,11.4942099609375,-0.5461719036102295,0.0502233505249023,1.922901153564453,0.0664458125829696,0.0185089539736509,0.2034653276205063
1.7726342474102026e+18,11.51420263671875,-0.1826921701431274,0.2855501174926758,1.352590560913086,0.1559279412031173,-0.150068998336792,0.2367548197507858
1.772634247430195e+18,11.53419482421875,0.0567013025283813,-0.0538959503173828,0.7647718787193298,0.1468732059001922,-0.2142511308193206,0.2165148109197616
1.7726342474501875e+18,11.5541875,-0.0743060111999511,-0.4538698196411133,0.8647983074188232,0.1157142519950866,-0.0997352972626686,0.1390168964862823
1.77263424747018e+18,11.57418017578125,-0.1554553508758545,-0.2552547454833984,0.8190445303916931,0.0520647540688514,0.1141163557767868,0.0583231784403324
1.7726342474901727e+18,11.594172607421877,-0.0773799419403076,0.1545934677124023,0.6453275680541992,-0.0131826363503932,0.2627206146717071,0.0005326317623257
1.7726342475101652e+18,11.614165283203125,-0.0500178337097168,0.4551715850830078,0.54706209897995,-0.0352868549525737,0.3087932765483856,-0.0034621064551174
1.7726342475301576e+18,11.634157470703125,0.0420032739639282,0.4152259826660156,0.4953118860721588,-0.0131826363503932,0.2952111661434173,0.0266315881162881
1.7726342475501501e+18,11.654150146484374,-0.1928281188011169,0.0669488906860351,0.2756935358047485,-0.0438089631497859,0.2818953692913055,-0.0023968429304659
1.7726342475701427e+18,11.674142822265624,-0.5027953386306763,-0.4414606094360351,0.1750715374946594,-0.0781637132167816,0.2752374708652496,-0.0615189671516418
1.7726342475901356e+18,11.694135498046874,-0.2757397294044494,-0.6208896636962891,0.2591229379177093,-0.0960068777203559,0.2086584866046905,-0.1249021515250206
1.7726342476101297e+18,11.714129638671874,0.1138948202133178,-0.2545080184936523,-0.0148582458496093,-0.0845552906394004,0.1255679428577423,-0.1928126960992813
1.7726342476301238e+18,11.734123779296874,0.382901668548584,0.322479248046875,-0.4386601746082306,-0.0291615892201662,0.0973384529352188,-0.246342197060585
1.7726342476501181e+18,11.7541181640625,0.5401397943496704,0.7176332473754883,-0.411094069480896,0.0648479163646698,0.1415468901395797,-0.1816274374723434
1.7726342476701123e+18,11.7741123046875,0.4381402730941772,0.6490621566772461,-0.1638070344924926,0.095207929611206,0.2744385302066803,-0.0306263267993927
1.7726342476901064e+18,11.7941064453125,0.0303704738616943,0.3036603927612304,0.1324191987514495,0.0789626613259315,0.355664849281311,0.0476705431938171
1.7726342477101005e+18,11.8141005859375,-0.1667611598968505,-0.0471420288085937,0.2582212090492248,0.0688426569104194,0.341017484664917,0.0274305362254381
1.7726342477300946e+18,11.834094482421875,-0.1952333450317382,-0.0821256637573242,-0.0001620054244995,0.0470047518610954,0.2696448266506195,0.0199736915528774
1.772634247750089e+18,11.8540888671875,-0.1102325916290283,-0.0117340087890625,-0.4268774390220642,0.0267647467553615,0.1905490159988403,0.0378168560564518
1.772634247770083e+18,11.8740830078125,-0.0074608325958251,0.0344858169555664,-0.5945830941200256,0.0336889587342739,0.1183774098753929,0.0468715950846672
1.7726342477900772e+18,11.8940771484375,0.1661309003829956,0.1280202865600586,-0.3768173456192016,0.0419447496533393,0.1175784617662429,0.0596547573804855
1.7726342478100713e+18,11.9140712890625,0.3479562997817993,0.1840476989746093,-0.1952069997787475,0.040080539882183,0.1183774098753929,0.0719052851200103
1.7726342478300657e+18,11.934065673828124,0.2912003993988037,0.2306146621704101,-0.1347102522850036,0.0347542241215705,0.1018658280372619,0.0596547573804855
1.7726342478500598e+18,11.954059814453124,0.2424002885818481,0.2103414535522461,0.0273903608322143,0.0336889587342739,0.0739026591181755,0.0540621243417263
1.772634247870054e+18,11.974053955078125,0.1548097133636474,0.1421451568603515,0.1616446673870086,0.0363521166145801,0.019840532913804,0.0601873882114887
1.772634247890048e+18,11.994048095703125,0.0747991800308227,-0.0072841644287109,0.2773300111293793,0.032091062515974,-0.0472710691392421,0.0644484460353851
1.772634247910042e+18,12.0140419921875,0.0273323059082031,-0.0424575805664062,0.2879776954650879,0.0342215895652771,-0.1327584683895111,0.0367515906691551
1.7726342479300365e+18,12.034036376953123,0.1055625677108764,0.0271720886230468,0.1874710023403167,0.0302268527448177,-0.1767005920410156,0.0364852771162986
1.7726342479500306e+18,12.054030517578123,0.1820645332336425,0.0915346145629882,0.0739471316337585,0.0153131633996963,-0.2137184888124466,0.0519315972924232
1.7726342479700247e+18,12.074024658203124,0.3198286294937134,0.0116920471191406,0.0293992161750793,0.0155794788151979,-0.2169142812490463,0.0559263341128826
1.7726342479900188e+18,12.094018798828126,0.1742171049118042,0.0282936096191406,-0.0251204371452331,0.0312921144068241,-0.2001363784074783,0.0585894957184791
1.7726342480100132e+18,12.11401318359375,0.1892493963241577,0.093362808227539,0.0039583444595336,0.0352868549525737,-0.1782984882593155,0.0609863363206386
1.7726342480300073e+18,12.13400732421875,0.1471579074859619,0.0771856307983398,0.0359648466110229,0.050999492406845,-0.1596563756465912,0.070840023458004
1.7726342480500014e+18,12.15400146484375,0.0251446962356567,-0.0729389190673828,0.114621102809906,0.0621847584843635,-0.1521995216608047,0.0785631835460662
1.7726342480699955e+18,12.17399560546875,-0.0007886886596679,-0.0697650909423828,0.131498098373413,0.0818921327590942,-0.1864211112260818,0.0681768655776977
1.7726342480899894e+18,12.1939892578125,0.00234055519104,0.0964202880859375,0.1448889374732971,0.0691089704632759,-0.2279663980007171,0.0468715950846672
1.7726342481099822e+18,12.213982177734374,0.0014506578445434,0.1236429214477539,0.1540660560131073,0.050999492406845,-0.2503369152545929,0.0402136966586113
1.7726342481299748e+18,12.233974853515624,0.0050961971282958,0.0310640335083007,0.2916798591613769,0.048868965357542,-0.2628537714481354,0.0300936941057443
1.7726342481499676e+18,12.253967529296874,-0.0234441757202148,0.0152235031127929,0.465066909790039,0.0467384383082389,-0.2530000805854797,0.0237021129578351
1.7726342481699602e+18,12.273960205078126,-0.0655270814895629,-0.0343446731567382,0.5122590661048889,0.0472710691392421,-0.2314285039901733,0.0237021129578351
1.772634248189953e+18,12.293953125,-0.1353020668029785,-0.0313396453857421,0.5936517119407654,0.0411458052694797,-0.2013348042964935,0.0263652727007865
1.7726342482099456e+18,12.313945556640626,-0.1227579116821289,0.0384864807128906,0.703678548336029,0.0422110669314861,-0.1717737466096878,0.025300009176135
1.7726342482299384e+18,12.3339384765625,-0.1060267686843872,0.0553979873657226,0.6437402963638306,0.0456731729209423,-0.141680046916008,0.0213052704930305
1.772634248249931e+18,12.353930908203123,-0.1605226993560791,0.0197534561157226,0.4671381115913391,0.0411458052694797,-0.1110537201166153,0.0276968516409397
1.7726342482699238e+18,12.373923828125,-0.0774480104446411,-0.0206766128540039,0.3938942849636078,0.0438089631497859,-0.0631168633699417,0.037550538778305
1.7726342482899164e+18,12.39391650390625,-0.0575608015060424,-0.0323381423950195,0.2504570782184601,0.0406131707131862,0.002130527049303,0.0569915995001792
1.772634248309909e+18,12.413908935546877,-0.0586733818054199,-0.0250625610351562,0.1293540000915527,0.040879487991333,0.0756337121129036,0.0745684504508972
1.7726342483299018e+18,12.43390185546875,-0.045730710029602,-0.0465679168701171,0.1419514417648315,0.0486026480793952,0.1419463604688644,0.0703073889017105
1.7726342483498947e+18,12.453894775390625,-0.0244275331497192,-0.0680685043334961,0.1038114428520202,0.0502005442976951,0.1946769058704376,0.0540621243417263
1.7726342483698872e+18,12.47388720703125,-0.0565178394317626,0.1109790802001953,0.031996726989746,0.0573910735547542,0.2482064068317413,0.0340884327888488
1.7726342483898798e+18,12.4938798828125,-0.0176475048065185,0.3525562286376953,0.0325233340263366,0.0680437088012695,0.2852243185043335,0.0069242129102349
1.7726342484098726e+18,12.51387255859375,0.1587100028991699,0.474797248840332,0.0133886933326721,0.079228974878788,0.3036001026630401,-0.0031957905739545
1.7726342484298652e+18,12.533865234375,0.1439223289489746,0.4047355651855469,0.048812985420227,0.0816258192062377,0.3115895688533783,-0.0069242129102349
1.772634248449858e+18,12.553858154296876,0.0572030544281005,0.1815176010131836,0.0489389896392822,0.0890826657414436,0.3262369632720947,-0.0247673764824867
1.7726342484698506e+18,12.5738505859375,-0.0169202089309692,0.020273208618164,-0.022554874420166,0.094142660498619,0.342215895652771,-0.0327568538486957
1.7726342484898435e+18,12.593843505859375,-0.0281589031219482,-0.0265007019042968,-0.0990976095199585,0.0712395012378692,0.356596976518631,-0.0053263176232576
1.772634248509836e+18,12.6138359375,0.0659326314926147,0.00830078125,-0.1823923587799072,0.0528637021780014,0.3709780275821686,0.0356863290071487
1.7726342485298289e+18,12.633828857421875,0.1172469854354858,-0.0092315673828125,-0.2131733894348144,0.0544615983963012,0.3685811758041382,0.0740358158946037
1.7726342485498214e+18,12.653821533203123,0.1119757890701294,0.0593194961547851,-0.1898982524871826,0.0597879141569137,0.3573959171772003,0.0916126668453216
1.7726342485698143e+18,12.673814208984377,0.1421538591384887,0.1051197052001953,-0.1518529057502746,0.067777395248413,0.3507380187511444,0.0929442420601844
1.7726342485898068e+18,12.693806884765625,0.1346790790557861,0.1363954544067382,-0.0528006553649902,0.0667121261358261,0.3584611713886261,0.0860200300812721
1.7726342486097992e+18,12.713799072265624,0.1046292781829834,0.1006317138671875,0.1047334671020507,0.0629837065935134,0.3510043323040008,0.0788294970989227
1.7726342486297915e+18,12.73379150390625,0.0762916803359985,0.056035041809082,0.2254352569580078,0.0619184412062168,0.3235737979412079,0.0569915995001792
1.7726342486497838e+18,12.75378369140625,0.1056865453720092,0.0780029296875,0.2399048209190368,0.0549942292273044,0.2950780093669891,0.0439421199262142
1.7726342486697761e+18,12.773776123046876,0.0526772737503051,0.09515380859375,0.1665684580802917,0.0432763323187828,0.2775011360645294,0.0306263267993927
1.7726342486897684e+18,12.7937685546875,0.0887035131454467,0.1162834167480468,0.0631306171417236,0.040879487991333,0.2836264073848724,0.0428768582642078
1.7726342487097608e+18,12.8137607421875,0.1378512382507324,0.1095504760742187,0.0030181407928466,0.0374173820018768,0.3091927468776703,0.0490021221339702
1.772634248729753e+18,12.833753173828123,0.1453925371170044,0.0507497787475585,-0.0169636011123657,0.0312921144068241,0.3249053657054901,0.0527305454015731
1.7726342487497454e+18,12.853745361328125,0.0861260890960693,0.0385093688964843,0.249563455581665,0.0315584316849708,0.3368895947933197,0.0466052778065204
1.7726342487697377e+18,12.87373779296875,0.0835589170455932,-0.1450138092041015,0.0130140781402587,0.040080539882183,0.356596976518631,0.0340884327888488
1.77263424878973e+18,12.89372998046875,-0.0342917442321777,-0.2075185775756836,-0.1549385786056518,0.051798440515995,0.3675159215927124,0.0237021129578351
1.7726342488097224e+18,12.913722412109376,0.0634161233901977,0.2022647857666015,0.1112139225006103,0.0571247562766075,0.3579285442829132,0.0005326317623257
1.7726342488297147e+18,12.933714599609376,-0.0192834138870239,0.2245731353759765,0.0058662891387939,0.0483363308012485,0.3456780016422272,0.0117178987711668
1.772634248849707e+18,12.95370703125,0.0012904405593872,0.1801376342773437,-0.1164083480834961,0.0707068666815757,0.3243727385997772,0.0170442163944244
1.7726342488696996e+18,12.973699462890623,0.0552910566329956,0.2508611679077148,-0.0927585363388061,0.0741689726710319,0.3118558824062347,-0.043409489095211
1.7726342488896916e+18,12.993691650390623,-0.1204121112823486,0.1823682785034179,-0.2588999271392822,0.0789626613259315,0.2985401153564453,-0.0793621316552162
1.7726342489096842e+18,13.013684326171877,-0.0529131889343261,0.0516872406005859,-0.2396405935287475,0.0707068666815757,0.3006706237792969,-0.0585894957184791
1.7726342489296765e+18,13.033676513671876,-0.0945241451263427,-0.0168266296386718,-0.0504209995269775,0.0712395012378692,0.3153179883956909,-0.0327568538486957
1.7726342489496689e+18,13.0536689453125,-0.1808003187179565,-0.0268888473510742,-0.0713604688644409,0.0531300194561481,0.3318295776844024,-0.0226368494331836
1.7726342489696612e+18,13.0736611328125,-0.0512305498123168,0.054901123046875,-0.1694236993789672,0.0525973848998546,0.3022685348987579,-0.0308926422148942
1.7726342489896535e+18,13.093653564453126,0.0191086530685424,0.0985555648803711,-0.1368645429611206,0.0549942292273044,0.2841590344905853,-0.0205063223838806
1.7726342490096458e+18,13.113645751953126,-0.0578799247741699,0.0369672775268554,-0.1631367206573486,0.0563258081674575,0.2751043140888214,-0.0010652635246515
1.7726342490296381e+18,13.13363818359375,-0.0857316255569458,-0.0530319213867187,-0.1656408309936523,0.0486026480793952,0.2500706017017364,-0.0071905287913978
1.7726342490496305e+18,13.15363037109375,-0.0279172658920288,0.0293312072753906,-0.1585040092468261,0.0342215895652771,0.234091654419899,-0.0263652727007865
1.7726342490696228e+18,13.173622802734377,-0.038154125213623,0.130284309387207,-0.1243366003036499,0.0222373753786087,0.2133190184831619,-0.048469491302967
1.7726342490896154e+18,13.193615478515625,-0.0615235567092895,0.1314210891723632,-0.1475603580474853,0.0262321140617132,0.1810947954654693,-0.0639158114790916
1.7726342491096092e+18,13.213609130859377,-0.0037510395050048,0.0611391067504882,-0.2121847867965698,0.02490053512156,0.1608547866344452,-0.0676442310214042
1.7726342491296033e+18,13.233603271484377,-0.0124049186706542,0.061863899230957,-0.2410072088241577,0.0139815835282206,0.1454084664583206,-0.0657800212502479
1.7726342491495972e+18,13.25359716796875,0.0080147981643676,0.10565185546875,-0.1736344099044799,0.0131826363503932,0.1227716207504272,-0.0615189671516418
1.772634249169591e+18,13.273591064453123,0.0035537481307983,0.0966720581054687,-0.1250863075256347,0.0163784269243478,0.108390562236309,-0.0676442310214042
1.772634249189585e+18,13.2935849609375,-0.0393391847610473,0.0492353439331054,-0.1058326959609985,0.0091878976672887,0.1004010885953903,-0.066046342253685
1.772634249209579e+18,13.3135791015625,-0.0725764036178588,0.044997215270996,-0.0671309232711792,0.004660528153181,0.0804273933172226,-0.054328441619873
1.7726342492295729e+18,13.33357275390625,-0.0209728479385375,0.10296630859375,-0.0385761260986328,0.0014647373463958,0.054328441619873,-0.0383494868874549
1.7726342492495667e+18,13.353566650390626,-0.0354076623916626,0.126866340637207,-0.0013306140899658,-0.0025300008710473,0.0380831696093082,-0.0295610632747411
1.7726342492695608e+18,13.373560791015626,-0.0737955570220947,0.0993175506591796,-0.0546717643737793,-0.0001331579405814,0.0165115855634212,-0.0295610632747411
1.7726342492895547e+18,13.3935546875,-0.0589922666549682,0.0663032531738281,-0.049078345298767,0.0019973691087216,-0.0029294746927917,-0.0255663245916366
1.7726342493095485e+18,13.413548583984374,-0.0347106456756591,0.0859699249267578,-0.0339331626892089,-0.0019973691087216,-0.011185267008841,-0.0221042186021804
1.7726342493495365e+18,13.45353662109375,-0.0853744745254516,0.0475101470947265,-0.0638922452926635,0.0006657897029072,-0.0170442163944244,-0.0237021129578351
1.7726342493695304e+18,13.4735302734375,-0.0621579885482788,0.0917215347290039,-0.0865513086318969,0.0006657897029072,-0.0255663245916366,-0.0263652727007865
1.7726342493895242e+18,13.493524169921876,-0.0209126472473144,0.1116342544555664,-0.0829687118530273,-0.0019973691087216,-0.0271642208099365,-0.0245010610669851
1.7726342494095183e+18,13.513518310546877,-0.0646173954010009,0.0262031555175781,-0.161242127418518,-0.0038615802768617,-0.0199736915528774,-0.0181094799190759
,,,,,-0.0038615802768617,-0.0213052704930305,-0.0178431645035743
,,,,,0.0073236869648098,-0.0295610632747411,-0.0276968516409397
,,,,,-0.0241015870124101,-0.0327568538486957,-0.0138484258204698
,,,,,-0.022770008072257,-0.0407463312149047,-0.0005326317623257
,,,,,-0.0230363234877586,-0.046338964253664,-0.0026631588116288
