time,seconds_elapsed,accel_z,accel_y,accel_x,gyro_x,gyro_y,gyro_z
1772807898780089600,0.081089599609375,-0.215533094471693,-0.1025828609876334,0.6338545142628252,-0.0490482077002525,0.0094576487317681,-0.0059558739885687
1772807898800138500,0.101138427734375,-0.2013935099601745,-0.036282588867098,0.4373520277472212,-0.0415010079741478,0.1059819534420967,-0.0354085341095924
1772807898820186600,0.1211865234375,-0.1484773278087377,-0.0128523211799561,0.4281615170104428,-0.0133518921211361,0.1743598729372024,-0.0240859203040599
1772807898840235500,0.141235595703125,-0.1704272938102483,-0.1513540522888302,0.6261672476958483,0.0294950250536203,0.0940220728516578,0.0002661161124706
1772807898860284700,0.16128466796875,-0.1355681618750095,-0.0670104662165045,0.633356428547576,0.1118908524513244,-0.0113478945568203,0.02183822914958
1772807898880332500,0.18133251953125,0.097920276004076,-0.0122783206842839,0.4778656783128157,0.175429105758667,-0.0517369993031024,0.0623217187821865
1772807898900381400,0.20138134765625,0.3409937038302421,-0.1635698291309177,0.4589773283716291,0.1511056274175644,-0.0497301705181598,0.0891424342989921
1772807898920430600,0.2214306640625,0.4081190285980701,-0.3071704908140003,0.4067234825864434,0.0550097301602363,-0.0452241040766239,0.0699546262621879
1772807898940479000,0.24147900390625,0.4797305588692426,-0.4975578919827937,0.3736049472408368,-0.0495188534259796,0.011298295110464,0.0172267481684684
1772807898960528000,0.26152783203125,0.1371568923711776,-0.541146273818612,0.1372282405743375,-0.1175713390111923,0.0066179502755403,-0.0635817795991897
1772807898980577000,0.281576904296875,-0.0755833565115928,-0.5847631510965525,0.0161489150399342,-0.0760207176208496,-0.0182073712348938,-0.1526650339365005
1772807899000626000,0.3016259765625,-0.2610398771494627,-0.5162487100578844,0.0514145088842138,0.0557444803416729,-0.1061552092432975,-0.2354717403650283
1772807899020674000,0.321674072265625,-0.3667822250813246,-0.3044197308011352,0.0413422834094613,0.1676205098628997,-0.1847900450229644,-0.2678830921649933
1772807899040723000,0.341722900390625,-0.0946662426441907,-0.2541324358485639,-0.0775160416072234,0.2007158994674682,-0.0795338153839111,-0.2301030755043029
1772807899060771800,0.361771728515625,0.1419295136004686,-0.216884362950176,-0.1316336719702929,0.1863449960947036,0.1087580844759941,-0.2019281238317489
1772807899080821000,0.381821044921875,0.3355658335626125,-0.2602918352611362,-0.1380266974756494,0.1835299432277679,0.2195871025323867,-0.1815496236085891
1772807899100868900,0.401868896484375,0.2792863124579191,-0.3459535181947052,-0.1814546645853668,0.1552898734807968,0.1094601154327392,-0.1456138640642166
1772807899120918000,0.42191796875,0.2039297504395246,-0.2995741904661059,-0.3160118227869272,0.0783665552735328,-0.1046364828944206,-0.1498390287160873
1772807899140967000,0.441966796875,0.0526496401697397,-0.3097575846977531,-0.4738648817062377,-0.0445025712251663,-0.2007615268230438,-0.2094557136297226
1772807899161015000,0.46201513671875,-0.0005026888251304,-0.1997701465420424,-0.5757216203764081,-0.0547431260347366,-0.0819660946726799,-0.2087175399065017
1772807899181064000,0.48206396484375,-0.0205985513925552,-0.0595282937675714,-0.5880975196836515,0.0211506206542253,0.0863347724080085,-0.1340769082307815
1772807899201113000,0.502113037109375,0.1015261915415525,-0.3217306388251483,-0.5123396833879873,0.0639267042279243,0.1412557661533355,-0.0120117850601673
1772807899221161700,0.52216162109375,0.291610371980071,-0.5853123094119131,-0.4621101830372586,0.0800153613090515,0.0846322402358055,0.0966007933020591
1772807899241209900,0.5422099609375,0.5765700538992882,-0.8223089015424251,-0.4984803405899554,0.1291065961122512,0.0353576503694057,0.1611416637897491
1772807899261258800,0.5622587890625,0.8850000432550906,-0.9133626527778804,-0.6547922344818711,0.1679445803165435,0.0564527176320552,0.17132568359375
1772807899281308000,0.582307861328125,1.0637737251281738,-0.8101946853786707,-0.838377627485618,0.1882481724023819,0.1961909085512161,0.1700794100761413
1772807899301357000,0.602357177734375,1.0102361962080002,-0.8639334359593689,-0.8017242325447499,0.1659788787364959,0.3197958469390869,0.1668471693992614
1772807899321405000,0.622405029296875,0.8981050240218639,-0.8467521456643938,-0.6743728410035371,0.1286738216876983,0.3126138150691986,0.1074685752391815
1772807899341454000,0.6424541015625,0.827723327806592,-0.9041356824882328,-0.5937238351328298,0.0580012276768684,0.1984184831380844,-0.0010924665257334
1772807899361503000,0.6625029296875,0.5762707786917686,-0.8793366106659174,-0.5189444154152646,-0.0454395487904548,-0.0256311744451522,-0.1436344981193542
1772807899381551000,0.682551025390625,0.4336924457937479,-0.8480841249205171,-0.4551835255792364,-0.1064855605363845,-0.2064417898654937,-0.2429824769496917
1772807899401600000,0.70260009765625,0.3586953647375107,-0.7262555884540081,-0.4333311382006853,-0.0968158170580864,-0.2172894924879074,-0.2324284464120865
1772807899421649000,0.72264892578125,0.4203519027054309,-0.6696073801673949,-0.479418095386587,-0.0608317255973815,-0.0624714270234108,-0.1225874274969101
1772807899441696800,0.74269677734375,0.4202876052975654,-0.7944274996653199,-0.4468047696167603,-0.0518456101417541,0.0764842480421066,0.0150760356336832
1772807899461746000,0.762745849609375,0.427455597230792,-0.948260509288311,-0.3658867375463247,-0.0318938083946704,0.1080582588911056,0.0731406360864639
1772807899481794800,0.782794921875,0.4286263945758342,-1.0367372496426104,-0.4359472389832138,-0.0077764457091689,0.0451834239065647,0.0584489926695823
1772807899501844000,0.802843994140625,0.3669523209512234,-1.0776247019566596,-0.5379462356682867,-0.0113874962553381,-0.0596118569374084,-0.0079564284533262
1772807899521891800,0.822891845703125,0.2846300115734338,-1.081530038832128,-0.6174487383849918,0.0057724402286112,-0.1250106245279312,-0.0604388825595378
1772807899541941000,0.84294091796875,0.2575567112088203,-1.091476263307035,-0.479070816318877,0.0542637407779693,-0.0989512130618095,-0.0854054167866706
1772807899561990100,0.862990234375,0.2773573902219534,-1.1131814607672392,-0.4168300487222149,0.1432481706142425,0.0166374761611223,-0.0461111329495906
1772807899582038800,0.883038818359375,0.3963713076591491,-1.1382190175205469,-0.4429049491666257,0.1750060766935348,0.1933279633522033,-0.0256665535271167
1772807899602087000,0.9030869140625,0.6933879225969314,-1.34528472789824,-0.4113396711450069,0.1601334810256958,0.3942792117595672,-0.0274623129516839
1772807899622135800,0.9231357421875,0.7330839731693267,-1.5504839137516917,-0.3063287062276154,0.1614990383386612,0.4608556926250458,0.0030722783412784
1772807899642185000,0.94318505859375,0.6218289992958307,-1.561165759024769,-0.309066460628435,0.2065095007419586,0.3510811626911163,0.0055861282162368
1772807899662232800,0.96323291015625,0.4169727816611528,-1.6961641581878064,-0.2580114327063784,0.2514359056949615,0.1055480688810348,-0.0730041787028312
1772807899682282000,0.983281982421875,-0.0085123922795057,-1.617564376464486,-0.2583417058403603,0.2259590625762939,-0.2053007632493972,-0.1854420751333236
1772807899702331000,1.003330810546875,-0.3715530927449464,-1.3977841459423304,-0.2935121139481663,0.1423437595367431,-0.3114173710346222,-0.2863572835922241
1772807899722380000,1.023380126953125,-0.7621195135176181,-1.108618098374456,-0.2749831536375917,0.0455084182322025,-0.1899447739124298,-0.3214104175567627
1772807899742428000,1.043427978515625,-1.338854402589798,-0.7325726626463234,-0.1401745231593027,-0.0588904209434986,-0.0712532550096511,-0.3555746674537658
1772807899762476800,1.063476806640625,-1.7830699959635734,-0.3361896645493805,0.1494485200616065,-0.0811397433280944,0.014612428843975,-0.3822926878929138
1772807899782526000,1.08352587890625,-1.9228794486701488,0.121480892072618,0.4222575901962817,0.0072701051831245,0.0988197550177574,-0.3611189126968384
1772807899802573800,1.10357373046875,-1.7715403016895055,0.4715416994556784,0.7445708512149751,0.1164941042661666,0.1607648432254791,-0.2642210125923157
1772807899822623000,1.123623046875,-1.4586141699582338,0.5912051668427885,1.0223024815768005,0.2050533592700958,0.1916118115186691,-0.0564001351594924
1772807899842671900,1.143671875,-1.1652917333632706,0.54750996363163,1.018906190202013,0.2450346797704696,0.1375410258769989,0.2233705520629882
1772807899862721000,1.163720947265625,-0.589761543905735,0.5152709510669112,0.8569963301725685,0.3028097450733185,0.1333033144474029,0.4442611634731293
1772807899882769000,1.183768798828125,-0.028769582888484,0.5233680405437946,0.5775028047047555,0.4064936935901642,0.1453089863061905,0.5110807418823242
1772807899902818000,1.203818115234375,0.3150555449753999,0.5492211514636874,0.5255570019554346,0.4744606018066406,0.030376037582755,0.473285436630249
1772807899922870300,1.223870361328125,0.499032640710473,0.6338742418766021,0.4671178185988217,0.4104296863079071,-0.1791875660419464,0.3813555240631103
1772807899942918100,1.243918212890625,0.6795797619968652,0.6078378833442926,0.6012840412540361,0.2569110691547394,-0.2960992455482483,0.2941662967205047
1772807899962967000,1.263967041015625,0.6634820291548967,0.6579433919891715,0.6432674355786293,0.0922415032982826,-0.2837566137313843,0.242892175912857
1772807899983016000,1.284015869140625,0.5428256052076816,0.8693436244398355,0.5184880134172737,-0.0234491564333438,-0.1884773075580597,0.1997428983449936
1772807900003065000,1.304065185546875,0.5466133070528507,0.9818743173375724,0.3576755932357162,-0.0140953715890645,-0.0443898700177669,0.1528386622667312
1772807900023113000,1.324113037109375,0.7830360448181629,0.9696958037659524,0.3967295830449089,0.0391410179436206,0.0977026969194412,0.0953641086816787
1772807900043162000,1.344162109375,1.1788146472811698,0.6939169149070977,0.6072972005963325,0.0445624664425849,0.2215293496847152,0.0891343429684639
1772807900063211000,1.3642109375,1.3543009780466555,0.5888838842883706,0.6148783033750951,0.0441124588251113,0.2196231931447982,0.16384819149971
1772807900083259100,1.384259033203125,1.47266490714252,0.3195028797730803,0.6100623544607311,0.0085095837712287,0.1136040315032005,0.2459541708230972
1772807900103308000,1.40430810546875,1.453367501476407,0.0299064779639244,0.7078554969538002,-0.029974028468132,0.0003706939169205,0.2688067257404327
1772807900123357200,1.424357177734375,1.4137743267565963,-0.0490931167319416,0.6421773022543639,-0.0552207976579666,-0.0446927212178707,0.2551460266113281
1772807900143406000,1.444406005859375,1.2556149783670902,-0.1761383649334311,0.5774321871539577,-0.1450646221637725,-0.0396194010972976,0.2390013337135315
1772807900163454000,1.464453857421875,1.0220727644741534,-0.2528942723557353,0.5354346912387759,-0.207446739077568,-0.0236127097159624,0.2351118475198745
1772807900183503000,1.484503173828125,0.5802092871844768,-0.30242928763628,0.4327606083037331,-0.2514186799526214,-0.0760141313076019,0.2410373389720916
1772807900203552000,1.504552001953125,0.1283557462781667,-0.472223251979053,0.3146933605995029,-0.2763020098209381,-0.1185062304139137,0.2229523360729217
1772807900223600000,1.52460009765625,-0.1350830087065696,-0.5321244707122444,0.1458495183221064,-0.2385675758123397,-0.051406230777502,0.1719545125961303
1772807900243649000,1.54464892578125,-0.2369868013888597,-0.5855611696064472,0.0778027404609602,-0.133343830704689,0.0651759877800941,0.1324294060468673
1772807900263698200,1.5646982421875,-0.1468488498240709,-0.6508224540680646,0.0576810219330713,-0.0274971611797809,0.1382781863212585,0.1183886602520942
1772807900283747000,1.5847470703125,0.0642436318516731,-0.8810846233770251,0.1736819482246413,0.0736314207315445,0.1617801338434219,0.117605373263359
1772807900303795200,1.604795166015625,0.0794599056839942,-0.8838304149538279,0.1856427456586621,0.1474556177854538,0.0714544057846069,0.1069598421454429
1772807900323843800,1.62484375,0.0112239893257617,-0.920337606357038,0.218607862274535,0.1261068731546402,-0.0806808248162269,0.0719386786222457
1772807900343893000,1.64489306640625,-0.1774696135371923,-0.7790504823133348,0.2389721299871802,0.0618561692535877,-0.2078418880701065,-0.0140956752002239
1772807900363940900,1.66494091796875,-0.4260498220860957,-0.4183262420967221,0.0808223440104629,0.0275746285915374,-0.1992249637842178,-0.1102371215820312
1772807900383990000,1.684989990234375,-0.719133189228177,-0.0263128373861312,-0.0110932025529444,0.0084545258432626,-0.1235148906707763,-0.1476878821849823
1772807900404039200,1.7050390625,-0.8417851709067821,0.2010313986495137,0.023464297820907,0.0620211064815521,-0.0202717240899801,-0.0862474590539932
1772807900424088000,1.725088134765625,-0.7985761437773704,0.48700902543962,-0.0511595660087652,0.1292276084423065,0.0104690827429294,-0.0215954706072807
1772807900444136200,1.74513623046875,-0.8246879056334495,0.4696089778274297,-0.101481658280082,0.0162825789302587,-0.1597993969917297,-0.0179146695882082
1772807900464185000,1.76518505859375,-0.6388496922016144,0.3368471055448055,-0.0985799089565873,-0.1683246344327926,-0.2626503705978393,-0.0805647149682045
1772807900484234000,1.78523388671875,-0.7220154666662216,0.5675359758332371,-0.2620563424493186,-0.3414787352085113,-0.3015126883983612,-0.1881369203329086
1772807900504283000,1.805282958984375,-0.7831623015463351,0.4641977664336562,-0.4087012124001979,-0.4880852997303009,-0.2202083170413971,-0.2334146052598953
1772807900524331000,1.8253310546875,-0.8591454710304737,0.3502832179620861,-0.4244924731088802,-0.5047203898429871,-0.0432133898138999,-0.2664196193218231
1772807900544380000,1.8453798828125,-0.8243816161632538,0.2936588289424777,-0.4017854416623711,-0.2989950776100158,0.1718494445085525,-0.2532480359077453
1772807900564429000,1.865428955078125,-0.6850514714062214,0.1814434856042265,-0.3646601914260536,0.00161461555399,0.2406767606735229,-0.1931781321763992
1772807900584477000,1.885476806640625,-0.1912538087397813,0.0479267033010721,-0.3263055455252528,0.277066707611084,0.1645092666149139,-0.1104029268026351
1772807900604526000,1.905526123046875,0.458308416134119,-0.0150210435211658,-0.3294648132737726,0.3901143968105316,0.0091735990718007,-0.0533702485263347
1772807900624575200,1.9255751953125,0.9720657477676868,-0.1145537231579423,-0.482548319703713,0.3073581457138061,-0.1183065772056579,-0.0355108603835105
1772807900644624000,1.945623779296875,1.255304012721777,-0.0155099960818886,-0.7538727133717388,0.1226477324962616,-0.130302146077156,-0.1110414639115333
1772807900664672300,1.96567236328125,1.1864058330625296,0.0042675943166017,-0.8688914236929267,-0.0687484964728355,-0.0726444348692894,-0.2560535967350006
1772807900684721000,1.985720947265625,0.918513605800271,0.1736360267236828,-0.8977776917636394,-0.1097213923931121,0.0086292680352926,-0.3747113049030304
1772807900704770000,2.00577001953125,1.0015443557083603,0.2670379485204815,-0.7026567592669278,-0.0084047559648752,0.1514124870300293,-0.4012848138809204
1772807900724818000,2.02581787109375,1.2731804456740616,0.2224400973811745,-0.4505579846704378,0.035859428346157,0.1918877810239792,-0.3793482780456543
1772807900744867000,2.0458671875,1.546679406902194,0.1434609609514474,-0.1962761304138228,0.0023001292720437,0.1320515722036361,-0.3515188992023468
1772807900764916000,2.065916015625,1.6189093613326548,-0.0146948803067207,0.0432534873256459,-0.0330984815955162,0.0571916699409484,-0.298694372177124
1772807900784965000,2.085965087890625,1.596100148153305,-0.1184372865930199,0.1439763265950605,-0.0519485026597976,0.003173230914399,-0.2088306695222854
1772807900805013000,2.106012939453125,1.610216351789236,-0.216424490353465,-0.020082697125175,-0.1137214750051498,-0.0221894066780805,-0.1268637776374817
1772807900825062100,2.126062255859375,1.2802455617547035,-0.4390989810124039,0.1014824437313713,-0.1886908560991287,-0.1152849718928337,-0.0899970158934593
1772807900845111000,2.146111083984375,0.9325655120283364,-0.4105421640917658,-0.0838976141368039,-0.23160220682621,-0.1736260652542114,-0.0587152726948261
1772807900865159000,2.166158935546875,0.5680722746670246,-0.5640621622428298,-0.1947830057792365,-0.2867457270622253,-0.1485544592142105,-0.0335958935320377
1772807900885208000,2.1862080078125,0.1831418139547109,-0.6516627042844891,-0.1752602851909585,-0.2620798349380493,-0.053071241825819,-0.0076519940048456
1772807900905257000,2.206257080078125,-0.1249918228030204,-0.6883942059628665,-0.1875723437480628,-0.1563501507043838,0.0952293276786804,0.0531124472618103
1772807900925302500,2.226302490234375,-0.3056248688071966,-0.7303409580715,-0.200822870465368,-0.0187051128596067,0.1894584000110626,0.1306543946266174
1772807900945350700,2.2463505859375,-0.3161374949932098,-0.9266567263759672,-0.048722054929845,0.1134027242660522,0.1846620589494705,0.2074793577194214
1772807900965399600,2.266399658203125,-0.3951362129062414,-0.9182324507713318,0.0062852679816773,0.1506675481796264,0.0240586567670106,0.2695946395397186
1772807900985448700,2.28644873046875,-0.625017566204071,-0.92448815016523,-0.1451950364687479,0.0709257498383522,-0.1556473225355148,0.2762310802936554
1772807901005496600,2.30649658203125,-1.0299152946680783,-0.8080911372281611,-0.2196474344553425,0.0143484091386199,-0.1795243620872497,0.2104430496692657
1772807901025545500,2.32654541015625,-1.326838386103511,-0.5882422253839671,-0.3108088838489726,0.059747364372015,-0.0188744738698005,0.1914630234241485
1772807901045594400,2.346594482421875,-1.346573598664999,-0.4547952934466302,-0.3861910187000408,0.2013989686965942,0.2452688962221145,0.2342574298381805
1772807901065643500,2.3666435546875,-1.2496984477996826,-0.4148229101508855,-0.3427887705534696,0.3206561505794525,0.3526419401168823,0.2585863173007965
1772807901085691400,2.38669140625,-0.993988825762272,-0.5370534515470266,-0.2321852463260293,0.3168686628341675,0.2559975981712341,0.2485138922929763
1772807901105740500,2.406740478515625,-0.7586112131357192,-0.5255927308559417,-0.1071863361950963,0.2171774059534073,0.1174632385373115,0.1915521919727325
1772807901125789700,2.426789794921875,-0.7613771707177162,-0.2411836685568094,-0.0803788014940451,0.0581385493278503,0.0650105699896812,0.0996750369668006
1772807901145837600,2.446837646484375,-0.7984042943418026,-0.1249962067171931,0.0913468432973604,-0.0286748316138982,0.1750507056713104,0.0814317315816879
1772807901165886700,2.46688671875,-0.9642401687085628,0.1606540878146886,0.3436969349069521,-0.0366423353552818,0.2278439402580261,0.1234460920095443
1772807901185935600,2.486935546875,-1.1880208670437336,0.4173264174044132,0.51389535186477,-0.0719760358333587,0.0645530745387077,0.1927195936441421
1772807901205984500,2.506984619140625,-1.3154454699516296,0.5768813118055462,0.5996666691852733,-0.06557447463274,-0.1197422742843627,0.2975960373878479
1772807901226032400,2.527032470703125,-1.053892382583022,0.9715326638042926,0.4054189758591354,0.0690465867519378,-0.0832521319389343,0.3808151185512543
1772807901246081500,2.54708154296875,-0.2389467032849788,1.0881304600104689,0.3619826427798718,0.2732961475849151,0.2218521684408188,0.4462388157844543
1772807901266130400,2.56713037109375,0.4479916047811508,0.9868041749551892,0.6378541052930057,0.3297908306121826,0.3321302235126495,0.4876227378845215
1772807901286178600,2.587178466796875,0.9693009592294692,0.817344557133317,0.8269963287062942,0.2589494287967682,0.1760133057832718,0.5136540532112122
1772807901306227500,2.6072275390625,0.9897235695332288,0.6242240777388215,0.9918243412047624,0.1178636997938156,-0.1534379571676254,0.5064656138420105
1772807901326276600,2.627276611328125,0.7667401590555906,0.6137085289433598,0.9633451926302165,-0.0432526804506778,-0.4034324586391449,0.4617900550365448
1772807901346325800,2.64732568359375,0.4396960701227188,0.803948192204535,0.7694993946358561,-0.1210357993841171,-0.3836877346038818,0.3977730274200439
1772807901366373600,2.66737353515625,0.1955108816623687,0.9191244311749934,0.5272309995822608,-0.1318041682243347,-0.1317319869995117,0.3639087080955505
1772807901386422500,2.687422607421875,0.3391296635240316,0.8960580283641815,0.2984833264894783,-0.0877476334571838,0.1964130848646164,0.3141195178031921
1772807901406471400,2.707471435546875,0.5200052861124277,0.7499699337795376,0.0379702862257137,-0.0282173193991184,0.4273001253604889,0.303905040025711
1772807901426520600,2.7275205078125,0.6584674158632755,0.5673042129039764,0.1488774239090737,0.0171208921819925,0.3894408047199249,0.2515351176261902
1772807901446568400,2.747568359375,0.8672264861553907,0.3915054551884532,0.213672707427293,0.0696999505162239,0.2235458344221115,0.2022429406642913
1772807901466617600,2.76761767578125,1.3161527414381504,0.2506689975216984,0.2907264104860834,0.0944348946213722,0.1715278774499893,0.1716073751449585
1772807901486666500,2.78766650390625,1.5042162297040222,0.0197772981375455,0.3817419668693095,-0.0156711693853139,0.0986809805035591,0.1575086712837219
1772807901506714600,2.807714599609375,1.1724088718920946,-0.0760290544524788,0.3101407753290608,-0.1732439845800399,-0.03683727607131,0.1072344034910202
1772807901526763500,2.827763427734375,0.866101281517744,-0.0433455129906535,0.2327837236758321,-0.1723631024360656,-0.0450456216931343,0.0515874065458774
1772807901546812400,2.8478125,0.6006716449767351,-0.0782446846753358,0.1232436822277493,-0.1232053115963935,0.0119689814746379,0.0438331961631774
1772807901566861600,2.867861572265625,0.4099409833282232,-0.3031216538146138,0.0867980939518194,-0.1127929240465164,0.0378764830529689,0.0537394024431705
1772807901586909400,2.887909423828125,0.4396183287113904,-0.3439718428581952,0.0319316225494025,-0.0738280937075614,0.0701166540384292,0.0261010490357875
1772807901606958600,2.90795849609375,0.4325830232471227,-0.4629737775966525,-0.0050601580499554,-0.0577483735978603,0.0618957430124282,-0.0073901596479117
1772807901627007500,2.928007568359375,0.554027967223525,-0.5446911068186163,0.00962590419607,-0.0491808280348777,0.0654029697179794,-0.0429220423102378
1772807901647055600,2.9480556640625,0.6083551852166652,-0.701350279778242,0.081606991582131,-0.0547387190163135,0.0737114548683166,-0.0856660082936286
1772807901667104500,2.9681044921875,0.5274596937716007,-0.709776455079019,0.2048389925052411,-0.0260463338345289,0.0197633914649486,-0.1047293096780777
1772807901687153700,2.988153564453125,0.5495891079932451,-0.7058689262464642,0.2243389715387485,0.00172207551077,-0.031415719538927,-0.0884759947657585
1772807901707202600,3.00820263671875,0.4148018673628568,-0.70776043908149,0.2837712210533209,-0.0178931709378957,-0.1216414868831634,-0.0805403068661689
1772807901727250700,3.028250732421875,0.193777774259448,-0.6873705620035528,0.2736958537734113,-0.0036067217588424,-0.1606665849685669,-0.0696441158652305
1772807901747299300,3.04829931640625,0.0578308421999216,-0.6691515992239118,0.2302001917223446,0.0584898069500923,-0.1205415502190589,-0.0288322083652019
1772807901767348500,3.068348388671875,-0.0498585481464862,-0.739840461692214,0.1604866953585297,0.1139881834387779,-0.1035414487123489,0.0281233005225658
1772807901787396600,3.088396728515625,-0.1334860949039459,-0.9757283619284628,0.1045146145015023,0.1228117942810058,-0.1489362865686416,0.0467758625745773
1772807901807445500,3.108445556640625,-0.430929995343089,-0.9597639000773428,-0.0026291703266557,0.0727646648883819,-0.2890106737613678,-0.0159355252981185
1772807901827494700,3.12849462890625,-0.6507873827546835,-1.1042466052919626,-0.0749111198058351,0.0341548509895801,-0.3444689810276031,-0.070372886955738
1772807901847543600,3.14854345703125,-0.8718705125689507,-0.7904986357837915,-0.3035837549010292,-0.0651750937104225,-0.36247318983078,-0.2004566341638565
1772807901867591700,3.168591796875,-1.3451719151735304,-0.3291632730439305,-0.4463522766089066,-0.2733537852764129,-0.4516437947750091,-0.3843725025653839
1772807901887640600,3.188640625,-1.7824240992754696,-0.2645788649305701,-0.2608374133799225,-0.4583934843540191,-0.4322341978549957,-0.4829608798027038
1772807901907689500,3.208689453125,-2.003386233058572,0.0692374946162104,-0.1344805493013933,-0.4039577543735504,-0.1923740357160568,-0.477121353149414
1772807901927741200,3.2287412109375,-1.66847155688107,0.6933226022757589,-0.2368173996387049,-0.0542284101247787,0.1639279276132583,-0.3767944574356079
1772807901947790300,3.248790283203125,-1.1924229013949632,0.7799658435925841,-0.2801473862666636,0.3237227201461792,0.3063346147537231,-0.1786393970251083
1772807901967839200,3.268839111328125,-0.4701519986629486,0.6187398011088371,-0.0928672303982078,0.4640030264854431,0.2006201297044754,-0.0945542007684707
1772807901987887400,3.288887451171875,0.1189747544705867,0.4087161177083849,0.0952447183855809,0.4856597185134887,0.0379427596926689,-0.1325292438268661
1772807902007936300,3.308936279296875,0.383521762958169,0.6232479261830449,0.0119531986494548,0.4637888967990875,-0.1197055578231811,-0.187685489654541
1772807902027985400,3.3289853515625,0.5855477256029844,0.7210650340735912,-0.3291982712920755,0.3312121927738189,-0.1601316034793853,-0.1892713010311126
1772807902048034300,3.349034423828125,0.6549316429525613,0.6990893491089344,-0.4531610433083027,0.1167099028825759,-0.0828688293695449,-0.2342748492956161
1772807902068082400,3.36908251953125,0.4866401921272277,0.5754539093509317,-0.4328443775970488,-0.0704528838396072,-0.0079099172726273,-0.3029428422451019
1772807902088131000,3.389131103515625,0.5064017081737519,0.5264832499548793,-0.5398680705763399,-0.1151693314313888,0.1520811915397644,-0.348774254322052
1772807902108180200,3.40918017578125,0.72343585485816,0.6260653216913342,-0.4508685484569519,-0.0300487726926803,0.3118060529232025,-0.3584949076175689
1772807902128228000,3.42922802734375,1.037840242448449,0.6244912042424082,-0.2566580636023544,-0.0092462515458464,0.3222147226333618,-0.3029287457466125
1772807902148277200,3.44927734375,1.1235568704396486,0.644555210366845,-0.4032157667264342,-0.0564042180776596,0.1663199514150619,-0.2332737296819687
1772807902168326400,3.469326416015625,1.2268670227885246,0.6662468176931142,-0.4105576539218425,-0.0171685256063938,0.0660226866602897,-0.2600488066673279
1772807902188375300,3.489375244140625,1.3674866228342055,0.4977753341257572,-0.28462487874059,0.0386941619217395,0.0334665775299072,-0.3340620994567871
1772807902208423400,3.50942333984375,1.330068454065919,0.405493356269598,-0.2095671718046069,0.0095448521897196,-0.0157834701240062,-0.3473908007144928
1772807902228472300,3.529472412109375,1.1406705023258925,0.4573088837027549,-0.2496914211938157,-0.0529520027339458,-0.0313222967088222,-0.2494518607854843
1772807902248521200,3.549521240234375,0.9461825339704752,0.38227030159235,-0.3759612280433997,-0.0958969444036483,-0.0061423885636031,-0.1223579570651054
1772807902268569300,3.5695693359375,0.6556009205162525,0.4009375926613807,-0.6067150167942047,-0.1365581154823303,-0.0511724054813385,-0.0904382243752479
1772807902288618200,3.5896181640625,0.4255155690789222,0.2769061393231153,-0.7692103485614061,-0.1513063162565231,-0.084843099117279,-0.1007205918431282
1772807902308667100,3.609667236328125,0.2469225044697523,0.1829854543492197,-0.8103496567446739,-0.1347727626562118,-0.0820489898324012,-0.0816610530018806
1772807902328716300,3.62971630859375,0.0706119978398084,-0.044681730030477,-0.7614050085727125,-0.108482040464878,-0.0726576149463653,-0.0113488091155886
1772807902348764400,3.649764404296875,0.0298369198590517,-0.2748436538353562,-0.7006205772642046,-0.0438020788133144,-0.0278957467526197,0.0529632903635501
1772807902368813300,3.669813232421875,-0.0837730927079915,-0.3914619083076715,-0.6608309301242232,0.0254332832992076,-0.0659623816609382,0.0796288326382637
1772807902388862500,3.689862548828125,-0.263135388123989,-0.5387783756434917,-0.6657281275812537,0.0400677882134914,-0.1925526112318039,0.0981206446886062
1772807902408910300,3.709910400390625,-0.4380617469191551,-0.6933984439909457,-0.6902011823195964,0.0385278686881065,-0.2616139054298401,0.0844390466809272
1772807902428959500,3.72995947265625,-0.6434785210460424,-0.6972039737537503,-0.6734404555242508,0.0846612304449081,-0.2375302016735077,0.0195290390402078
1772807902449008000,3.750008056640625,-0.782757812398672,-0.7000865434527397,-0.6145987557813525,0.1535108983516693,-0.1209815368056297,-0.0578291192650795
1772807902469057300,3.770057373046875,-0.7230863107681273,-0.7341799517124891,-0.4132334124697372,0.1513131558895111,0.0396525561809539,-0.1257845908403396
1772807902489105200,3.790105224609375,-0.7886608989626168,-0.7860802348196506,-0.1015668980112765,-0.0110509572550654,0.1984546184539795,-0.1996970772743225
1772807902509154300,3.810154296875,-0.9802671744018792,-0.8829583082944155,0.3846071105094626,-0.2041746228933334,0.3544164299964905,-0.2482253313064575
1772807902529203500,3.830203369140625,-1.1548802294641731,-0.642162470011413,0.6680966833434998,-0.3580933809280395,0.4963820576667785,-0.2934245765209198
1772807902549251300,3.850251220703125,-1.432880593764782,-0.3982330098778009,0.790775699159503,-0.3817669749259949,0.4445990920066833,-0.2084973305463791
1772807902569300500,3.870300537109375,-2.200645419692993,-0.0266951147019863,0.8871767297070473,-0.0909307599067688,-0.027072325348854,-0.0802438259124755
1772807902589349400,3.890349365234375,-1.7337176437735555,0.5508192343100905,0.5057580765079707,0.4894296824932098,-0.2135543674230575,-0.0564096681773662
1772807902609398300,3.910398193359375,-0.7048661789447068,1.0203753129065036,0.3058363561334088,0.8778961896896362,-0.0308944042772054,-0.1604668051004409
1772807902629446100,3.930446044921875,0.392268548515439,0.8158516882270574,0.4548623673334717,0.8033936619758606,0.229931429028511,-0.1414164453744888
1772807902649495300,3.950495361328125,0.9156196379244328,0.7565794150471686,0.5959217470359057,0.5182921886444092,0.3627821803092956,0.0319851748645305
1772807902669544200,3.970544189453125,1.06088969412446,0.632775925245881,0.6675090196486562,0.2694748938083648,0.2661026120185852,0.2053685337305069
1772807902689592300,3.99059228515625,0.5759136358171701,0.6769742556735873,0.5081792392402887,0.0995620414614677,-0.1053439527750015,0.202341541647911
1772807902709641200,4.01064111328125,0.1278501348435878,0.8691665143072604,0.3023972302638925,0.0866029784083366,-0.4710404276847839,0.0296361148357391
1772807902729690400,4.0306904296875,-0.0339911169290542,1.3084782612875103,-0.1464110611950047,0.1043147444725036,-0.5431555509567261,-0.1895780712366104
1772807902749738200,4.05073828125,0.2286591180264949,1.7374392946451902,-0.5005708465958014,0.0381097979843616,-0.2562111616134643,-0.3245731890201568
1772807902769787400,4.070787353515625,0.4516267464131117,1.875656801985204,-0.3009353592840954,-0.0361151918768882,0.1139928773045539,-0.3193451762199402
1772807902789836300,4.090836181640625,0.5184224008351564,1.6116873011246322,0.0394227317900396,-0.005746079608798,0.3151300549507141,-0.1237509846687316
1772807902809885200,4.11088525390625,1.2470143232822417,1.1081935893520711,0.3949913976080715,-0.000642972998321,0.5323028564453125,0.0574169866740703
1772807902829933300,4.130933349609375,1.5174205791920423,0.4044032229453325,0.7017730352349579,-0.0595810785889625,0.51949542760849,0.0901759564876556
1772807902849982200,4.150982177734375,0.9131015176236628,0.6371367508038878,0.3907334844352677,-0.1630799174308776,0.0405951179563999,0.0433769524097442
1772807902870031400,4.17103125,0.9514502452403306,0.9999626394748689,-0.3442500752776861,-0.107981190085411,-0.1845108866691589,0.0615914650261402
1772807902890079200,4.191079345703125,1.5235902077376842,0.3236778273701667,-0.2234546447185799,-0.0991642847657203,0.0214176569133996,0.1045621186494827
1772807902910128400,4.21112841796875,1.3171838380515577,-1.459452666608989,0.8789423506513238,-0.3635994791984558,0.1121624112129211,0.049417532980442
1772807902930174000,4.231174072265625,0.4698147295325994,-1.38125123655349,1.1899896098334342,-0.6193342804908752,-0.0880830362439155,-0.1611745357513427
1772807902950222800,4.251222900390625,-0.292460851329565,-0.9265323693439363,0.923220395251736,-0.5675194263458252,-0.2264293581247329,-0.2135128825902938
1772807902970271000,4.27127099609375,-0.4889163203656673,-0.3581830313012004,0.4815993484158068,-0.3000176548957824,-0.1635373085737228,-0.080114796757698
1772807902990319900,4.29131982421875,-0.3314548911124467,-0.5162526555806398,0.3574121199939399,-0.0562752075493335,0.030868262052536,0.1639886647462844
1772807903010368800,4.31136865234375,0.0555769257932901,-0.8671148424744606,0.3607274185543879,-0.0199923031032085,0.1786678433418274,0.2556964755058288
1772807903030417000,4.3314169921875,0.3093359982848167,-1.149104860933125,0.3353423635376617,-0.1008104532957077,0.1790257692337036,0.2174021005630493
1772807903050465800,4.3514658203125,-0.1296522158294916,-0.9842945302218198,0.2854854958916082,-0.0786378234624862,-0.0888818725943565,0.1590668261051178
1772807903070515000,4.371514892578125,-0.2507704120695591,-0.5929182543709873,0.009816643278487,0.0638355314731597,-0.2660984098911285,0.1319671422243118
1772807903090562800,4.391562744140625,-0.1826321108669042,-0.6202440681919456,0.0257790958356112,0.1380567401647567,-0.2581495642662048,0.1841591596603393
1772807903110612000,4.411612060546875,-0.0967494786590337,-0.6284671221360564,0.0515859564609825,0.1713624596595764,-0.104966402053833,0.278092622756958
1772807903130661000,4.4316611328125,-0.0099789577007293,-0.5562967889383434,-0.0521979326131753,0.1984211802482605,0.034338466823101,0.3428657054901123
1772807903150709800,4.451709716796875,-0.1801210048288107,-0.6844602275148034,0.099070889077615,0.1922627985477447,0.0144501933827996,0.413445234298706
1772807903170758000,4.4717578125,-0.1967337014555931,-0.8282885604739189,-0.0251016897643916,0.1388175040483474,-0.0205311700701713,0.4463577568531036
1772807903190806800,4.491806884765625,-0.2989595656991005,-0.6303840616732835,-0.3355320774234831,-0.059669055044651,-0.116219975054264,0.3592926561832428
1772807903210856000,4.51185595703125,-0.6819184340775013,-0.2332365089446306,-0.4941954663449898,-0.3154272735118866,-0.2946610450744629,0.0447318516671657
1772807903230903800,4.53190380859375,-1.190126314890385,-0.0356985053688287,-0.3994966731380671,-0.440709114074707,-0.4409855306148529,-0.2261246889829635
1772807903250953000,4.551952880859375,-1.4660434431761502,0.4686109067007899,-0.3319091376859694,-0.3379194736480713,-0.4502860307693481,-0.2888679206371307
1772807903271001900,4.572001953125,-1.4142518811404703,0.90373543112427,-0.3551949919337406,-0.081778772175312,-0.2652953863143921,-0.2105918973684311
1772807903291051000,4.592051025390625,-1.0804115561962129,0.9709934423610568,-0.3057121817644685,0.1890502870082855,0.001996565843001,-0.0574637837707996
1772807903311099000,4.612098876953125,-0.5088017550528049,0.9163970520377158,-0.2395950841911137,0.3433795273303985,0.1633269935846328,0.0573328994214534
1772807903331148000,4.63214794921875,0.0316810864210128,0.7652271241441368,-0.2345928189244121,0.3548322319984436,0.1428397297859192,0.0524974316358566
1772807903351197000,4.652197021484375,0.4421791191101074,0.6746797149956226,-0.269452316185832,0.2825264930725097,0.0348917730152606,-0.0012726346030831
1772807903371244800,4.672244873046875,0.5813450132161379,0.7402823602408171,-0.4222042525738477,0.1367084085941314,-0.104792520403862,-0.0934338867664337
1772807903391294000,4.6922939453125,0.4680290151596069,0.8076327259361743,-0.4391585291799157,-0.0232727471739053,-0.1838264763355255,-0.1925814747810363
1772807903411342800,4.7123427734375,0.2828536495506763,0.9848732068926096,-0.4196653086807578,-0.048180129379034,-0.1629882454872131,-0.1948343962430954
1772807903431391000,4.732390869140625,0.3269949890941381,0.9201172416046262,-0.4043298289155587,-0.0165263786911964,-0.035243634134531,-0.1204760670661926
1772807903451439900,4.75243994140625,0.6933937678158283,0.8171881975278258,-0.3963266647998243,-0.0083275102078914,0.1781853586435318,-0.0703520253300666
1772807903471489000,4.772489013671875,0.9334908101797104,0.6273787423774599,-0.2391815166878514,-0.0309284757822752,0.2794155478477478,-0.100775234401226
1772807903491538000,4.792537841796875,1.1127467226117849,0.4243047319844364,-0.0293876508547458,-0.0332235693931579,0.2435442209243774,-0.1214685589075088
1772807903511586000,4.8125859375,1.2868114961415529,0.3104240857824683,0.1001244167185388,0.0018088731449097,0.1429557353258133,-0.0851901248097419
1772807903531634700,4.832634765625,1.430747088867426,0.0951776992976665,0.1866131250607781,0.0070075476542115,0.0768976807594299,-0.0020746090449392
1772807903551683800,4.852683837890625,1.425215173703432,0.0583165798902511,0.2151699967803433,-0.0159752611070871,-0.0035681659355759,0.123042531311512
1772807903571732000,4.87273193359375,1.3050146768301725,0.0128957219302654,0.0611011508411727,-0.1084918230772018,-0.1029393821954727,0.2329639047384262
1772807903591780900,4.89278076171875,1.0911538994848728,-0.1391439745351672,-0.1848871963173151,-0.2645626068115234,-0.1713714152574539,0.2650981843471527
1772807903611830000,4.912830078125,0.7723276037991047,-0.2865849450334906,-0.2903482978886924,-0.3939801156520843,-0.1781056076288223,0.1678832769393921
1772807903631878000,4.9328779296875,0.1800555383771657,-0.2991407674849033,-0.2067362409613095,-0.3671768307685852,-0.1537347584962844,0.0748472660779953
1772807903651927000,4.952927001953125,-0.0300970320999622,-0.2824415616184473,-0.2910478975254111,-0.2305748462677002,-0.0086168311536312,0.0969385281205177
1772807903671976000,4.972975830078125,-0.0638625235795974,-0.3819675192534923,-0.0931804062669165,-0.078249990940094,0.119510181248188,0.1758811175823211
1772807903692024800,4.99302490234375,-0.0928752675741911,-0.5385878215074539,0.1324794568783603,0.0571924671530723,0.0754723101854324,0.262843519449234
1772807903712073000,5.013072998046875,0.025688568007946,-0.6993024073377251,0.129334738245001,0.1254774928092956,-0.026703281328082,0.3528864979743957
1772807903732121900,5.033121826171875,0.0518050060391426,-0.7842875061839818,-0.0143821245631203,0.0993450582027435,-0.1345907151699066,0.4085385501384735
1772807903752171000,5.0531708984375,-0.144476275473833,-0.7443328046754002,-0.320799276259169,0.0112642217427492,-0.2100712358951568,0.3717387020587921
1772807903772219000,5.073218994140625,-0.5705716902673245,-0.5738929436445236,-0.5327139975706116,-0.0786201283335685,-0.2321293950080871,0.2486687004566192
1772807903792268000,5.09326806640625,-1.0075766216099262,-0.3959837696462869,-0.5303303903697059,-0.0642995983362197,-0.1521927714347839,0.1759654581546783
1772807903812317000,5.11331689453125,-1.117173891404271,-0.2938189879402518,-0.3384424849774688,0.0715831369161605,0.0506342016160488,0.2037002891302108
1772807903832365000,5.133364990234375,-1.1437959408700469,-0.2785910236701369,-0.0378791738761588,0.2606863975524902,0.2306692004203796,0.3126507401466369
1772807903852414000,5.1534140625,-0.633585488063097,-0.2077750276908278,0.13299642995717,0.4000736474990845,0.3862969577312469,0.4256514608860016
1772807903872463000,5.173463134765625,-0.3673690850585699,-0.471954664170742,0.4114023976502939,0.3230576813220978,0.3101518452167511,0.476615309715271
1772807903892511700,5.19351171875,-0.1605804380565881,-0.4985343357995152,0.5698593772795051,0.1120544597506523,0.1136971265077591,0.4167576134204864
1772807903912559900,5.213559814453125,-0.4655664244383573,-0.3747171097338199,0.6277461874503641,-0.1246905624866485,-0.1584046483039856,0.3077001571655273
1772807903932608500,5.2336083984375,-0.7298615039914846,0.1461161516353488,0.3411299339631572,-0.2984685599803924,-0.2148109525442123,0.207511767745018
1772807903952657400,5.253657470703125,-1.1141922452449795,0.5144537894651293,0.1604354766279458,-0.3630865216255188,-0.1018244102597236,0.1627358794212341
1772807903972705500,5.27370556640625,-1.1492723264545202,0.5939490587234497,0.1306728641141206,-0.2584090232849121,0.1687980145215988,0.2120768874883651
1772807903992754400,5.29375439453125,-1.0500216786295176,0.5373135637879372,0.3954629971751943,0.015803400427103,0.3325076401233673,0.3524955213069916
1772807904012803600,5.313803466796875,-0.3793319100528955,0.6414207117334008,0.3534202738787979,0.2951568961143493,0.3020619750022888,0.4670561850070953
1772807904032851500,5.3338515625,0.297334010323882,0.365623118174076,0.3006561952828429,0.3178968429565429,0.1218045428395271,0.4536372125148773
1772807904052900600,5.353900634765625,0.6135527538597584,0.2907981788143515,0.2652451285532675,0.1924985945224762,-0.0603714436292648,0.2836613953113556
1772807904072949800,5.37394970703125,0.7019763027220964,0.3613268822848796,0.3987725966472178,0.0915509760379791,-0.1691366285085678,0.1168303936719894
1772807904092998400,5.393998291015625,0.4376362149834633,0.6411798887148499,0.3213459868891164,0.0844868719577789,-0.2929814755916595,0.0870626121759414
1772807904113046500,5.414046630859375,0.5539817899942397,0.9100786626711488,0.2187361648293212,0.0924488753080368,-0.2437113672494888,0.0655422210693359
1772807904133095400,5.434095458984375,0.7830144175082445,0.8730442325234412,0.2543719071602449,-0.0064754988998174,-0.0378827303647995,0.0300478748977184
1772807904153144600,5.45414453125,0.9282751213580368,0.9038146338403223,0.2887295923793688,-0.1031353622674942,0.1617740094661712,-0.0125769348815083
1772807904173192400,5.4741923828125,1.0424380916327238,0.627438363610208,0.2336784440258517,-0.1648917943239212,0.2489273250102996,-0.014029280282557
1772807904193241600,5.49424169921875,0.8647627263903618,0.5532175276234745,0.5125280455669388,-0.2258510738611221,0.1422351747751236,0.0149124590680003
1772807904213290500,5.51429052734375,0.7114321133315563,0.3869970378533005,0.7689687218252569,-0.1575263142585754,-0.0255029704421758,0.0652924925088882
1772807904233338600,5.534338623046875,0.7516875513523816,0.2512719318509102,0.7763175502181052,-0.0917519927024841,-0.1055506095290184,0.1402076035737991
1772807904253387500,5.554387451171875,0.6682552349060773,0.1145391101107001,0.707202147611603,-0.1792674958705902,-0.1355540305376052,0.1832187622785568
1772807904273436700,5.574436767578125,0.2992658551692962,0.1028448729246854,0.6298361454669386,-0.3077191114425659,-0.1003382429480552,0.1838046759366989
1772807904293485600,5.594485595703125,0.1001081414371728,-0.0286368964195251,0.5418108021419495,-0.3207638561725616,0.0469461679458618,0.1973423808813095
1772807904313533400,5.614533447265625,-0.2711205416589975,-0.0257908593386411,0.282063704749383,-0.2544099688529968,0.1260557025671005,0.1846858412027359
1772807904333582600,5.63458251953125,-0.2439835284084081,-0.0801734607808291,0.1238986572714522,-0.146905317902565,0.1647587865591049,0.1194315552711486
1772807904353631500,5.654631591796875,-0.1968985366284847,-0.2377934415966272,0.1798378770384937,-0.0053854174911975,0.1244412213563919,0.0335092432796955
1772807904373679600,5.6746796875,-0.0076490534484386,-0.283164761326462,0.2621849555313587,0.1059448421001434,0.038883801549673,-0.0140733178704977
1772807904393728500,5.694728515625,0.4815682956904172,-0.4680088491544127,0.304884389170818,0.0852795839309692,0.0692911893129348,-0.0425359494984149
1772807904413777700,5.714777587890625,0.6473866344004869,-0.4744426815941929,0.2042203674165532,-0.0388920567929744,0.1392258405685424,-0.0691403076052665
1772807904433825500,5.734825439453125,0.2736222953468561,-0.4639189494922757,0.2564173684479668,-0.1033537313342094,0.0734710991382598,-0.1034878268837928
1772807904453874700,5.754874755859375,0.0055085342884063,-0.4363406222149729,0.2898753648810088,-0.0524608977138996,0.0054331896826624,-0.121731199324131
1772807904473923300,5.77492333984375,-0.3108738753765821,-0.3288300955668091,0.2523066817261278,0.0711366757750511,-0.058583814650774,-0.1118564307689666
1772807904493972500,5.794972412109375,-0.3613257132411003,-0.1697989327788353,0.1238376843318343,0.1771079450845718,-0.0524129942059516,-0.0952630639076232
1772807904514020400,5.815020263671875,-0.2564922968477011,-0.1661772351503372,0.0645524420725181,0.1994343250989914,0.0166922118514776,-0.1012441739439964
1772807904534069500,5.835069580078125,-0.3116892834126949,0.0264335411563515,-0.1113587995741516,0.1618475466966629,0.0156925842165946,-0.1420022696256637
1772807904554118700,5.85511865234375,-0.4652700718402862,0.2259711941167712,-0.2517049529733136,0.080515444278717,-0.078978843986988,-0.2157572656869888
1772807904574166500,5.87516650390625,-0.7092103456288575,0.3211795808136463,-0.3677681308461353,-0.0239617377519607,-0.1823472529649734,-0.2584085166454315
1772807904594215700,5.895215576171875,-0.6936755073666572,0.4893307463854551,-0.509503254385665,-0.1113069877028465,-0.1147051528096199,-0.2973842322826385
1772807904614264600,5.9152646484375,-0.8115969533920288,0.4457669144690036,-0.5508166039615869,-0.2374670356512069,-0.0194792710244655,-0.339932918548584
1772807904634312700,5.935312744140625,-0.929451763921976,0.3655401160657405,-0.6016020576946437,-0.3234391212463379,0.0259040277451276,-0.3531172573566437
1772807904654361600,5.955361572265625,-0.8169605262517928,0.3858662802577018,-0.6303376652482897,-0.3272220492362976,0.1495319008827209,-0.3767412304878235
1772807904674410500,5.975410400390625,-0.716802115932107,0.444371076196432,-0.8404647359579801,-0.2567364275455475,0.2480938881635666,-0.3877646028995514
1772807904694458400,5.995458251953125,-0.614853315064311,0.3502494618229568,-0.8615310509927571,-0.0993189960718154,0.2278553694486618,-0.4142019748687744
1772807904714507500,6.015507568359375,-0.2023404354214668,0.3222217833429575,-0.7127772443301975,0.1544541716575622,0.1467039138078689,-0.4401326477527618
1772807904734556400,6.035556396484375,0.4541945510745048,0.1671675613619387,-0.6066814067855477,0.3141873776912689,0.0599396079778671,-0.4387800395488739
1772807904754605600,6.05560546875,0.9342296458482742,0.0891382730029523,-0.6086790103435517,0.2855619192123413,0.0055501009337604,-0.4388951063156128
1772807904774653400,6.0756533203125,1.3631044622272253,0.0396715006530284,-0.6372006828855723,0.1704040616750717,0.0046918937005102,-0.4710642695426941
1772807904794702600,6.09570263671875,1.311837800848484,0.1386240423142909,-0.7978590815491974,0.0288373753428459,-0.0729886144399643,-0.5450047254562378
1772807904814751700,6.115751708984375,0.978154712292552,0.289482420040667,-0.8410845483567565,-0.0581653527915477,-0.2086059004068374,-0.6451615691184998
1772807904834799600,6.135799560546875,0.8444763096868991,0.421103305594623,-0.8327639523223042,-0.1445526480674743,-0.2309146374464035,-0.7458921074867249
1772807904854848500,6.1558486328125,0.5334522121846675,0.3563508474379778,-0.564353729067929,-0.2479442954063415,-0.2111390680074691,-0.7771530747413635
1772807904874897400,6.1758974609375,0.3634977965831756,0.2506320265121758,-0.2687344502400606,-0.2579542994499206,-0.0937568023800849,-0.7016493082046509
1772807904894945500,6.195945556640625,0.4728799623221159,0.1766673572435975,-0.0975989533615298,-0.1420408189296722,0.0833580046892166,-0.5455775260925293
1772807904914994400,6.215994384765625,0.8834545673787594,0.088982205658406,0.0300029514751862,-0.0304308887571096,0.1539677381515503,-0.3799264430999756
1772807904935043600,6.236043701171875,1.3452964183360336,-0.1340773387953639,0.1879452869799919,-0.0003853875678032,0.0475467182695865,-0.2088136821985244
1772807904955092700,6.2560927734375,1.3568822267115117,-0.1641395918428898,-0.408675237708725,-0.0167984440922737,-0.183275356888771,-0.1769308745861053
1772807904975140600,6.276140625,1.5413988361507651,-0.2696421396695077,-0.5333975228553638,-0.0789363905787468,-0.2836509943008423,-0.3366841673851013
1772807904995189800,6.296189697265625,1.2957459132254123,-0.5727765068352222,-0.3368417717825621,-0.1388565599918365,-0.3250840306282043,-0.4537409543991089
1772807905015238700,6.31623876953125,1.160087734979391,-0.4314762310490012,-0.3908709566771984,-0.0655802935361862,-0.26892751455307,-0.430822491645813
1772807905035286800,6.336286865234375,0.7570616456061601,-0.4441422358766198,-0.4889056528411805,0.026685707271099,-0.2991371154785156,-0.3972023427486419
1772807905055335700,6.356335693359375,0.5152338339269161,-0.3450197444759309,-0.5156420859342441,0.1723722964525222,-0.3989941775798797,-0.4334684014320373
1772807905075384600,6.376384521484375,0.534680292674899,-0.4250631491363048,-0.2800235772239044,0.1901974529027938,-0.4252606332302093,-0.4631598591804504
1772807905095432700,6.3964326171875,0.7030149981200695,-0.6704150432884692,-0.0648398441791534,0.0245461929589509,-0.2010908722877502,-0.4469965100288391
1772807905115481600,6.416481689453125,0.7013754142194986,-0.7743063565261662,-0.1369870522296056,-0.2053174078464508,0.1823087334632873,-0.4452276527881622
1772807905135530800,6.43653076171875,-0.0393196184754371,-0.9206007873378692,0.0463318627245258,-0.342227578163147,0.2517446875572204,-0.4531158804893493
1772807905155578600,6.45657861328125,-0.8794482543468475,-0.976635393770784,0.3137171725111082,-0.319501131772995,0.031108520925045,-0.4191769659519195
1772807905175627800,6.476627685546875,-1.3207669572353362,-0.9301517288848756,0.2286133426560088,-0.2199576795101165,-0.0751549154520034,-0.3739742934703827
1772807905195676700,6.4966767578125,-1.526669469052553,-0.5869812655374408,0.2147949346565641,-0.0675286054611206,0.0236661192029714,-0.3290746212005615
1772807905215725600,6.5167255859375,-1.3680144461005923,-0.3227221340805292,0.3124895304122939,0.1510593891143798,0.2976052463054657,-0.1987648457288742
1772807905235773400,6.5367734375,-0.9731336692601442,-0.132464789032191,0.4187496186079457,0.2287680655717849,0.498645544052124,-0.052531749010086
1772807905255822600,6.556822509765625,-0.5835989296227693,-0.2284092349186539,0.4320231974072754,0.0858705714344978,0.562870442867279,0.0712879076600074
1772807905275871700,6.576871826171875,-0.4218061931669711,-0.1575404858388006,0.3125337348802015,-0.1444928348064422,0.5280429124832153,0.0962324887514114
1772807905295919600,6.596919677734375,-0.9165735776484012,-0.1445676070190966,0.4354373166996985,-0.3760003745555877,0.2685708701610565,0.0365203060209751
1772807905315968800,6.61696875,-2.079340176448226,0.2110783070199191,-0.0453934219637885,-0.4828093945980072,-0.2743793427944183,-0.1235260665416717
1772807905336017700,6.637017578125,-2.523627666014433,0.5171973890848458,-0.41452085846439,-0.4545237421989441,-0.5026504993438721,-0.3147520124912262
1772807905356065800,6.657065673828125,-2.474596800863743,0.6474858569912612,-0.2780122008688748,-0.1515116393566131,-0.2602936327457428,-0.3340945839881897
1772807905376114700,6.67711474609375,-1.7022002234816551,1.0047584954492748,-0.3200472888480872,0.232165902853012,0.2551993429660797,-0.1657575368881225
1772807905396163600,6.69716357421875,-0.9731465287417173,0.9429293773934244,-0.2386044657185673,0.3588671088218689,0.471525639295578,0.1021864712238311
1772807905416211700,6.717211669921875,-0.1319388654619455,0.5921323646903037,0.1394386831654235,0.3352051973342895,0.3650620579719543,0.2524353563785553
1772807905436260600,6.737260498046875,0.4099368916749954,0.652401539953053,0.0636235271919518,0.3274564146995544,0.1160403862595558,0.2348529249429702
1772807905456309800,6.757309814453125,0.6586041939854621,0.2926866229094564,0.0168846819685772,0.3063201904296875,-0.1488728523254394,0.181232139468193
1772807905476358700,6.777358642578125,0.6018097090959549,0.2538581489518284,-0.1777957402190193,0.2711263298988342,-0.3221460878849029,0.0417139455676078
1772807905496406800,6.79740673828125,0.6049602820813655,0.5303792344801127,-0.4339836838252842,0.1810027956962585,-0.271003246307373,-0.2087334096431732
1772807905516455700,6.81745556640625,0.4582335973322391,0.6929661900535226,-0.3702357265360653,0.1057009473443031,-0.0757169798016548,-0.3724536597728729
1772807905536504800,6.8375048828125,0.3876543327182531,1.0154999619551002,-0.3373276556033641,0.1047061905264854,0.1476637572050094,-0.385742574930191
1772807905556552700,6.857552734375,0.5043973826140165,1.1013090905353426,-0.1978713637160137,0.0761009827256202,0.266467809677124,-0.3576014637947082
1772807905576601900,6.877601806640625,0.5884077912092208,1.1091650647327302,-0.1276771163642406,0.0001348408404737,0.2432249784469604,-0.3474048972129822
1772807905596650500,6.897650390625,0.8803817358046769,0.8434130643695592,-0.034180976945348,-0.0181270390748977,0.2525800466537475,-0.3296560645103454
1772807905616698600,6.91769873046875,0.8471925829082727,0.5557835787191987,0.2175932053392753,-0.0064555052667856,0.1354534924030304,-0.3189761936664581
1772807905636747500,6.93774755859375,0.8077344327449798,0.4057837175182998,0.4321105834297835,-0.0314766839146614,-0.0393520072102546,-0.3025650084018707
1772807905656796700,6.957796630859375,0.9285738120436668,0.2582208742059767,0.5139763446791097,-0.0773497447371482,-0.0888560116291046,-0.2090925425291061
1772807905676844500,6.977844482421875,0.959914706724882,0.0027577742755413,0.6533358251284808,-0.170119971036911,-0.0379366092383861,-0.0843851342797279
1772807905696893700,6.997893798828125,0.8284843753069638,-0.1465370073959231,0.6629466071039438,-0.2228145152330398,0.0109659675508737,0.0805383175611496
1772807905716942800,7.01794287109375,0.6969096669822931,-0.2889699404738843,0.6240208833169192,-0.2083029747009277,-0.0336996763944625,0.2639213800430298
1772807905736990700,7.03799072265625,0.6074819095134735,-0.6161812026672064,0.6178731012769043,-0.1571022272109985,-0.1390126943588256,0.4281874299049377
1772807905757039900,7.058039794921875,0.4387117352604865,-0.8052724265456199,0.47563247590065,-0.1353567838668823,-0.2832139730453491,0.5204364061355591
1772807905777088800,7.0780888671875,0.2860726115971803,-0.9783981656596064,0.3844779311718418,-0.1208308562636375,-0.3704306781291961,0.5246030688285828
1772807905797137000,7.098136962890625,0.1435141524434089,-0.9001099341034888,0.3103716980081051,-0.0773492231965065,-0.307094395160675,0.5138421058654785
1772807905817185500,7.118185546875,0.0836217015385627,-0.8998032062418758,0.1618483025679364,-0.0840308517217636,-0.1422589123249054,0.516150176525116
1772807905837234700,7.138234619140625,-0.0170060798585414,-0.9113673873074352,0.3975741806428879,-0.0724727213382721,0.0073883733712136,0.5084107518196106
1772807905857283600,7.15828369140625,-0.1474444776296615,-0.9663460549466312,0.5396063143676146,0.0284842271357774,0.0732473731040954,0.5127116441726685
1772807905877331700,7.178331787109375,-0.0052659577041864,-1.0251404814817011,0.5562883133709431,0.0885363295674324,0.1211893036961555,0.5145726799964905
1772807905897380600,7.198380615234375,0.0153343472540378,-0.969439490917325,0.6021010932579636,0.0566012226045131,0.0861440002918243,0.5239763259887695
1772807905917429800,7.2184296875,-0.0190361243814229,-0.8424271220721304,0.5843119001977145,0.0965972542762756,0.0952680334448814,0.5589751601219177
1772807905937478100,7.23847802734375,0.1488841550439596,-0.7096409921310841,0.4390538266964257,0.1803587526082992,0.2150918990373611,0.6396685838699341
1772807905957527000,7.258527099609375,0.0022679449319839,-0.7332230893790721,0.4103154426638036,0.149480938911438,0.1679154932498932,0.7265130877494812
1772807905977576000,7.278575927734375,-0.0277946003764867,-0.3972206179648637,0.1512544643718749,0.1723515391349792,0.0689744129776954,0.7843531966209412
1772807905997623800,7.298623779296875,-0.1245329731196165,-0.2217085682362317,0.0012044621526263,0.184243619441986,-0.052132248878479,0.8324976563453674
1772807906017673000,7.3186728515625,-0.3879144449591636,-0.1078375666454434,-0.0343476615820312,0.1593987643718719,-0.1967517584562301,0.8590235114097595
1772807906037721900,7.338721923828125,-0.445309233829379,0.2412432897895574,-0.1535747788119129,0.1744714975357055,-0.2602391541004181,0.8970640897750854
1772807906057770000,7.35877001953125,-0.8735311392575502,0.6309374577723443,-0.6308553324468433,0.0659999251365661,-0.4304880797863006,0.9089972376823424
1772807906077819000,7.37881884765625,-1.0168576601743695,0.6382578637883066,-0.9175246678281574,-0.0055399686098098,-0.4463236033916473,0.8035144805908203
1772807906097868000,7.398867919921875,-0.7273457217782735,0.5860846089586615,-0.9012877457112072,0.1670083701610565,-0.0795938372611999,0.6486561894416809
1772807906117916000,7.418916015625,-0.2231780562669038,0.67205944949463,-1.0138913577146829,0.4134299457073211,0.3438020944595337,0.5354976058006287
1772807906137965000,7.438965087890625,0.255063725349307,0.4984226921185851,-0.836294756796956,0.3995523154735565,0.3912510573863983,0.4438886344432831
1772807906158014000,7.459013916015625,0.3932049525827169,0.1521793971970677,-0.3291131502918898,0.178099900484085,0.100362405180931,0.3230012655258178
1772807906178062800,7.479062744140625,0.2251847199141979,0.1964598529502749,-0.3876554652294143,-0.1007052809000015,-0.26901575922966,0.0867658406496048
1772807906198111000,7.499111083984375,-0.112829091322422,0.4772589080587029,-0.4783996755916625,-0.2787906527519226,-0.3433507084846496,-0.1922852993011474
1772807906218159900,7.519159912109375,-0.1542600028634071,0.7968763541221618,-0.4356814276538789,-0.2859989702701568,-0.0237076748162508,-0.3163836598396301
1772807906238209000,7.539208984375,-0.168227153417468,0.8070391439571977,-0.2792570498308167,-0.1965094357728958,0.3802608251571655,-0.2019873261451721
1772807906258257000,7.5592568359375,-0.0560708467900753,0.6998008583791554,-0.0827531568094156,-0.0507106594741344,0.5568323135375977,0.0292691402137279
1772807906278306000,7.57930615234375,0.3130816145539283,0.4242557782761752,-0.0692713603531941,0.1114562973380088,0.4508697092533111,0.1510681807994842
1772807906298355000,7.59935498046875,0.6599807430356741,0.2301509640194475,0.0064882386412937,0.2252091318368911,0.2183743864297866,0.1612189710140228
1772807906318403000,7.619403076171875,1.247403614860773,0.023292028260231,-0.1388074177908711,0.2603114247322082,0.1342736333608627,0.1835387051105499
1772807906338452000,7.639451904296875,1.489012230831385,-0.1014598483070731,-0.2725820107799954,0.1769309192895889,0.150436982512474,0.2159910947084427
1772807906358500900,7.6595009765625,1.5194395177990196,-0.0837362678289413,-0.4826171471562236,0.0572924017906188,0.202851191163063,0.2209445834159851
1772807906378548700,7.679548828125,1.1575742908537388,-0.0158203772053122,-0.6173969351325184,-0.0505446270108222,0.1423085331916809,0.1679067462682724
1772807906398598000,7.699597900390625,0.5701210238903761,0.0635609102845192,-0.5953407322775572,-0.1020652130246162,-0.0360865443944931,0.1202107891440391
1772807906418647000,7.71964697265625,0.1003150621861219,0.3227013835534453,-0.7102195226714014,-0.056209672242403,-0.1225482523441314,0.1388370841741562
1772807906438695000,7.73969482421875,0.0435287606030702,0.527326715041697,-0.8067381151840091,0.0028769671916961,-0.0218931976705789,0.1901531815528869
1772807906458744000,7.759744140625,0.0431628499001264,0.4974526780426502,-0.9093340548489244,-0.0271500423550605,0.1021163240075111,0.2631852328777313
1772807906478793000,7.77979296875,0.1190869826734065,0.4312938602194189,-0.9487868712499736,-0.0487376563251018,0.1770585775375366,0.329949289560318
1772807906498841000,7.799841064453125,-0.1422767196029424,0.267867092821002,-0.7983128897313028,0.0165343023836612,0.0892914831638336,0.396756649017334
1772807906518890000,7.819889892578125,-0.0803571467846632,0.4299026981219649,-0.9210348679061978,0.1552590876817703,0.0072366981767117,0.4604946076869964
1772807906538939000,7.83993896484375,-0.0013256956458091,0.2390513327032327,-0.991448858955875,0.1673685908317566,-0.0528212003409862,0.4818795025348663
1772807906558987800,7.85998779296875,-0.0190542445600032,0.1109375784873962,-0.9189793236158788,0.1012479215860366,-0.0689673796296119,0.4618187844753265
1772807906579036000,7.880035888671875,-0.1577601199388504,0.0294365223646163,-0.8058595057185739,0.076849527657032,-0.0304646976292133,0.4630718231201172
1772807906599084800,7.900084716796875,-0.3376806337594986,0.0751323978736996,-0.8619271376382559,-0.0073995711281895,-0.0609720051288604,0.4231190979480743
1772807906619134000,7.920134033203125,-0.5295569583117962,0.0272372587546706,-0.5984005947722122,-0.1218176931142807,-0.1294046640396118,0.3120097815990448
1772807906639181800,7.940181884765625,-0.743835084286332,0.304042568051815,-0.2759294763106852,-0.1521598249673843,-0.1195559278130531,0.1714509725570678
1772807906659231000,7.96023095703125,-0.6632084729105234,0.4283206896275282,0.0054290941103361,-0.1110966503620147,0.0274919308722019,0.1328315883874893
1772807906679280000,7.980280029296875,-0.4722112692803144,0.39058804808259,0.378398428595066,-0.131977304816246,0.1184164807200431,0.2065997421741485
1772807906699328000,8.000327880859375,-0.6229343301892281,0.1650941160887479,0.5341280656196177,-0.2596290111541748,-0.0525941476225853,0.298874020576477
1772807906719377200,8.020377197265624,-1.1194728159964085,0.0966913187310099,0.4960340799489989,-0.3550977706909179,-0.3695451617240906,0.3020320832729339
1772807906739425800,8.04042578125,-1.2476485295325517,0.3705608668372034,0.100317509871535,-0.3269189000129699,-0.422900915145874,0.1873829960823059
1772807906759474000,8.060473876953125,-1.0906640701413155,0.286191707932204,0.136979563042894,-0.2344340234994888,-0.1377209275960922,0.0788355618715286
1772807906779522800,8.080522705078126,-0.4419967482805252,0.2302183301672339,0.4229841143725439,-0.0260339938104152,0.3339589238166809,0.0863445475697517
1772807906799572000,8.100572021484375,-0.1125602112531661,0.1575103829614818,0.8208353949237615,0.1577637642621994,0.429347425699234,0.2201415598392486
1772807906819619800,8.120619873046875,0.4139315142691135,-0.0440564377389848,0.9424351641356944,0.2408811748027801,0.1940350532531738,0.3616880774497986
1772807906839669000,8.1406689453125,0.7885568540662526,-0.1499164207011461,0.9180940652139484,0.2285189181566238,-0.1315451562404632,0.3000521957874298
1772807906859718100,8.16071826171875,1.14321141898036,-0.0688587244316935,0.8679007321551442,0.1060753241181373,-0.2820362150669098,0.073920615017414
1772807906879766000,8.18076611328125,0.8900701861262321,-0.0343758784629404,0.9495122629150748,-0.0612926371395587,-0.3661503493785858,-0.0566844008862972
1772807906899815200,8.200815185546874,0.6254261470049619,0.2227783894248306,0.807623958107829,-0.1485433429479599,-0.295697808265686,-0.0248926989734172
1772807906919864000,8.220864013671875,0.2089706672161817,0.1925150608472526,0.6426438968528062,-0.1687356531620025,-0.1782436221837997,0.0765667632222175
1772807906939912000,8.240911865234375,0.0647965895593166,0.1270866031251847,0.4233523631630465,-0.1048370599746704,-0.0461486764252185,0.1220056787133216
1772807906959960800,8.2609609375,-0.0927542715430259,0.0737475193865597,0.2629246679827571,0.0575024150311946,-0.0290423333644866,0.1062555909156799
1772807906980009700,8.281009765625,0.0982329952150583,-0.0325251360297203,0.0496845798190683,0.173527717590332,-0.0403009057044982,0.015189217403531
1772807907000057900,8.301057861328125,0.558048893302679,-0.2867481727711856,0.1031354533690959,0.176993265748024,0.0113161569461226,-0.0934489518404007
1772807907020106800,8.321106689453124,0.6969499989926815,-0.3581532206848263,0.2306784950248896,0.0905284434556961,0.0259564127773046,-0.1705649495124817
1772807907040156000,8.341156005859375,0.6328776320546865,-0.4002187768675386,0.2811700803779065,0.0607087202370166,0.0158409513533115,-0.1874511986970901
1772807907060203800,8.361203857421875,0.5250245755791664,-0.3140450527586043,0.2452992506494745,0.0807441771030426,-0.0005049813189543,-0.2333009243011474
1772807907080253000,8.3812529296875,0.5040092600792646,-0.3310575623579323,0.3788320707719773,0.0925574079155922,0.0068218074738979,-0.2781194746494293
1772807907100301800,8.4013017578125,0.5772089363247156,-0.2214730059146881,0.3234246197940781,0.0885246098041534,0.0392912440001964,-0.2802605628967285
1772807907120350700,8.421350830078126,0.5852730003148316,-0.277194016353786,0.347638475606963,0.0678974017500877,0.036624327301979,-0.2617348730564117
1772807907140398800,8.44139892578125,0.3898012816190719,-0.283728971080482,0.3407082744849845,0.0322874188423156,-0.0283550340682268,-0.3059786856174469
1772807907160447700,8.46144775390625,0.3292769625514745,-0.3392664416462183,0.4152616303617134,0.0644387975335121,-0.0162543039768934,-0.3213965594768524
1772807907180497000,8.481496826171876,0.3639250820845365,-0.3124251964718103,0.4548446855463087,0.1210206225514411,0.0431375578045845,-0.2821491956710815
1772807907200544800,8.501544677734374,0.3061848407775163,-0.297953311266005,0.515180057913065,0.1153519451618194,0.0183387007564306,-0.2431579232215881
1772807907220594000,8.521593994140625,0.183652686086297,-0.2094943988293409,0.463151764512062,0.0820637196302414,-0.0560063496232032,-0.2284231483936309
1772807907240642800,8.541642822265626,0.0691810882538557,-0.1677417079880833,0.4262726345239206,0.056229006499052,-0.0795290321111679,-0.2610666751861572
1772807907260691000,8.56169091796875,0.0004553425520658,0.0203650348976254,0.3723846116656437,0.0532965660095214,-0.0238646790385246,-0.3155860304832458
1772807907280739800,8.58173974609375,0.2293254729807376,0.0923126652553677,0.5221096014479175,0.0770557448267936,0.1081616207957267,-0.3295352160930633
1772807907300789000,8.6017890625,0.3919622590452432,0.1012766006946563,0.7617632474258541,0.0310871005058288,0.1598085761070251,-0.3097809851169586
1772807907320836900,8.6218369140625,0.4154565318793058,0.2095350231006741,0.9567929214425384,-0.1044578254222869,0.0471354648470878,-0.3129223585128784
1772807907340885800,8.6418857421875,0.2363666236639022,0.015938158366084,0.9052956661783158,-0.2445628494024276,-0.1372381150722503,-0.2571474909782409
1772807907360934700,8.6619345703125,0.0384685546040535,0.2612219557181,0.4157970889452844,-0.4180413484573364,-0.2983816266059875,-0.2139212787151336
1772807907380982800,8.681982666015625,-0.3830874631941318,0.2170147113315761,-0.0240356131691485,-0.6310503482818604,-0.3664904832839966,-0.2321265637874603
1772807907401031700,8.70203173828125,-0.813892370852828,0.0980740052610635,-0.1073181458812207,-0.6977910399436951,-0.2277075499296188,-0.3206561803817749
1772807907421080800,8.722080810546874,-1.262400108462572,0.185617410288006,-0.096178071979247,-0.4922516047954559,0.009275659918785,-0.3368653059005737
1772807907441128700,8.742128662109375,-1.2716373078852892,0.1410869252964854,-0.0329607509680092,-0.1295707076787948,0.1971639692783355,-0.1993284374475479
1772807907461177900,8.762177734375,-0.9932359615683556,0.0813983264006674,0.023774478014931,0.1113085523247718,0.1531486511230468,-0.0549066513776779
1772807907481227000,8.78222705078125,-0.5246253471285105,-0.0020279986962676,-0.0449611680263653,0.1823605000972747,-0.0202023275196552,-0.0420392528176307
1772807907501275000,8.80227490234375,-0.2225859355926513,-0.0717883481428027,-0.1431810480315238,0.1426781564950943,-0.1221115291118621,-0.1249245703220367
1772807907521324000,8.822323974609375,-0.2364157235026359,0.117804833908379,-0.3649378758562728,0.0837530270218849,-0.12031040340662,-0.2239991724491119
1772807907541372700,8.84237255859375,-0.0673497811734676,0.3530534133277833,-0.6016727117780596,0.0120978290215134,0.0540301762521266,-0.2873023450374603
1772807907561420800,8.8624208984375,-0.0674327832818031,0.3325141909070312,-0.5010868698265403,-0.0634297206997871,0.2147784084081649,-0.2961180508136749
1772807907581469700,8.8824697265625,-0.109552261608839,0.3505193648055195,-0.4055414331950247,-0.0757479518651962,0.2367593050003051,-0.2872892022132873
1772807907601518800,8.902518798828124,-0.0557546204477548,0.3224116068266332,-0.3497986127829179,0.0299749132245779,0.2048290222883224,-0.2500274181365967
1772807907621567700,8.922567626953125,0.3141349229991436,0.3110397334627807,-0.2905337009255774,0.1297084838151931,0.2034085094928741,-0.2369709461927414
1772807907641616000,8.942615966796875,0.6874865895986556,0.1848284518674016,-0.10899844538467,0.1494476348161697,0.2079887688159942,-0.2236982434988021
1772807907661664800,8.962664794921874,0.9958505279809235,0.0987093805551528,0.0607475242310669,0.1461388766765594,0.2661840915679931,-0.1755920648574829
1772807907681714000,8.9827138671875,1.1531307554483412,0.0655604135386645,0.1572261957252398,0.164262518286705,0.2763495147228241,-0.0804442688822746
1772807907701762000,9.002761962890625,1.194299216660857,-0.0717268272139132,0.2646604422667994,0.1545696407556533,0.1498616337776184,0.0545820370316505
1772807907721811000,9.02281103515625,1.0196505057632923,-0.2055807325169444,0.265379404191114,0.11048474162817,-0.09247737377882,0.1793119609355926
1772807907741859800,9.04285986328125,0.8557511524170637,-0.3077430300049483,0.1611883590881712,0.0790684074163436,-0.2633244693279266,0.2320284694433212
1772807907761907700,9.06290771484375,0.5279454314619303,-0.3139300480768084,-0.0309334555246401,0.0546659231185913,-0.3337037265300751,0.1942199766635894
1772807907781956900,9.082956787109374,0.3361713982403278,-0.201594000968337,-0.5558339937321841,0.0110836150124669,-0.2150299847126007,0.1018018350005149
1772807907802005800,9.103005859375,0.2076753667086362,-0.2481733813136815,-0.5493197164673358,-0.0294853150844573,0.0483538620173931,-0.0200542584061622
1772807907822055000,9.123054931640626,-0.2248819375753402,-0.2322540737785398,-0.2989872756899334,0.0169033966958522,0.1240892857313156,-0.0551663190126419
1772807907842102800,9.143102783203124,-0.4041770129740238,-0.169195121666789,-0.2225731674426235,0.197318285703659,0.0909617468714714,0.0278602391481399
1772807907862152000,9.16315185546875,-0.0962935515850782,-0.2477083941504359,0.0976392488393001,0.3499754965305328,0.1138292327523231,0.1069824397563934
1772807907882200800,9.183200927734376,0.1247854865759611,-0.414292456535995,0.0504680492138024,0.2846468687057495,0.134866401553154,0.182694673538208
1772807907902249000,9.2032490234375,0.2670382407814264,-0.3389844098344445,-0.2482011826360598,0.1440669298171997,0.1887401342391967,0.2082345783710479
1772807907922297900,9.2232978515625,0.077476038390398,-0.3375383026793599,-0.2355660113381222,0.0639823526144027,0.173095166683197,0.118389718234539
1772807907942346200,9.24334619140625,-0.0934375776320695,-0.3947007440984248,-0.1533638942738995,0.0661576017737388,0.2324750125408172,0.0482484698295593
1772807907962394000,9.26339404296875,-0.3036515229076147,-0.2221536816552281,-0.2367684641967527,0.1487340480089187,0.2879456281661987,0.1150278747081756
1772807907982443300,9.283443359375,-0.473344072702527,-0.2129465851098299,-0.0480857571871485,0.2433932274580001,0.275668740272522,0.226906731724739
1772807908002492200,9.3034921875,-0.4031231200069188,-0.2891872364863753,0.0384000742114149,0.2970229387283325,0.2442416548728943,0.3782359361648559
1772807908022540300,9.323540283203124,-0.1995610338360071,-0.4652008059963584,0.0903393376220949,0.2705918550491333,0.1902532577514648,0.4971530139446258
1772807908042589200,9.343589111328123,-0.1356429806768894,-0.6198427939146757,0.2385453559424728,0.158471941947937,0.034641433507204,0.5483702421188354
1772807908062638300,9.363638427734376,-0.2743435953587293,-0.7801426614642143,-0.0951007798702456,-0.0158709548413753,-0.0567238181829452,0.5713021159172058
1772807908082687500,9.3836875,-0.9782932439804076,-0.3947939753398299,-0.3556885841369628,-0.0706045031547546,-0.2100638151168823,0.4234562516212463
1772807908102735400,9.4037353515625,-0.6990519397079944,-0.2242547455877065,-0.5957405452501029,-0.0729763954877853,-0.0008923955028876,0.1382962018251419
1772807908122784300,9.4237841796875,-0.947415875157714,0.1338929221391677,-0.5415931042706593,-0.1324460953474044,0.1964722573757171,-0.049442458897829
1772807908142833200,9.443833251953125,-1.134268818590045,0.458397847983241,-0.2800603107714094,-0.1773767173290252,0.2401744723320007,-0.1081570833921432
1772807908162881300,9.46388134765625,-0.8958031768202781,0.5872796639621257,0.1925881991486996,-0.065095879137516,0.3139262795448303,-0.0368681102991104
1772807908182930200,9.48393017578125,-0.3350760042190551,0.7440569103434681,0.4095765704626217,0.1125188246369361,0.3977285325527191,0.1500677317380905
1772807908202979300,9.503979248046877,0.4054477635622024,0.822922649526596,0.4538639308806508,0.1919739246368408,0.3662451803684234,0.3007017374038696
1772807908223028200,9.5240283203125,1.2341747154533862,0.7421522457659244,0.322319727292098,0.109237253665924,0.3296265602111816,0.31356081366539
1772807908243076400,9.544076416015624,1.0633598836302756,0.5146618792578578,0.6493205250725149,-0.0557849742472171,0.0807463079690933,0.2251861840486526
1772807908263125500,9.56412548828125,0.6577502075046301,0.6937894891351462,0.7983711957897991,-0.0795479342341423,-0.2076973468065261,0.1683956086635589
1772807908283174400,9.58417431640625,0.6627835254967213,0.8484832072407007,0.5498869949612766,-0.0300420969724655,-0.1625259965658188,0.2012769132852554
1772807908303222500,9.604222412109374,0.5107669176459312,0.9301438378393648,0.46012828850504,-0.0597812794148922,-0.145065352320671,0.2344234436750412
1772807908323271200,9.624271240234377,0.202729726999998,0.8019856599599122,0.5322132815068588,-0.1974050551652908,-0.3242622017860412,0.2101807594299316
1772807908343320300,9.6443203125,0.2854571100473403,0.7841802464172244,0.4745505624154582,-0.2057539224624633,-0.3168026804924011,0.1609043478965759
1772807908363368200,9.6643681640625,0.7029366721868514,0.7816136107996106,0.1166106830872129,-0.0874036476016044,-0.0021455448586493,0.1358407884836197
1772807908383417300,9.684417236328123,0.9422504552185534,0.8728162689864635,-0.0242315216170274,0.0210915617644786,0.2829430401325226,0.0744152441620826
1772807908403466200,9.70446630859375,1.115047985291481,0.5756316040053964,0.3932092634316533,-0.0345415100455284,0.281959593296051,0.0126500008627772
1772807908423515400,9.724515380859376,1.3977818078547717,0.2662470904037356,0.3346546735344454,-0.2295259088277816,0.2677878141403198,0.0184899419546127
1772807908443563300,9.744563232421877,1.725673453527689,0.3244803759247064,0.5820787343181669,-0.1460642963647842,0.1550233066082,-0.0971661061048507
1772807908463612400,9.7646123046875,0.5092687880426645,-0.4258192282006144,1.0253970135260373,-0.3021859526634216,-0.4420801997184753,-0.109773002564907
1772807908483661300,9.784661376953125,0.7897510322868824,-0.0704047848299145,0.6689235626216977,-0.4774685502052307,-0.4296463429927826,-0.0474867820739746
1772807908503709400,9.80470947265625,0.3419441364228725,0.0067572191752493,0.4274478157831355,-0.5639467239379883,-0.2045501172542572,-0.0191920734941959
1772807908523758300,9.82475830078125,-0.4984148010730743,-0.1018925406359136,0.6016158304916694,-0.4991638958454132,-0.0700680091977119,-0.0148110352456569
1772807908543807200,9.84480712890625,-0.535469397225976,-0.0566201512359082,0.6121894296173006,-0.1775476336479187,-0.0388227701187133,0.0405073836445808
