time,seconds_elapsed,accel_z,accel_y,accel_x,gyro_x,gyro_y,gyro_z
1772634179674601200,0.318601318359375,-0.0096647143363952,0.044198989868164,0.029751718044281,0.011185267008841,-0.0364852771162986,-0.0288952738046646
1772634179694592500,0.338592529296875,-0.0312369465827941,0.049025535583496,0.0600920915603637,0.0106526352465152,-0.0410126447677612,-0.0275636930018663
1772634179714583800,0.358583740234375,-0.0338541269302368,0.0823755264282226,0.1073559522628784,0.0053263176232576,-0.0388821177184581,-0.0272973775863647
1772634179734574800,0.378574951171875,-0.0308045744895935,0.058420181274414,0.105705976486206,-0.0050600017420947,-0.0284957997500896,-0.0264984294772148
1772634179754566100,0.398566162109375,-0.0179309248924255,0.0395221710205078,0.1262467503547668,-0.0037284223362803,-0.0386158041656017,-0.0174436904489994
1772634179774557400,0.418557373046875,-0.0240170359611511,0.073369026184082,0.1267517209053039,0.0026631588116288,-0.0553937032818794,-0.0094542140141129
1772634179794548700,0.438548828125,-0.0011498928070068,0.078470230102539,0.1040461659431457,0.0010652635246515,-0.0647147595882415,-0.0097205294296145
1772634179814539800,0.458539794921875,0.0224862098693847,0.0215053558349609,0.1032961010932922,0.0031957905739545,-0.0703073889017105,-0.0097205294296145
1772634179834531000,0.478531005859375,0.0075156688690185,0.0029296875,0.1633211374282837,0.0074568446725606,-0.0679105520248413,0.0022636849898844
1772634179854522400,0.4985224609375,0.039215862751007,-0.0061883926391601,0.2383074760437011,0.0042610540986061,-0.0564589649438858,-0.0006657897029072
1772634179874513700,0.518513671875,0.0155560970306396,0.1320209503173828,0.3070346713066101,0.0029294746927917,-0.0428768582642078,-0.0145142152905464
1772634179894504700,0.538504638671875,-0.0106568336486816,0.3082380294799804,0.4447243213653564,0.0029294746927917,-0.0383494868874549,-0.0185089539736509
1772634179914496000,0.55849609375,0.045628011226654,0.2687883377075195,0.4258466958999634,0.0013315794058144,-0.0284957997500896,-0.0153131633996963
1772634179934487300,0.5784873046875,0.0963334441184997,0.1102552413940429,0.2600938677787781,-0.0018642111681401,-0.0303600095212459,-0.0222373753786087
1772634179954478300,0.598478271484375,0.1068522334098815,-0.1664667129516601,0.1365726590156555,-0.0013315794058144,-0.0391484349966049,-0.0291615892201662
1772634179974469600,0.6184697265625,0.0687766671180725,-0.2768135070800781,0.1526899337768554,0.0023968429304659,-0.035420011729002,-0.0302268527448177
1772634179994461000,0.6384609375,0.0491721630096435,-0.1719017028808593,0.2147996425628662,0.0205063223838806,-0.0090547399595379,-0.0241015870124101
1772634180014452200,0.6584521484375,0.004202663898468,0.0518341064453125,0.2933347821235657,0.0221042186021804,0.0458063334226608,0.0235689561814069
1772634180034443300,0.678443359375,-0.0300869941711425,0.1788949966430664,0.3508574962615967,-0.0023968429304659,0.092677928507328,0.0629837065935134
1772634180054434600,0.6984345703125,0.0009600520133972,0.067026138305664,0.5139226913452148,-0.0210389550775289,0.1427453160285949,0.0536626502871513
1772634180074425900,0.71842578125,-0.0518020987510681,-0.1631898880004882,0.4009286165237427,-0.0186421126127243,0.1587242633104324,0.0211721118539571
1772634180094417700,0.738417724609375,0.0608255267143249,-0.2006206512451172,0.1942256689071655,0.0058589493855834,0.145674780011177,-0.0017310532275587
1772634180114410800,0.75841064453125,0.0788221955299377,0.0016775131225585,0.1191161274909973,0.035420011729002,0.1392832100391388,-0.010785792954266
1772634180134404000,0.778404052734375,0.0995919108390808,0.1369304656982422,0.0274227857589721,0.0503337010741233,0.1427453160285949,-0.0123836882412433
1772634180154397200,0.798397216796875,0.1465461254119873,0.0866012573242187,-0.1710001230239868,0.0332894846796989,0.1749695390462875,0.0363521166145801
1772634180174390300,0.818390380859375,0.172983705997467,0.0644025802612304,-0.3101453781127929,0.011185267008841,0.2287653386592865,0.1063931956887245
1772634180194383400,0.83838330078125,0.1750182509422302,0.08917236328125,-0.3258075714111328,0.0119842141866683,0.2663158774375915,0.0533963330090045
1772634180214376400,0.85837646484375,0.1221315860748291,0.1812057495117187,-0.3409491181373596,-0.0029294746927917,0.3185137808322906,-0.0235689561814069
1772634180234369500,0.87836962890625,0.1731629967689514,0.1340265274047851,-0.3538566827774048,-0.0071905287913978,0.3400853872299194,-0.0688426569104194
1772634180254362600,0.898362548828125,0.1233136653900146,0.0252714157104492,-0.330614686012268,0.0018642111681401,0.3552653789520263,-0.0832237154245376
1772634180274356000,0.91835595703125,0.0108129382133483,0.0598163604736328,-0.4110190868377685,0.0122505305334925,0.3456780016422272,-0.0960068777203559
1772634180294349000,0.93834912109375,-0.0222909450531005,0.1750164031982422,-0.4577935338020324,0.0162452682852745,0.3299653828144073,-0.1042626649141311
1772634180314342100,0.958342041015625,0.0142715573310852,0.1227855682373046,-0.4317346215248108,0.0364852771162986,0.2820285260677337,-0.1093226671218872
1772634180334335200,0.978335205078125,0.096708059310913,-0.0250015258789062,-0.3226251602172851,0.0506000183522701,0.2343579828739166,-0.1034637168049812
1772634180354328300,0.998328369140625,-0.0020175576210021,0.0706129074096679,-0.3266859650611877,0.0500673875212669,0.2000032216310501,-0.0869521349668502
1772634180374321400,1.0183212890625,-0.1149037480354309,0.2227392196655273,-0.2918339371681213,0.0458063334226608,0.1328916251659393,-0.0861531868577003
1772634180394314500,1.038314453125,-0.191115140914917,0.2268857955932617,-0.2760655283927917,0.0452736988663673,0.0780305564403534,-0.0986700356006622
1772634180414307800,1.058307861328125,-0.1299012303352356,0.0733623504638671,-0.1833710074424743,0.0511326491832733,0.0580568611621856,-0.1005342453718185
1772634180434301000,1.078301025390625,-0.0827540755271911,0.0387172698974609,-0.1096462607383728,0.0593884401023387,0.0396810658276081,-0.0938763469457626
1772634180454294000,1.0982939453125,0.0144294500350952,0.0180635452270507,-0.0787088871002197,0.0647147595882415,0.0058589493855834,-0.0821584463119506
1772634180474287000,1.118287109375,-0.0666303038597107,0.0359144210815429,-0.0702093243598938,0.0617852844297885,-0.0569915995001792,-0.0643152818083763
1772634180494280200,1.1382802734375,-0.1638910174369812,0.0876741409301757,-0.0152063965797424,0.0588558092713356,-0.1041295081377029,-0.0366184338927269
1772634180514273300,1.158273193359375,-0.1553424000740051,0.1346673965454101,0.1071335077285766,0.0412789620459079,-0.1280979365110397,-0.0126500045880675
1772634180534266400,1.178266357421875,-0.194299578666687,0.1666860580444336,0.1203550100326538,0.0114515833556652,-0.1486042588949203,0.0448742248117923
1772634180554259700,1.198259765625,-0.1641530394554138,0.0947990417480468,0.0943853259086608,0.0197073742747306,-0.1912147998809814,0.0576573871076107
1772634180574252800,1.218252685546875,-0.1381935477256775,0.0080728530883789,0.0395221710205078,0.0276968516409397,-0.2375537604093551,0.0491352789103984
1772634180594245600,1.23824560546875,-0.1412258744239807,-0.0498876571655273,-0.0117309689521789,0.0154463211074471,-0.2532663941383362,0.0387489609420299
1772634180614238200,1.25823828125,-0.1032195687294006,-0.0741376876831054,-0.0187056064605712,0.0077231605537235,-0.2524674534797668,0.0422110669314861
1772634180634230500,1.27823046875,-0.0972734093666076,-0.1353073120117187,-0.0527083873748779,0.0095873717218637,-0.2263685017824173,0.0435426458716392
1772634180654223000,1.29822314453125,-0.1140606999397277,-0.0722303390502929,-0.0904653668403625,0.0007989476434886,-0.2069274336099624,0.0387489609420299
1772634180674215400,1.31821533203125,-0.1585515141487121,0.0493640899658203,-0.0281851887702941,-0.0031957905739545,-0.1986716538667678,0.0331563279032707
1772634180694208000,1.3382080078125,-0.1704834103584289,0.1229562759399414,-0.0372408628463745,-0.0034621064551174,-0.1941442787647247,0.0291615892201662
1772634180714200600,1.35820068359375,-0.1956287026405334,0.0908756256103515,-0.0277017354965209,0.0039947382174432,-0.1973400712013244,0.0179763212800025
1772634180734193000,1.37819287109375,-0.1859099268913269,0.0967969894409179,0.0112058520317077,0.002130527049303,-0.206661120057106,-0.0171773750334978
1772634180754185500,1.398185546875,-0.0815608501434326,0.0881528854370117,0.1000129580497741,-0.0050600017420947,-0.2125200778245926,-0.0629837065935134
1772634180774178000,1.418177978515625,-0.1522675156593322,0.0604801177978515,0.1118994355201721,-0.0093210563063621,-0.2183790206909179,-0.0920121371746063
1772634180794170400,1.43817041015625,-0.1874101758003235,-0.0101232528686523,0.0609424710273742,-0.0050600017420947,-0.2143842875957489,-0.0997352972626686
1772634180814163000,1.458162841796875,-0.113915741443634,0.034097671508789,0.0065375566482543,-0.0101200034841895,-0.2125200778245926,-0.0810931846499443
1772634180834155300,1.4781552734375,-0.08964604139328,0.1209230422973632,-0.0017887353897094,-0.0157126374542713,-0.2000032216310501,-0.0555268600583076
1772634180854147800,1.49814794921875,0.0604016780853271,0.0700769424438476,0.0010777115821838,-0.0130494777113199,-0.1933453232049942,-0.0416784361004829
1772634180874140400,1.518140380859375,0.1134817600250244,0.0472393035888671,-0.0289181470870971,-0.0178431645035743,-0.185355857014656,-0.0414121188223362
1772634180894132700,1.5381328125,0.1163930892944336,0.0481119155883789,-0.0317850112915039,-0.0247673764824867,-0.1691105812788009,-0.045939490199089
1772634180914125300,1.558125244140625,0.0990087985992431,0.0584802627563476,0.0404587984085083,-0.023169482126832,-0.1536642611026764,-0.0440752767026424
1772634180934118000,1.578117919921875,0.0014076232910156,0.106842041015625,0.0254073143005371,-0.031691588461399,-0.141680046916008,-0.0307594835758209
1772634180954110200,1.598110107421875,0.0198215246200561,0.0749950408935546,0.0393836498260498,-0.0458063334226608,-0.1446095257997512,-0.0193079020828008
1772634180974102800,1.618102783203125,0.0410875082015991,0.0279979705810546,0.1252163052558899,-0.0458063334226608,-0.1821600645780563,-0.0147805316373705
1772634180994095000,1.63809521484375,0.0468711853027343,0.0096635818481445,0.1576309204101562,-0.034621063619852,-0.2090579718351364,-0.0142478998750448
1772634181014087700,1.658087646484375,0.0581436157226562,0.0297670364379882,0.2037394642829895,-0.0234357975423336,-0.2266348153352737,-0.019840532913804
1772634181034080300,1.678080322265625,0.0095349550247192,0.0883779525756836,0.2220387756824493,-0.0287621151655912,-0.234091654419899,-0.0283626411110162
1772634181054072600,1.698072509765625,0.0115680694580078,0.0509815216064453,0.2779628336429596,-0.0372842252254486,-0.2277000844478607,-0.0233026389032602
1772634181074065200,1.718065185546875,-0.1017910838127136,0.0661840438842773,0.2713442742824554,-0.0295610632747411,-0.2229063957929611,-0.0264984294772148
1772634181094057700,1.7380576171875,-0.124407947063446,0.071685791015625,0.184472769498825,-0.0197073742747306,-0.2122537642717361,-0.0310258008539676
1772634181114050000,1.758050048828125,-0.1195217967033386,0.0577526092529296,0.1534775495529174,-0.0207726396620273,-0.2016011178493499,-0.0355531685054302
1772634181134042600,1.778042724609375,-0.1285960078239441,0.0293970108032226,0.1862617433071136,-0.0306263267993927,-0.1802958548069,-0.035020537674427
1772634181154035200,1.79803515625,-0.1423977017402649,0.0633964538574218,0.217267245054245,-0.025300009176135,-0.1619200557470321,-0.0374173820018768
1772634181174027800,1.81802783203125,-0.1838521361351013,0.0735616683959961,0.2007518708705902,-0.0141147412359714,-0.1446095257997512,-0.0432763323187828
1772634181194020400,1.838020263671875,-0.1249642968177795,0.0070934295654296,0.1971157193183899,-0.0117178987711668,-0.1249021515250206,-0.0411458052694797
1772634181214012700,1.8580126953125,-0.1949306726455688,-0.0065860748291015,0.1837656199932098,-0.0069242129102349,-0.1012000367045402,-0.0286289565265178
1772634181234005200,1.878005126953125,-0.2296832799911499,0.0422048568725585,0.0976535677909851,-0.0069242129102349,-0.0844221338629722,-0.0201068483293056
1772634181253997800,1.897997802734375,-0.245088517665863,-0.0046424865722656,0.0520879328250885,-0.006657897029072,-0.0780305564403534,-0.0233026389032602
1772634181273990400,1.917990478515625,-0.1610806584358215,-0.0084524154663085,0.0203097462654113,-0.0106526352465152,-0.0599210746586322,-0.0286289565265178
1772634181293983000,1.93798291015625,-0.1401246190071106,0.0115375518798828,0.008242905139923,-0.0103863198310136,-0.0364852771162986,-0.0347542241215705
1772634181313975600,1.9579755859375,-0.1803606748580932,0.0746793746948242,-0.0170151889324188,-0.0138484258204698,0.0013315794058144,-0.0491352789103984
1772634181333968000,1.9779677734375,-0.1630261540412902,0.0610456466674804,-0.0542182028293609,-0.0165115855634212,0.0095873717218637,-0.0608531795442104
1772634181353960400,1.99796044921875,-0.1997305154800415,-0.0246868133544921,-0.0651417672634124,-0.0167779009789228,0.0213052704930305,-0.0632500201463699
1772634181373953000,2.017953125,-0.2083657383918762,-0.0578489303588867,-0.0098010301589965,-0.0085221081972122,0.0191747434437274,-0.0651142299175262
1772634181393945600,2.037945556640625,-0.2438413500785827,-0.0241575241088867,0.021226942539215,-0.011185267008841,0.023169482126832,-0.0603205487132072
1772634181413938000,2.05793798828125,-0.2845272421836853,-0.0480432510375976,0.0625731647014617,-0.0151800047606229,0.0237021129578351,-0.0491352789103984
1772634181433930800,2.0779306640625,-0.2864778637886047,-0.0479974746704101,0.0770613551139831,-0.0079894764348864,0.0183757953345775,-0.0376836955547332
1772634181453923300,2.09792333984375,-0.2792382836341858,0.0519657135009765,0.0740244090557098,-0.0034621064551174,0.0087884236127138,-0.0360858030617237
1772634181473916200,2.117916259765625,-0.2782626152038574,0.1091861724853515,0.0053957998752593,0.0090547399595379,-0.0002663158811628,-0.03795001283288
1772634181493908700,2.13790869140625,-0.253462553024292,0.089670181274414,-0.0899764001369476,0.0130494777113199,-0.0058589493855834,-0.0336889587342739
1772634181513901600,2.157901611328125,-0.2157515883445739,0.0748567581176757,-0.1381488442420959,0.0109189506620168,0.0045273699797689,-0.0283626411110162
1772634181533894100,2.17789404296875,-0.2676891684532165,0.0978612899780273,-0.1543666124343872,0.0130494777113199,0.0229031667113304,-0.02569948323071
1772634181553887000,2.197886962890625,-0.2907496094703674,0.0688800811767578,-0.1427505910396576,0.0199736915528774,0.0327568538486957,-0.0190415848046541
1772634181573879600,2.217879638671875,-0.2429720163345337,0.0494184494018554,-0.116472989320755,0.0237021129578351,0.0351536944508552,-0.0131826363503932
1772634181593872600,2.23787255859375,-0.2336406111717224,0.034611701965332,-0.132095456123352,0.0246342197060585,0.0183757953345775,-0.0083889504894614
1772634181613866500,2.257866455078125,-0.2055534720420837,0.0286817550659179,-0.1415053606033325,0.02569948323071,-0.0026631588116288,-0.0139815835282206
1772634181633860600,2.277860595703125,-0.2214159369468689,0.0825233459472656,-0.1115632355213165,0.0209057964384555,-0.0135821104049682,-0.0185089539736509
1772634181653854500,2.2978544921875,-0.2378835082054138,0.1105527877807617,-0.0452925264835357,0.0211721118539571,-0.0125168468803167,-0.0193079020828008
1772634181673848300,2.317848388671875,-0.2450937628746032,0.2001991271972656,0.026389330625534,0.0254331659525632,-0.0146473739296197,-0.0126500045880675
1772634181693842200,2.33784228515625,-0.1649051308631897,0.294717788696289,0.0663556456565857,0.0274305362254381,-0.0255663245916366,-0.004660528153181
1772634181713836000,2.3578359375,-0.1946231722831726,0.2979946136474609,0.0689116418361663,0.0295610632747411,-0.045540016144514,0.00093210558407
1772634181733830000,2.377829833984375,-0.2161698937416076,0.2631082534790039,0.0854693055152893,0.0330231711268425,-0.070840023458004,0.003328948514536
1772634181753823700,2.39782373046875,-0.0622720718383789,0.3665103912353515,0.1022592484951019,0.0314252749085426,-0.0900147706270217,0.0078563187271356
1772634181773817600,2.417817626953125,-0.0584696531295776,0.5115118026733398,0.2863219082355499,0.0487358048558235,-0.0929442420601844,0.0174436904489994
1772634181793811500,2.4378115234375,0.1594754457473755,0.6655445098876953,0.4884786307811737,0.0529968589544296,-0.0993358269333839,0.0416784361004829
1772634181813805600,2.4578056640625,-0.0426195859909057,0.9048175811767578,0.1960813999176025,0.0359526425600051,-0.0990695059299469,0.0691089704632759
1772634181833799400,2.47779931640625,-0.0940601825714111,1.0098648071289062,-0.3769499659538269,0.0478036999702453,-0.0969389826059341,0.0723047628998756
1772634181853793300,2.497793212890625,0.1519473791122436,0.7179927825927734,-0.7802144885063171,0.0920121371746063,-0.0822916105389595,0.0741689726710319
1772634181873787100,2.517787109375,0.4163410663604736,0.0948944091796875,-1.3085339069366455,0.1348889917135238,-0.097737930715084,0.0688426569104194
1772634181893781000,2.537781005859375,0.9332435131072998,-0.8467121124267578,-1.9022791385650637,0.1572595238685608,-0.1334242522716522,0.078430026769638
1772634181913774800,2.55777490234375,1.3510372638702393,-1.3805303573608398,-2.3733062744140625,0.1233042553067207,-0.097471609711647,0.1521995216608047
1772634181933768700,2.577768798828125,1.4088557958602903,-1.2904081344604492,-2.620026111602783,0.0833568722009658,-0.0599210746586322,0.243013247847557
1772634181953762600,2.597762451171875,1.3584442138671875,-1.5863218307495115,-2.127750396728516,0.0830905586481094,-0.0055926335044205,0.3468764424324035
1772634181973756700,2.617756591796875,0.950763463973999,-1.3515615463256836,-1.179243564605713,0.0833568722009658,0.0069242129102349,0.4544680416584015
1772634181993750500,2.63775048828125,0.2045569419860839,0.073312759399414,-0.671989917755127,0.1030642464756965,-0.1110537201166153,0.5759080648422241
1772634182013744400,2.657744384765625,0.2423732280731201,1.1931276321411133,-0.2494114637374878,0.147805318236351,-0.289485365152359,0.601474404335022
1772634182033737500,2.677737548828125,0.0078319311141967,1.512102127075195,0.3327565193176269,0.174170583486557,-0.4554001688957214,0.4880238473415375
1772634182053730600,2.69773046875,-0.1556453704833984,1.6223182678222656,0.1063308119773864,0.1864211112260818,-0.6681865453720093,0.2432795614004135
1772634182073723600,2.7177236328125,0.0123432874679565,1.4131507873535156,-0.4810463786125183,0.1267663538455963,-0.8586024045944214,0.0483363308012485
1772634182093716700,2.737716796875,0.4334533214569092,1.0601739883422852,-0.8304348587989807,0.1137168779969215,-0.8101329207420349,0.0110521093010902
1772634182113709800,2.757709716796875,0.5835671424865723,0.8035526275634766,-0.8795457482337952,0.0916126668453216,-0.727841317653656,-0.0307594835758209
1772634182133702700,2.77770263671875,0.2650431394577026,0.8174629211425781,-1.124133586883545,0.0340884327888488,-0.6215812563896179,-0.0701742321252822
1772634182153695700,2.79769580078125,0.3963779211044311,0.5173921585083008,-1.1075642108917236,0.0029294746927917,-0.4607264697551727,-0.0637826547026634
1772634182173688800,2.817688720703125,0.7057497501373291,0.1133041381835937,-0.9339289665222168,-0.0125168468803167,-0.3470095992088318,-0.0382163301110267
1772634182193682000,2.837681884765625,0.4395656585693359,0.178842544555664,-1.1997148990631104,-0.0406131707131862,-0.3669832944869995,-0.0288952738046646
1772634182213675000,2.857675048828125,0.2855665683746338,0.7218074798583984,-1.468324899673462,-0.1050616130232811,-0.4253064692020416,-0.0422110669314861
1772634182233668000,2.877668212890625,0.8290108442306519,1.104386329650879,-1.0802280902862549,-0.1466068923473358,-0.4141211807727813,-0.067777395248413
1772634182253661200,2.8976611328125,0.963171124458313,1.145263671875,-0.6806423664093018,-0.161254271864891,-0.4229096174240112,-0.1415468901395797
1772634182273654300,2.917654296875,0.7296059131622314,0.947627067565918,-0.4352163076400757,-0.1591237336397171,-0.4324969947338104,-0.2051963806152343
1772634182293647400,2.9376474609375,1.0351736545562744,0.6646413803100586,-0.2612099051475525,-0.1808284819126129,-0.2756369411945343,-0.2083921730518341
1772634182313640400,2.957640380859375,1.3400627374649048,0.684992790222168,-0.6639692187309265,-0.1890842765569687,-0.1834916472434997,-0.1860216408967971
1772634182333633300,2.97763330078125,1.0563048124313354,0.932795524597168,-1.4703893661499023,-0.1941442787647247,-0.2167811244726181,-0.1609879434108734
1772634182353626400,2.99762646484375,1.8838146924972532,0.259347915649414,-1.6741621494293213,-0.2300969213247299,-0.2716422080993652,-0.1503353118896484
1772634182373619500,3.017619384765625,1.785807728767395,-2.9968461990356445,-0.7709231972694397,-0.2575274705886841,-0.2905506193637848,-0.1548626869916916
1772634182393612500,3.037612548828125,-0.1314960718154907,-5.539425849914551,0.7645815014839172,-0.1986716538667678,-0.1901495456695556,-0.1420795172452926
1772634182413605600,3.057605712890625,0.040317416191101,-2.881190299987793,1.9915515184402464,-0.1532647907733917,-0.034621063619852,-0.09014792740345
1772634182433598700,3.0775986328125,0.6402875185012817,1.3914690017700195,1.909106731414795,-0.0872184485197067,0.1302284598350525,-0.0294279046356678
1772634182453591800,3.097591796875,1.184980392456055,2.7726874351501465,0.823104202747345,0.1841574311256408,0.1627189964056015,-0.00093210558407
1772634182473585000,3.1175849609375,1.1981894969940186,1.086379051208496,0.4586635231971741,0.2363553494215011,0.3227748572826385,-0.0621847584843635
1772634182493578000,3.137577880859375,-0.8405296206474304,-0.5601806640625,-0.3737362027168274,0.0736363381147384,0.3978759348392486,-0.154063731431961
1772634182513571000,3.157571044921875,-1.4590984582901,-1.796250343322754,-0.6438480019569397,0.0372842252254486,0.4569980502128601,-0.0874847695231437
1772634182533564000,3.17756396484375,-1.3070785999298096,-1.6149234771728516,1.3757820129394531,0.0777642354369163,0.6396907567977905,0.1300953030586242
1772634182553557000,3.197556884765625,-1.690209150314331,0.0560312271118164,3.206983804702759,0.1904158592224121,0.5771065354347229,0.2422142922878265
1772634182573550000,3.217550048828125,-1.741709589958191,0.7836513519287109,3.3631579875946045,0.2498043030500412,0.3153179883956909,0.0888163447380065
1772634182593542700,3.237542724609375,-1.4855232238769531,0.6478796005249023,1.785156011581421,0.1882853209972381,0.1062600389122963,-0.1066595092415809
1772634182613534500,3.257534423828125,-1.0822759866714478,-0.1528873443603515,-0.6890853643417358,0.1432779431343078,0.0125168468803167,-0.2701774537563324
1772634182633526300,3.2775263671875,-0.7861543893814087,-0.7550716400146484,-2.081296682357788,0.0948084518313407,0.0351536944508552,-0.3966774940490722
1772634182653518000,3.29751806640625,-0.4971264004707336,-0.4353933334350586,-1.6598381996154783,-0.0199736915528774,0.2775011360645294,-0.4723112285137176
1772634182673510000,3.317510009765625,-0.6849358677864075,0.467498779296875,-0.7390192747116089,-0.1395495235919952,0.6620612740516663,-0.4952143728733063
1772634182693501700,3.337501708984375,-0.6956412196159363,1.1720504760742188,0.2289957404136657,-0.1725726872682571,1.0327730178833008,-0.3316964209079742
1772634182713493500,3.357493408203125,-0.5731900930404663,1.1546268463134766,0.4422435760498047,-0.1826926916837692,1.1355708837509155,-0.0528637021780014
1772634182733485000,3.377485107421875,-0.6646820306777954,0.508336067199707,-0.1702905744314193,-0.1820269078016281,1.0026793479919434,0.094142660498619
1772634182753477000,3.39747705078125,-0.5623666644096375,0.073887825012207,-1.039811611175537,-0.1569932103157043,0.8495476841926575,-0.0219710599631071
1772634182773468700,3.41746875,-0.3118149638175964,0.1435499191284179,-1.849942922592163,-0.1567268967628479,0.7877624034881592,-0.2667153477668762
1772634182793460500,3.43746044921875,-0.0469084978103637,0.704106330871582,-2.188934326171875,-0.150068998336792,0.71559077501297,-0.5146554112434387
1772634182813452300,3.457452392578125,-0.0629682540893554,1.0573854446411133,-2.270488739013672,-0.0992026627063751,0.690557062625885,-0.6438186168670654
1772634182833444000,3.477444091796875,-0.3054690957069397,1.0323915481567385,-2.2198987007141118,-0.0019973691087216,0.7161234021186829,-0.6243776082992554
1772634182853436000,3.497435791015625,-0.4198630452156067,0.6298236846923828,-1.9633042812347408,0.0720384493470192,0.6684528589248657,-0.5063996315002441
1772634182873427700,3.517427734375,-0.7105826139450073,-0.0222282409667968,-1.4571086168289185,0.1154479309916496,0.5739107131958008,-0.3559311628341675
1772634182893419500,3.53741943359375,-1.1098949909210205,-0.3288736343383789,-1.1574747562408447,0.1620532125234604,0.4442148804664612,-0.2400837689638137
1772634182933403000,3.57740283203125,-0.9222061038017272,0.2367830276489257,-2.0282652378082275,0.2086584866046905,0.3683148622512817,-0.1617868989706039
1772634182953394700,3.597394775390625,-0.8957617878913879,0.9035634994506836,-2.587334632873535,0.216115340590477,0.356596976518631,-0.13835109770298
1772634182973386500,3.617386474609375,-1.248094081878662,1.0013542175292969,-2.7005209922790527,0.2217079699039459,0.3632548749446869,-0.1751026958227157
1772634182993378300,3.63737841796875,-2.1197738647460938,0.7287769317626953,-2.841489315032959,0.1808284819126129,0.356596976518631,-0.2291648089885711
1772634183013370000,3.6573701171875,-2.205560207366944,0.3026466369628906,-2.055013656616211,0.1099884584546089,0.3142527341842651,-0.1684447973966598
1772634183033362000,3.67736181640625,0.8428901433944702,-0.6497688293457031,0.6279787421226501,0.1057274043560028,0.206661120057106,-0.0065247388556599
1772634183053353700,3.697353759765625,0.0094799995422363,-0.1035318374633789,0.6996682286262512,0.1073253005743026,0.0886831879615783,0.0981374010443687
1772634183073345500,3.717345458984375,1.2197123765945437,0.8586568832397461,-0.5210473537445068,-0.1691105812788009,0.2892190515995025,0.0904142409563064
1772634183093337000,3.737337158203125,0.2444835901260376,0.9065093994140624,1.2951116561889648,-0.423974871635437,0.7081339359283447,0.1508679538965225
1772634183113328600,3.75732861328125,0.3563358783721924,0.1189203262329101,2.7169132232666016,-0.5609943866729736,0.3653853833675384,0.3032006323337555
1772634183133320400,3.777320556640625,1.5921109914779663,-2.75811767578125,2.638373374938965,-0.3657848536968231,-0.3523359000682831,0.6265081167221069
1772634183153312000,3.79731201171875,1.0624018907546997,-6.982902526855469,1.3031171560287476,-0.1761679500341415,-0.9142624139785768,1.1167956590652466
1772634183173303600,3.817303466796875,0.5833348035812378,-6.4438982009887695,-0.0737800598144531,0.1745700538158416,-0.5595296621322632,1.3769862651824951
1772634183193295000,3.837295166015625,0.9923889636993408,-1.106557846069336,-0.4433921575546264,0.3812311887741089,-0.4428833127021789,1.18603777885437
1772634183213286700,3.85728662109375,1.1585445404052734,1.980581760406494,-0.0799239873886108,0.2637858688831329,-0.5265064835548401,0.6336986422538757
1772634183233278500,3.877278564453125,1.2165566682815552,1.9418416023254397,0.9247538447380066,0.1644500494003296,-0.7779086828231812,0.1460742652416229
1772634183253270000,3.89727001953125,1.134848713874817,0.8812904357910156,0.8790114521980286,0.1356879472732544,-0.8889623880386353,0.0563258081674575
1772634183273261600,3.917261474609375,0.7927815914154053,-0.8239021301269531,0.5544639229774475,0.0462058037519454,-0.982172966003418,0.1964079588651657
1772634183293253000,3.937253173828125,0.2109791040420532,-2.1120176315307617,0.4356937408447265,0.0003994738217443,-1.1867035627365112,0.3647195994853973
1772634183313245000,3.957244873046875,-0.2662669420242309,-1.4631233215332031,0.285237967967987,0.0640489682555198,-1.1640666723251345,0.4635227918624878
1772634183333236500,3.977236572265625,-0.7439864277839661,1.3550634384155271,0.0593127012252807,0.1343563646078109,-0.9621992707252502,0.380698561668396
1772634183353228000,3.99722802734375,-0.9419656991958618,3.3376855850219727,0.3644225597381592,0.1362205743789672,-0.7025412917137146,0.1324921548366546
1772634183373219600,4.017219482421875,-0.3432981967926025,3.659565925598145,1.325850009918213,0.0912131890654563,-0.5145222544670105,-0.0017310532275587
1772634183393211400,4.03721142578125,0.0816428661346435,3.130675792694092,1.139042615890503,0.0051931599155068,-0.3922832906246185,0.0645816028118133
1772634183413203000,4.057202880859375,0.2734227180480957,2.1058239936828613,-0.1159048676490783,-0.1545963734388351,-0.4263717234134674,0.0600542314350605
1772634183453186000,4.09718603515625,0.1944117546081543,1.7388577461242676,-2.024946689605713,-0.3117227256298065,-0.536892831325531,-0.1660479456186294
1772634183473177600,4.117177490234375,0.4041132926940918,1.547257423400879,-1.3009858131408691,-0.4214448928833008,-0.52091383934021,-0.3857585489749908
1772634183493169400,4.13716943359375,0.9083684682846068,0.8307399749755859,-0.1731046438217163,-0.4342280328273773,-0.5384907126426697,-0.4195806682109833
1772634183513161000,4.157160888671875,0.7495869398117065,-0.1431112289428711,0.842180073261261,-0.4091943502426147,-0.621048629283905,-0.2701774537563324
1772634183533152500,4.177152587890625,0.0953824520111084,-0.8668632507324219,0.8700506091117859,-0.3474090695381164,-0.6823012828826904,-0.1567268967628479
1772634183553144000,4.19714404296875,0.4403629302978515,-0.7832403182983398,-0.5086650252342224,-0.2185121774673462,-0.6293044090270996,-0.1141163557767868
1772634183573136000,4.217135986328125,1.5824201107025146,0.3356523513793945,-2.648834466934204,-0.1157142519950866,-0.5241096615791321,-0.0520647540688514
1772634183593127400,4.23712744140625,3.57064151763916,-0.6180896759033203,-3.348364353179932,-0.0608531795442104,-0.2569948136806488,0.1631184816360473
1772634183613119000,4.257118896484375,1.0862842798233032,-7.165186882019043,-1.4039450883865356,0.0374173820018768,0.1254347860813141,0.445679634809494
1772634183633110800,4.27711083984375,-1.9176639318466189,-9.49265193939209,3.0603346824646,0.2139848172664642,0.2918822169303894,0.6717818379402161
1772634183653102600,4.2971025390625,-0.395357608795166,-1.0485429763793943,5.17812442779541,0.7135934233665466,0.10359688103199,0.7221155166625977
1772634183673094100,4.31709423828125,1.0202614068984983,5.811031341552734,4.731770038604736,-0.0195742174983024,-0.202133759856224,-0.4912196397781372
1772634183693086000,4.3370859375,-0.1547578573226928,5.805389404296875,3.1747560501098637,0.1375521570444107,0.0713726580142974,-0.4392880499362945
1772634183713077800,4.357077880859375,-1.2992531061172483,1.2747058868408203,0.8944761753082275,0.3484743237495422,0.3669832944869995,-0.0805605575442314
1772634183733069300,4.3770693359375,-2.186834812164306,-4.395687103271484,-0.5097904801368713,0.3665838241577148,0.4127896130084991,0.1127847731113433
1772634183753061000,4.39706103515625,-1.4664053916931152,-5.783103942871094,0.1562259197235107,0.3458111584186554,0.3142527341842651,0.0874847695231437
1772634183773053000,4.417052978515625,-0.9893330335617064,-1.0233821868896484,2.233107566833496,0.1772332191467285,0.2141179740428924,-0.0829573944211006
1772634183793044500,4.43704443359375,-1.1936728954315186,2.455904483795166,2.9607722759246826,-0.0081226341426372,0.2213084995746612,-0.3298322260379791
1772634183813036300,4.457036376953125,-0.9910059571266174,2.055635452270508,1.5597736835479736,-0.1356879472732544,0.5406212210655212,-0.4611259400844574
1772634183833028000,4.477028076171875,-0.861120879650116,-0.1591596603393554,-1.083683729171753,-0.2565953433513641,0.7925560474395752,-0.4906870126724243
1772634183853019600,4.49701953125,-0.9699031710624696,-1.0256929397583008,-2.096153974533081,-0.2488721907138824,0.8799076676368713,-0.4376901388168335
1772634183873011500,4.517011474609375,-0.597347617149353,0.4703969955444336,-0.939308226108551,-0.2098569124937057,0.9776455760002136,-0.2347574532032013
1772634183893003300,4.537003173828125,-0.7395808696746826,2.052719593048096,0.9759176969528198,-0.0820252895355224,0.7621960639953613,-0.1404816210269928
1772634183912994800,4.556994873046875,-0.9145209193229676,2.3020453453063965,1.5011959075927734,-0.0982705578207969,0.572845458984375,-0.5040028095245361
1772634183932986600,4.576986572265625,-0.5077793002128601,1.4664669036865234,-0.4174689352512359,-0.1291632056236267,0.5217128396034241,-0.8145270943641663
1772634183952978200,4.596978271484375,-0.1719255447387695,0.2645206451416015,-2.099163055419922,0.0,0.5334306955337524,-0.7042723298072815
1772634183972970000,4.616969970703125,-0.4681954979896545,-0.0898246765136718,-2.0916152000427246,0.0849547684192657,0.4458127915859222,-0.4853606820106506
1772634183992961800,4.6369619140625,-0.6812523603439331,0.6693115234375,-1.870574712753296,0.0945421382784843,0.3326285481452942,-0.4097269773483276
1772634184012953300,4.656953369140625,-0.6513146758079529,1.3060331344604492,-1.811797022819519,0.1318263560533523,0.3475422263145447,-0.3543332815170288
1772634184032945200,4.676945068359375,-0.5409522652626038,1.0090599060058594,-1.195176362991333,0.1914811134338379,0.4460791051387787,-0.2816290557384491
1772634184052937000,4.69693701171875,-0.8598689436912537,0.1913995742797851,-0.6098154783248901,0.2051963806152343,0.5502086281776428,-0.2597911357879638
1772634184072928500,4.716928466796875,-1.0289337635040283,-0.3966579437255859,-1.0986764430999756,0.1713742762804031,0.5856286287307739,-0.2243711352348327
1772634184092920800,4.7369208984375,-0.6285111308097839,-0.3812704086303711,-1.812082290649414,0.1455416232347488,0.5824328064918518,-0.110920563340187
1772634184112914400,4.75691455078125,-0.5744022727012634,0.7492609024047852,-2.460230588912964,0.0741689726710319,0.4087948799133301,0.0078563187271356
1772634184132908000,4.776907958984375,-1.1485251188278198,1.6565704345703125,-3.0415256023406982,-0.0286289565265178,-0.0719052851200103,0.1809616386890411
1772634184152901400,4.7969013671875,-2.065993547439575,1.4591541290283203,-2.9062087535858154,-0.3884217143058777,0.1954758614301681,0.2227732390165329
1772634184172895000,4.81689501953125,-0.5043169856071472,0.2337150573730468,-0.8262434005737305,-0.5032038688659668,0.4556664824485779,0.3338269591331482
1772634184192888600,4.836888671875,0.0598809719085693,-0.6078577041625977,1.9042998552322388,-0.6563354730606079,0.1352884620428085,0.6278396844863892
1772634184212882000,4.8568818359375,-0.2083513736724853,-0.1610231399536132,0.4530604481697082,-0.4203796088695526,-0.2609895765781402,0.9119987487792968
1772634184232875500,4.87687548828125,1.1282154321670532,-0.0698690414428711,0.2507965564727783,-0.3487406373023987,-0.385891705751419,1.044624090194702
1772634184252869000,4.896869140625,0.7505052089691162,-0.5353727340698242,1.73126482963562,-0.0739026591181755,-0.2226400822401046,1.102414608001709
1772634184272862500,4.916862548828125,2.258296489715576,-2.671428680419922,1.8569252490997317,0.1772332191467285,-0.1893505901098251,1.1080071926116943
1772634184292856000,4.93685595703125,1.9691880941390991,-6.297721862792969,0.7301886081695557,0.2222405970096588,-0.3563306629657745,0.7546060681343079
1772634184312849700,4.956849609375,1.3186509609222412,-7.058091163635254,-0.7479618787765503,0.1316931992769241,-0.69428551197052,0.2219742834568023
1772634184332843000,4.976843017578125,1.3276586532592771,-4.047517776489258,-0.7300790548324585,0.1141163557767868,-0.9840371608734132,-0.0747016072273254
1772634184352836600,4.996836669921875,0.9454284906387328,-0.5112762451171875,-0.4397590160369873,0.1245026737451553,-1.1073414087295532,-0.0656468644738197
1772634184372830200,5.016830322265625,0.6495110988616943,1.263585090637207,-0.1180144548416137,0.1386174112558365,-1.152082443237305,0.1889511197805404
1772634184392823600,5.036823486328125,0.8815864324569702,2.012998104095459,0.3888160586357116,0.1985384821891784,-1.2237215042114258,0.4446143507957458
1772634184412817200,5.056817138671875,1.0083271265029907,1.6657123565673828,0.7400543093681335,0.2280995547771453,-1.2285151481628418,0.4310322403907776
1772634184432810800,5.076810791015625,-0.0052244663238525,0.7170028686523438,0.953103244304657,0.2046637535095214,-1.065796136856079,0.2166479676961898
1772634184452804000,5.09680419921875,-0.6199914813041687,0.5254592895507812,0.7088703513145447,0.1508679538965225,-0.7901592254638672,0.0597879141569137
1772634184472797700,5.116797607421875,-0.8250796794891357,1.8877196311950684,0.8779246807098389,0.0363521166145801,-0.6016075611114502,0.0209057964384555
1772634184492791300,5.136791259765625,-1.427066206932068,3.642186164855957,1.4727685451507568,-0.1482047885656356,-0.4170506596565246,0.0083889504894614
1772634184512784600,5.15678466796875,-0.9784136414527892,4.074697494506836,1.937626600265503,-0.3085269629955292,-0.3046653568744659,-0.1127847731113433
1772634184532778200,5.1767783203125,0.3114446401596069,3.6832122802734375,1.981017589569092,-0.4086617231369018,-0.3222422301769256,-0.2659164071083069
1772634184552771800,5.196771728515625,0.92585289478302,2.7231321334838867,0.8739203810691833,-0.4291680455207824,-0.2652506232261657,-0.3671164512634277
1772634184572765200,5.21676513671875,0.7706449031829834,1.762346267700195,-1.343758225440979,-0.3655185401439667,-0.2069274336099624,-0.3162501156330108
1772634184592758500,5.236758544921875,0.7883825302124023,0.8931427001953125,-2.7686119079589844,-0.3018690645694732,-0.2990727424621582,-0.171906903386116
1772634184612750600,5.25675048828125,0.8596711158752441,-0.0487575531005859,-2.044028282165528,-0.2081258594989776,-0.392549604177475,-0.0427436977624893
1772634184632743000,5.276742919921875,1.3811447620391846,-0.8844165802001953,0.2969496846199035,-0.106126882135868,-0.5107938647270203,-0.0637826547026634
1772634184652735200,5.2967353515625,1.0578259229660034,-1.8223772048950195,2.3998236656188965,-0.1042626649141311,-0.3789674937725067,-0.1306279450654983
1772634184672727600,5.3167275390625,-0.2940648198127746,-1.912803649902344,1.1428098678588867,-0.144476369023323,0.141680046916008,0.1191763579845428
1772634184692719900,5.336719970703125,0.7622115612030029,0.0985622406005859,-2.048126220703125,0.0611194930970668,0.5555348992347717,0.5018723011016846
1772634184712712000,5.3567119140625,3.5992021560668945,1.3287782669067385,-3.714480876922608,0.6462154984474182,0.2687127292156219,0.7333008050918579
1772634184732704300,5.376704345703125,4.177030086517334,-3.599010467529297,-2.41178035736084,0.6539386510848999,-0.0109189506620168,0.5956154465675354
1772634184752696600,5.396696533203125,-1.2606580257415771,-7.947195053100586,0.7976521849632263,0.1671132147312164,-0.0529968589544296,0.1008005589246749
1772634184772689000,5.41668896484375,-1.1699535846710205,-3.3354368209838867,4.702520370483398,-0.0001331579405814,-0.164583221077919,-0.2901511490345001
1772634184792681000,5.436680908203125,-0.6930719614028931,3.036151885986328,5.836405277252197,0.127698466181755,0.2255695462226867,-0.4446143507957458
1772634184812673300,5.45667333984375,-0.9906998872756958,4.792851448059082,4.186173439025879,0.2779006361961365,0.5238433480262756,-0.4853606820106506
1772634184832665600,5.47666552734375,-1.4625955820083618,1.0220727920532229,1.5510969161987305,0.3575290739536285,0.6665886640548706,-0.2014679610729217
1772634184852658000,5.496657958984375,-1.7043852806091309,-3.757655143737793,-1.090219259262085,0.2688458859920501,0.5755085945129395,0.1319595128297805
1772634184872650200,5.516650146484375,-0.9447815418243408,-4.471158981323242,-0.8255573511123657,0.133291095495224,0.4623243808746338,0.1279647797346115
1772634184892642300,5.536642333984375,-0.4000874757766723,-0.7905969619750977,1.0649917125701904,-0.0113184247165918,0.4924180507659912,-0.1197089850902557
1772634184912634600,5.556634521484375,-0.8804921507835388,1.3151426315307615,2.258945941925049,-0.2267679721117019,0.5438170433044434,-0.4363585710525512
1772634184932627000,5.576626953125,-1.4595249891281128,0.93341064453125,1.5928075313568115,-0.2688458859920501,0.6596644520759583,-0.6952176094055176
1772634184952619300,5.596619384765625,-1.228895664215088,-0.8223533630371094,0.5505172610282898,-0.1785648018121719,0.820519208908081,-0.6781733632087708
1772634184972611600,5.616611572265625,-1.491070032119751,-1.6336956024169922,-0.4457944631576538,-0.1053279340267181,0.9414266347885132,-0.3825627565383911
1772634184992603600,5.636603759765625,-1.086463212966919,0.2814283370971679,-0.2209263443946838,-0.0139815835282206,0.8868318796157837,-0.235822707414627
1772634185012596000,5.656595947265625,-0.6480628848075867,2.340834617614746,0.8441182374954224,-0.0121173728257417,0.6998781561851501,-0.4161185622215271
1772634185032588300,5.67658837890625,-0.8477228283882141,2.7268123626708984,1.1481369733810425,-0.0339552760124206,0.6024065017700195,-0.7210502624511719
1772634185052580600,5.69658056640625,-0.7730817198753357,2.048062801361084,-0.0104857683181762,0.0515321232378482,0.6029391288757324,-0.7245123386383057
1772634185072572700,5.71657275390625,-0.64803147315979,1.187495231628418,-1.7221198081970217,0.1314268857240677,0.5906886458396912,-0.4872249066829681
1772634185092565500,5.7365654296875,-0.6733549237251282,0.6900596618652344,-2.079157829284668,0.1255679428577423,0.4940159618854522,-0.3916175067424774
1772634185112559400,5.756559326171875,-0.6173515319824219,1.133437156677246,-1.7122944593429563,0.1428784728050232,0.5163865089416504,-0.4526038467884063
1772634185152546800,5.796546875,-0.2422618865966797,1.4303712844848633,-1.140994906425476,0.1812279522418975,0.5944170355796814,-0.4131890833377838
1772634185172540700,5.816540771484375,-0.8363310694694519,0.2310495376586914,-0.5979187488555908,0.1631184816360473,0.6311686635017395,-0.2464753538370132
1772634185192534500,5.836534423828125,-1.0309854745864868,-1.0452842712402344,-1.2294278144836426,0.0776310786604881,0.4772380590438843,-0.0097205294296145
1772634185212528000,5.856528076171875,-0.832745373249054,-0.9009561538696288,-2.4386630058288574,-0.0494015961885452,0.2311621904373169,0.1580584794282913
1772634185232522000,5.87652197265625,-0.7182705998420715,0.8993158340454102,-3.2041544914245605,-0.4259722530841827,0.2886864244937897,0.1870869100093841
1772634185252515800,5.896515869140625,-1.3544787168502808,1.7064270973205566,-3.080832004547119,-0.4534027874469757,0.277234822511673,0.328234314918518
1772634185272509700,5.916509765625,0.0971990823745727,0.5970439910888672,-1.8137924671173096,-0.5000080466270447,-0.2487390339374542,0.6621944308280945
1772634185292503300,5.93650341796875,0.6996808052062988,-0.419255256652832,0.0882407873868942,-0.4504733085632324,-0.515587568283081,0.9080039858818054
1772634185312497200,5.9564970703125,-1.396338701248169,-0.8877830505371094,-0.6017768383026123,-0.5005406737327576,-0.3139864206314087,1.0576735734939575
1772634185332491000,5.976490966796875,-1.5353184938430786,-1.1958036422729492,-0.4658852815628052,-0.3559311628341675,0.0540621243417263,1.119458794593811
1772634185352484900,5.99648486328125,-0.4431344270706177,-0.872349739074707,1.7435332536697388,-0.0041278963908553,0.0386158041656017,1.1570093631744385
1772634185372478700,6.016478759765625,2.700227737426758,-1.3790502548217771,2.9906439781188965,0.1346226781606674,-0.3166495859622955,0.9341029524803162
1772634185392472300,6.036472412109375,3.723464965820313,-3.3401107788085938,2.6493470668792725,0.1141163557767868,-0.5542033314704895,0.5564670562744141
1772634185412466200,6.056466064453125,1.4261566400527954,-4.440107345581055,0.4733306169509887,0.0478036999702453,-0.8817718625068665,0.1969406008720398
1772634185432460000,6.0764599609375,1.2120959758758545,-4.785185813903809,-0.9308780431747437,-0.013715268112719,-1.2191940546035769,0.0568584389984607
1772634185452454000,6.096453857421875,1.383614420890808,-4.1249589920043945,-0.9430584907531738,0.0656468644738197,-1.3241225481033323,0.2432795614004135
1772634185472447500,6.116447509765625,0.547554612159729,-1.522174835205078,-0.8618290424346924,0.1711079478263855,-1.3539499044418335,0.4661859571933746
1772634185492441300,6.13644140625,0.4142621755599975,1.1625900268554688,-0.0282607078552246,0.2326269149780273,-1.3065457344055176,0.4856269955635071
1772634185512435200,6.156435302734375,0.360254168510437,2.519173145294189,0.9145793318748474,0.2243711352348327,-1.1616698503494265,0.2872216701507568
1772634185532428800,6.1764287109375,0.0790942907333374,2.3366622924804688,1.259075164794922,0.1316931992769241,-1.0037446022033691,0.0259657986462116
1772634185552422700,6.196422607421875,-0.1476360559463501,1.3202924728393557,1.3416552543640137,0.0081226341426372,-0.8277097344398499,-0.1101216152310371
1772634185572416500,6.21641650390625,-0.4106826782226562,1.3662147521972656,1.2472132444381714,-0.1138500422239303,-0.6452834010124207,-0.1740374267101287
1772634185592410000,6.23641015625,-0.7486311793327332,3.038836479187012,1.2390849590301514,-0.2669816613197326,-0.4953475296497345,-0.2792322039604187
1772634185612403200,6.2564033203125,-0.8219622373580933,4.245131015777588,1.547412633895874,-0.4504733085632324,-0.2447443008422851,-0.451804906129837
1772634185632396300,6.276396240234375,-0.0599963665008544,4.138442039489746,1.551034927368164,-0.3844269812107086,-0.1840242743492126,-0.3300985395908355
1772634185652389400,6.296389404296875,0.2095918655395507,2.990332126617432,0.5911807417869568,-0.319712221622467,-0.3070622086524963,-0.1042626649141311
1772634185672382500,6.316382568359375,0.4227133989334106,1.7456469535827637,-1.3417826890945437,-0.2502037584781647,-0.3416832685470581,0.1077247709035873
1772634185692375600,6.33637548828125,0.7867149114608765,0.7812461853027344,-2.74551773071289,-0.1641837358474731,-0.4474106729030609,0.0486026480793952
1772634185712368600,6.35636865234375,0.837005615234375,-0.1280164718627929,-2.2647476196289062,-0.1439437270164489,-0.4609927833080292,-0.1343563646078109
1772634185732361700,6.37636181640625,1.1971229314804075,-1.0812854766845703,0.2460361123085022,-0.1535311043262481,0.0447410680353641,0.0608531795442104
1772634185752354600,6.3963544921875,0.8930504322052002,-1.6695241928100586,2.68201756477356,0.307461678981781,0.5081307291984558,0.481632262468338
1772634185772347600,6.41634765625,0.1211199760437011,-1.5433549880981443,1.7123074531555176,0.9269124269485474,0.6072002053260803,0.9479513764381408
1772634185792340700,6.4363408203125,1.3926860094070437,0.1335315704345703,-1.1161468029022217,0.6046702265739441,0.6237117648124695,0.6068007349967957
1772634185812333800,6.456333740234375,4.418529510498047,-1.4959774017333984,-2.5363051891326904,0.1471395194530487,0.1842905879020691,0.0592552833259105
1772634185832327000,6.476326904296875,0.5658531188964844,-7.592357635498047,-0.5937396287918091,0.0581900216639041,0.1768337488174438,-0.2960101068019867
1772634185852320000,6.496320068359375,-1.3366914987564087,-5.715776443481445,3.1252381801605225,0.1759016364812851,0.4234422445297241,-0.4281027913093567
1772634185872313000,6.51631298828125,0.5902411937713623,1.726900577545166,4.457317352294922,0.2936132550239563,0.3581948578357696,-0.4752406775951385
1772634185892306200,6.53630615234375,0.1884156465530395,5.3571648597717285,2.6425094604492188,0.2664490342140198,0.3249053657054901,-0.2400837689638137
1772634185912299300,6.55629931640625,-1.0949958562850952,3.443123340606689,1.379004955291748,0.1364868879318237,0.3238401114940643,-0.09014792740345
1772634185932292400,6.576292236328125,-1.757417917251587,-2.7831039428710938,0.0666855573654174,0.0696416050195694,0.4969454407691955,-0.1199753060936927
1772634185952285400,6.596285400390625,-2.165923833847046,-6.356523513793945,-0.1966911554336547,-0.1178447753190994,0.6633928418159485,-0.1804290115833282
1772634185972278500,6.616278564453125,-0.8809539079666138,-2.700735092163086,1.5644316673278809,-0.2826943099498749,0.7744466066360474,-0.3423490524291992
1772634185992271600,6.636271728515625,-0.5322524309158325,2.067622661590576,2.346073627471924,-0.2291648089885711,0.8450202941894531,-0.4901543855667114
1772634186012264700,6.6562646484375,-1.0233867168426514,2.509335994720459,1.9750332832336424,-0.1932121664285659,0.9177245497703552,-0.4161185622215271
1772634186032257800,6.6762578125,-0.8344060182571411,-0.0964698791503906,0.4840680956840515,-0.0978710874915123,0.8839024305343628,-0.328234314918518
1772634186052250600,6.696250732421875,-1.2047932147979736,-2.530667304992676,-1.309941053390503,-0.0145142152905464,0.7411571145057678,-0.5095954537391663
1772634186072243700,6.71624365234375,-1.3060815334320068,-1.3273429870605469,-1.2067790031433103,-0.0563258081674575,0.6111949682235718,-0.8856334686279297
1772634186092236500,6.736236572265625,-0.5357359051704407,1.635930061340332,0.5437501668930054,0.1223721504211425,0.6074665188789368,-0.7024081349372864
1772634186112228900,6.756228759765625,-0.6430630683898926,3.0008864402771,1.7441039085388184,0.1639174222946167,0.4223769903182983,-0.4699143767356872
1772634186132221000,6.776220947265625,-1.0999958515167236,2.502323627471924,1.113640308380127,0.2169142812490463,0.4644548892974853,-0.5024049282073975
1772634186172205300,6.816205322265625,-0.3953790068626404,0.446354866027832,-2.3255317211151123,0.236887976527214,0.5030707120895386,-0.4797680675983429
1772634186192197400,6.836197265625,-0.639376163482666,0.5889396667480469,-2.07365083694458,0.1641837358474731,0.4548675119876861,-0.4254396259784698
1772634186212189400,6.856189453125,-0.5743305087089539,1.275461196899414,-1.9260820150375368,0.1093226671218872,0.3331611752510071,-0.203332170844078
1772634186232181800,6.876181640625,-0.334158182144165,1.5775384902954102,-1.865180492401123,0.0490021221339702,0.1185105666518211,0.0667121261358261
1772634186252173800,6.896173828125,-0.5335487723350525,0.9276866912841796,-0.9989711046218872,-0.147805318236351,-0.002130527049303,0.2533995509147644
1772634186272166000,6.916165771484375,-1.1031748056411743,-0.0661916732788086,-0.6191601753234863,-0.6122602224349976,0.1736379563808441,0.6358291506767273
1772634186292158200,6.936158203125,-0.7127068042755127,-0.7873477935791016,-1.423449158668518,-0.604004442691803,-0.3142527341842651,1.0337051153182983
1772634186312150300,6.956150390625,-0.6906011700630188,0.247283935546875,-2.3678417205810547,-0.4181159436702728,-0.5456812381744385,1.2142672538757324
1772634186332142600,6.976142578125,-1.1563905477523804,1.6378259658813477,-3.2430760860443115,-0.3178479969501495,-0.442350685596466,1.19349467754364
1772634186352134700,6.996134765625,-2.0550990104675293,1.9233970642089844,-3.0648858547210693,-0.0637826547026634,-0.229564294219017,1.1673957109451294
1772634186372126700,7.016126708984375,-0.1107027530670166,1.0602483749389648,-0.9653365015983582,0.0768321305513382,-0.3952127695083618,0.9125313758850098
1772634186392119000,7.036119140625,0.0153027772903442,0.3274555206298828,0.1843793988227844,0.0435426458716392,-0.7267760634422302,0.3993406593799591
1772634186412111000,7.056111083984375,-0.0129787921905517,-0.859166145324707,-0.8248345255851746,0.0083889504894614,-0.8953539729118347,0.0299605373293161
1772634186432103200,7.076103271484375,0.1096565723419189,-1.1808843612670898,0.7516610026359558,0.0022636849898844,-1.0125329494476318,-0.0560594946146011
1772634186452095500,7.096095458984375,1.104748249053955,-1.946232795715332,2.275192975997925,0.0794952884316444,-1.1020151376724243,0.1458079516887664
1772634186472087600,7.116087646484375,2.3253464698791504,-5.249961853027344,2.3678412437438965,0.2241048067808151,-1.2389014959335327,0.3993406593799591
1772634186492079600,7.13607958984375,1.3869801759719849,-7.341119766235352,1.1442264318466189,0.3039995729923248,-1.2918983697891235,0.4779038429260254
1772634186512072000,7.156072021484375,0.8580982685089111,-5.537958145141602,-0.277754545211792,0.2848248481750488,-1.274321436882019,0.2605900764465332
1772634186532064000,7.17606396484375,0.9314759969711304,-2.416278839111328,-0.575186014175415,0.1676458418369293,-1.1938941478729248,-0.0081226341426372
1772634186552056000,7.19605615234375,0.9428212642669678,-0.2794637680053711,-0.6273269653320312,0.0486026480793952,-0.9741834998130798,-0.09014792740345
1772634186572048400,7.21604833984375,1.2927348613739014,0.973337173461914,-0.4394495487213135,-0.0739026591181755,-0.761397123336792,-0.0664458125829696
1772634186592040400,7.23604052734375,1.1870088577270508,1.499267578125,0.0198003053665161,-0.2414153516292572,-0.5297023057937622,-0.1647163778543472
1772634186612032000,7.256031982421875,0.5701007843017578,1.3587322235107422,0.5006828308105469,-0.4065311849117279,-0.394147515296936,-0.3508711755275726
1772634186632023600,7.2760234375,-0.2034788131713867,1.025655746459961,0.9897744655609132,-0.5040028095245361,-0.4082622528076172,-0.4720448851585388
1772634186652015400,7.296015380859375,-1.0701940059661863,2.371581077575684,1.133736491203308,-0.4251733124256134,-0.4199801385402679,-0.3910848796367645
1772634186672007200,7.316007080078125,-1.0691968202590942,4.309293746948242,1.1773731708526611,-0.330364853143692,-0.4522043764591217,-0.1572595238685608
1772634186691998700,7.335998779296875,-1.0558849573135376,4.788595676422119,1.5003397464752195,-0.2366216629743576,-0.4412854015827179,0.0821584463119506
1772634186711990300,7.355990234375,-0.5657848715782166,4.134368896484375,1.5992658138275146,-0.0861531868577003,-0.5121254324913025,0.0126500045880675
1772634186731982000,7.375982177734375,0.351365327835083,2.904745101928711,0.9261049628257751,-0.0858868733048439,-0.3864243328571319,-0.1183774098753929
1772634186751973600,7.3959736328125,0.8456655740737915,1.8914399147033687,-0.8241076469421387,-0.0829573944211006,0.1962748020887375,0.1703090071678161
1772634186771965400,7.41596533203125,0.8643120527267456,0.914259910583496,-2.53739595413208,0.3119890689849853,0.7443528771400452,0.6850975751876831
1772634186791957000,7.43595703125,0.9469202756881714,-0.5063076019287109,-2.4123592376708984,0.9503481984138488,0.7800391912460327,1.0203893184661863
1772634186811948800,7.45594873046875,1.4432775974273682,-1.6506576538085938,0.0868348479270935,0.697880744934082,0.461525410413742,0.5151880979537964
1772634186831940400,7.4759404296875,0.6383911371231079,-2.2258968353271484,2.714538335800171,0.2914827466011047,0.0322242230176925,-0.1015995070338249
1772634186851932200,7.49593212890625,-0.389481246471405,-1.9105110168457031,1.7945764064788818,0.1740374267101287,0.2822948396205902,-0.3396859169006347
1772634186871923700,7.515923828125,0.9492568969726562,0.4221143722534179,-1.2818994522094729,0.2446111440658569,0.5826991200447083,-0.3490069508552551
1772634186891915500,7.53591552734375,3.9891457557678223,0.0982570648193359,-2.916541576385498,0.4299669861793518,0.45140540599823,-0.2781669497489929
1772634186911907000,7.555906982421875,2.1955442428588867,-6.739927291870117,0.5037734508514404,0.3503385484218597,0.3478085398674011,-0.0592552833259105
1772634186931899000,7.57589892578125,-0.7968088984489441,-7.3493499755859375,4.6552510261535645,0.122638463973999,0.5214464664459229,0.105860561132431
1772634186951890400,7.595890380859375,-1.3877848386764526,1.1932239532470703,5.104186058044434,0.0384826436638832,0.7536739706993103,0.0123836882412433
1772634186971882200,7.61588232421875,-1.84485125541687,5.921146392822266,3.101438045501709,-0.1660479456186294,0.827177107334137,-0.2834932506084442
1772634186991873800,7.635873779296875,-1.7630659341812134,2.7772135734558105,1.7724816799163818,-0.3484743237495422,0.8921582102775574,-0.5916207432746887
1772634187011865600,7.655865478515625,-1.109647274017334,-4.29221248626709,0.2528272271156311,-0.2781669497489929,0.9520792961120604,-0.6661891937255859
1772634187031857200,7.675857177734375,-1.99804162979126,-6.260708808898926,-0.5086877346038818,-0.2275669276714325,1.0338382720947266,-0.4406196177005768
1772634187051849000,7.695848876953125,-0.783758282661438,-1.223710060119629,0.8362592458724976,0.019840532913804,0.700410783290863,-0.535694420337677
1772634187071840500,7.715840576171875,-0.4128719568252563,2.836520195007324,2.4943981170654297,-0.0419447496533393,0.5459475517272949,-1.0041440725326538
1772634187091832600,7.73583251953125,-1.2685449123382568,2.219313621520996,2.2937281131744385,-0.0067910552024841,0.5177180767059326,-1.0656629800796509
1772634187111825700,7.75582568359375,-1.0314581394195557,-0.8461074829101562,-0.157059907913208,0.1213068813085556,0.5448822975158691,-0.758867084980011
1772634187131818800,7.77581884765625,-1.3316888809204102,-2.620867729187012,-2.018402099609375,0.1812279522418975,0.4340948760509491,-0.4131890833377838
1772634187151811800,7.795811767578125,-0.93198961019516,-0.0690565109252929,-1.4739878177642822,0.1809616386890411,0.49268439412117,-0.3956122398376465
1772634187171805000,7.815804931640625,0.0137174129486083,2.5815300941467285,0.3343103528022766,0.155129000544548,0.4857601523399353,-0.4203796088695526
1772634187191798000,7.835798095703125,-0.419036865234375,2.7567243576049805,1.4053363800048828,0.1050616130232811,0.4833633303642273,-0.4233090877532959
1772634187211791000,7.855791015625,-0.8384301662445068,1.8093833923339844,0.3888970017433166,0.051798440515995,0.4442148804664612,-0.2885532677173614
1772634187231784200,7.8757841796875,-0.5642781257629395,1.003122329711914,-1.942969799041748,-0.0003994738217443,0.2455432415008545,-0.0557931773364543
1772634187251777300,7.89577734375,-0.4002238512039184,0.8236017227172852,-2.6934802532196045,-0.1391500532627105,0.0047936858609318,0.1335574090480804
1772634187271770400,7.915770263671875,-0.4078594446182251,1.2042932510375977,-2.4668610095977783,-0.5402217507362366,0.1075916141271591,0.210522711277008
1772634187291763500,7.935763427734375,-0.4205155372619629,1.4162940979003906,-2.091341018676758,-0.6065344214439392,-0.0902810841798782,0.3559311628341675
1772634187311756500,7.955756591796875,-0.300057053565979,1.355241775512695,-1.232133388519287,-0.5719133615493774,-0.6285054683685303,0.6163880825042725
1772634187331749600,7.97574951171875,-1.023741602897644,0.6503629684448242,-0.3325345814228058,-0.3146522045135498,-0.8804402947425842,0.8752471208572388
1772634187351742700,7.99574267578125,-1.2106819152832031,-0.6131439208984375,-1.2305197715759275,-0.4281027913093567,-0.5041359663009644,1.094957709312439
1772634187371735800,8.01573583984375,-0.8568246364593506,-0.6135320663452148,-2.8836848735809326,-0.435027003288269,0.0857537165284156,1.1926956176757812
1772634187391729000,8.03572900390625,-0.7009671330451965,1.2840909957885742,-3.695749282836914,-0.0302268527448177,0.2247706055641174,1.1351714134216309
1772634187411722000,8.055721923828125,-1.49989914894104,2.01386833190918,-3.4504168033599854,0.1988048106431961,-0.4740422666072845,0.4890891015529632
1772634187431715000,8.075715087890625,0.5601071119308472,0.6481838226318359,-1.6331579685211182,0.0563258081674575,-0.9494161009788512,0.0962731912732124
1772634187451708200,8.095708251953125,0.1850266456604004,-0.4888248443603515,0.3888218402862549,-0.0118510564789175,-1.1861709356307983,-0.0818921327590942
1772634187471701200,8.115701171875,-0.5935476422309875,-1.55584716796875,-0.0960733890533447,0.0688426569104194,-1.2223899364471436,0.0645816028118133
1772634187491694300,8.1356943359375,-1.614426612854004,-2.263643264770508,0.654528021812439,0.3010700941085815,-1.237303614616394,0.3612574934959411
1772634187511687400,8.1556875,-1.3762387037277222,-1.9222335815429688,3.02693510055542,0.3327617049217224,-0.9374319314956664,0.2539321780204773
1772634187531680500,8.175680419921875,2.704567670822144,-1.122331619262695,4.327527523040772,0.2691121995449066,-0.7906918525695801,-0.0251668505370616
1772634187551673600,8.195673583984375,3.5616989135742188,-2.102725982666016,3.585881471633911,0.0608531795442104,-0.7518097162246704,-0.1889511197805404
1772634187571666700,8.215666748046875,1.7061744928359983,-4.282719612121582,0.4155087471008301,-0.1340900510549545,-0.5994770526885986,-0.2217079699039459
1772634187591659800,8.23565966796875,1.3706363439559937,-5.085639953613281,-1.28690505027771,-0.2595248222351074,-0.4663191139698028,-0.3324953913688659
1772634187611652400,8.25565234375,1.0267833471298218,-3.66710376739502,-1.5054494142532349,-0.3812311887741089,-0.4279696345329284,-0.4427501559257507
1772634187631645000,8.27564501953125,0.6412787437438965,-0.9504661560058594,-1.2090059518814087,-0.4331627786159515,-0.3387537896633148,-0.3937480449676513
1772634187651637500,8.295637451171874,1.1206817626953125,1.2372922897338867,0.257571816444397,-0.3460775017738342,-0.3760380148887634,-0.1964079588651657
1772634187671630300,8.31563037109375,0.721003532409668,2.308090686798096,1.2902491092681885,-0.2619216740131378,-0.536892831325531,-0.040080539882183
1772634187691623000,8.335622802734376,-0.0335520505905151,2.2089624404907227,1.357353925704956,-0.165781632065773,-0.5427517890930176,0.0089215822517871
1772634187711615500,8.355615478515626,0.0117210149765014,1.2434768676757812,1.4370027780532837,-0.0640489682555198,-0.54781174659729,-0.0659131780266761
1772634187731608300,8.3756083984375,-0.305307388305664,1.1819324493408203,1.2596791982650757,-0.1031974032521247,-0.3267695903778076,-0.0414121188223362
1772634187751601000,8.395600830078125,-1.0624476671218872,3.051497459411621,0.6147439479827881,-0.0520647540688514,0.1925463825464248,0.2488721907138824
1772634187771593500,8.415593505859375,-0.700061559677124,4.042665481567383,0.6459621787071228,0.5066659450531006,0.514255940914154,0.708267092704773
1772634187791586300,8.43558642578125,0.0908658504486084,3.7824044227600098,0.7234734296798706,0.8267776370048523,0.4087948799133301,0.8616650104522705
1772634187811579000,8.455578857421875,0.1304506063461303,3.05801010131836,-0.3065521717071533,0.4970785975456238,0.1355547904968261,0.2139848172664642
1772634187831571500,8.475571533203125,0.4168479442596435,2.2204480171203613,-2.1655306816101074,0.2431464046239853,-0.0769652873277664,-0.2936132550239563
1772634187851564300,8.495564208984375,1.1038107872009275,1.0213899612426758,-2.448646545410156,0.2607232332229614,0.3512706458568573,-0.2880206108093261
1772634187871556900,8.515556884765624,1.3514235019683838,-0.4639129638671875,-0.8133085370063782,0.3504717051982879,0.3834948539733886,-0.165781632065773
1772634187891549400,8.535549560546874,1.413968205451965,-1.306595802307129,1.340872883796692,0.2561958730220794,0.2071937620639801,-0.0478036999702453
1772634187911542300,8.555542236328124,0.357318639755249,-1.441692352294922,2.0002634525299072,0.1430116295814514,0.4644548892974853,0.0360858030617237
1772634187931534800,8.575534912109376,-0.0718622207641601,-0.965712547302246,0.4510962665081024,0.0013315794058144,0.7371623516082764,-0.0310258008539676
1772634187951527400,8.59552734375,2.15512752532959,0.6039066314697266,-1.5930111408233645,-0.1938779652118683,0.8396939635276794,-0.2296974509954452
1772634187971520000,8.61552001953125,4.024944305419922,-1.6881895065307615,-2.045106887817383,-0.1672463715076446,0.9440897703170776,-0.5189164876937866
1772634187991512800,8.635512939453125,-0.0634033679962158,-7.567870140075684,1.7842161655426023,-0.1440768986940384,0.9155939817428588,-0.4004059135913849
1772634188011505400,8.65550537109375,-0.7182441353797913,-4.4306640625,4.526092529296875,-0.027830010280013,0.7494128942489624,-0.4416849017143249
1772634188031498000,8.675498046875,-0.8646446466445923,3.2959718704223637,3.638779640197754,-0.0190415848046541,0.5715138912200928,-0.6864292025566101
1772634188051490800,8.69549072265625,-1.972950220108032,5.11124849319458,1.9509096145629885,-0.0406131707131862,0.457530677318573,-0.9359671473503112
1772634188071483400,8.7154833984375,-2.090858221054077,0.0563936233520507,1.5344007015228271,0.0254331659525632,0.3952127695083618,-0.8121302723884583
1772634188091475700,8.735475830078125,-1.7416322231292725,-6.25604248046875,0.7226312160491943,0.0936100333929061,0.331563264131546,-0.5575323104858398
1772634188111467500,8.755467529296874,-1.4893863201141355,-5.306926727294922,0.3767633438110351,0.1442100554704666,0.2466085106134414,-0.4440817236900329
1772634188131459300,8.775459228515626,-1.0494612455368042,0.8787107467651367,1.1710261106491089,0.1873532235622406,0.2532663941383362,-0.3932153880596161
1772634188151451000,8.795450927734375,-1.0828654766082764,3.316441059112549,2.2217164039611816,0.2265016585588455,0.3504717051982879,-0.296809047460556
1772634188171442700,8.815442626953125,-1.1723237037658691,1.3428630828857422,1.456615686416626,0.2435458749532699,0.3906854093074798,-0.2853574752807617
1772634188191434500,8.8354345703125,-1.135124444961548,-2.306772232055664,-0.5372285842895508,0.169643223285675,0.4058654010295868,-0.3239732682704925
1772634188211426000,8.855426025390624,-1.6462470293045044,-2.783824920654297,-1.7415777444839478,0.0924116075038909,0.3486074805259704,-0.248605877161026
1772634188231417900,8.87541796875,-0.6524978280067444,0.6360111236572266,-0.8737035989761353,0.0388821177184581,0.1664474308490753,-0.0853542387485504
1772634188251409700,8.89540966796875,-0.2901229858398437,2.987008571624756,0.1367456316947937,-0.2087916433811187,0.1219726726412773,0.1431447863578796
1772634188271401200,8.915401123046875,-0.6712263226509094,2.7702951431274414,0.6339849233627319,-0.5267727971076965,0.3802990913391113,0.3306311666965484
1772634188291393000,8.93539306640625,-0.6438983082771301,1.5933380126953125,-0.3889855146408081,-0.6721813082695007,0.0703073889017105,0.6568681001663208
1772634188311384600,8.955384521484374,-0.5955429673194885,0.8678827285766602,-1.9275972843170168,-0.5025380849838257,-0.5326317548751831,1.0387650728225708
1772634188331376400,8.97537646484375,-0.7982167601585388,1.2267322540283203,-2.2072954177856445,-0.2998716831207275,-0.5936180949211121,1.234241008758545
1772634188351368200,8.9953681640625,-0.8495644927024841,1.578516960144043,-2.0105905532836914,-0.3211769461631775,-0.2277000844478607,1.199353575706482
1772634188371359700,9.01535986328125,-0.6659906506538391,1.593292236328125,-1.981881618499756,-0.1581916362047195,-0.1107874065637588,1.0720546245574951
1772634188391351600,9.0353515625,-0.4332050085067749,1.266313552856445,-1.2219419479370115,-0.0221042186021804,-0.4008054137229919,0.7918902635574341
1772634188411343400,9.05534326171875,-1.2356038093566897,0.4618215560913086,-0.1756621599197387,0.0330231711268425,-0.5808349251747131,0.5138564705848694
1772634188431335000,9.0753349609375,-1.38048255443573,-0.4884042739868164,-0.7709178328514099,0.048469491302967,-0.7896265983581543,0.3452785313129425
1772634188451326700,9.09532666015625,-1.1621687412261963,-0.2223730087280273,-1.9552055597305296,-0.0284957997500896,-1.0508824586868286,0.302934318780899
1772634188471318500,9.115318603515624,-1.3399999141693115,1.4883499145507812,-2.9097933769226074,0.0247673764824867,-1.2269172668457031,0.397476464509964
1772634188491310000,9.13531005859375,-1.5112351179122925,2.044569492340088,-2.6669600009918213,0.1822932213544845,-1.377918362617493,0.5434175729751587
1772634188511302000,9.155302001953125,0.3385759592056274,0.9801750183105468,-0.4401497840881347,0.2219742834568023,-1.457280516624451,0.5511407256126404
1772634188531293400,9.17529345703125,-0.4702094197273254,-0.0070486068725585,-0.4861419796943664,0.1830921620130539,-1.246890902519226,0.353268027305603
1772634188551285200,9.19528515625,0.1327732801437378,-1.731332778930664,-1.3553667068481443,0.1527321636676788,-0.951812982559204,0.0637826547026634
1772634188571277000,9.215277099609375,-0.35043865442276,-2.934417724609375,1.0593726634979248,0.0808268710970878,-0.7624623775482178,-0.1253016293048858
1772634188591268900,9.235268798828123,2.102946281433105,-3.611974716186523,3.229567527770996,-0.0684431791305542,-0.5552685856819153,-0.165781632065773
1772634188611261700,9.25526171875,2.8146450519561768,-4.295578956604004,3.424168109893799,-0.2380864024162292,-0.3944138288497925,-0.2579269409179687
1772634188631254800,9.2752548828125,1.0056536197662354,-3.5813188552856445,0.8559300899505615,-0.385891705751419,-0.3113232553005218,-0.414254367351532
1772634188651247600,9.29524755859375,0.8688955307006836,-2.959623336791992,-0.8739882707595825,-0.4916191101074219,-0.2095905989408493,-0.4789691269397735
1772634188671240700,9.31524072265625,1.4289294481277466,-2.482368469238281,-1.080952763557434,-0.4708464741706848,-0.2322274446487426,-0.3575290739536285
1772634188691233500,9.335233642578125,1.2197299003601074,-1.2572240829467771,-0.5273879766464233,-0.436225414276123,-0.419447511434555,-0.1567268967628479
1772634188711226600,9.3552265625,1.3154759407043457,0.1710386276245117,0.1971511840820312,-0.3416832685470581,-0.4828307032585144,0.0323573797941207
1772634188731219500,9.375219482421874,0.9619137048721312,0.8742570877075195,0.9225420355796814,-0.1720400601625442,-0.5747096538543701,0.0174436904489994
1772634188751212500,9.395212646484374,-0.2161180973052978,1.0289182662963867,1.1297414302825928,-0.086818978190422,-0.5922865271568298,-0.0837563425302505
1772634188771205400,9.415205322265624,-0.4918137788772583,0.7945098876953125,1.21517813205719,-0.1552621573209762,-0.1821600645780563,0.2241048067808151
1772634188791198500,9.435198486328124,-0.5564583539962769,1.0821619033813477,1.364999294281006,0.3821632862091064,0.1755021661520004,0.6736460328102112
1772634188811191300,9.45519140625,-1.1538304090499878,2.701727867126465,1.6587496995925903,0.8917587399482727,0.1243695169687271,0.9934914112091064
1772634188831184100,9.47518408203125,-0.9463843107223512,3.997812271118164,1.860969066619873,0.6081323027610779,0.0545947551727294,0.4763059616088867
1772634188851177200,9.49517724609375,0.0261440277099609,4.121094703674316,1.8018474578857424,0.2648511528968811,-0.164583221077919,0.0661794990301132
1772634188871170000,9.515170166015626,0.1730040311813354,3.720900535583496,0.7630335092544556,0.3311637938022613,-0.0138484258204698,-0.0669784471392631
1772634188891163100,9.5351630859375,0.2127254009246826,3.044273853302002,-1.4254603385925293,0.4185154139995575,0.1451421529054641,-0.1567268967628479
1772634188911156000,9.555156005859375,0.7504059076309204,1.7589426040649414,-2.9491524696350098,0.487757533788681,0.0753673911094665,-0.3127880096435547
1772634188931149000,9.575149169921875,0.9524266719818116,0.2040281295776367,-2.563753366470337,0.3346258997917175,0.1171789914369583,-0.3205111622810364
1772634188951142000,9.595141845703123,1.4791126251220703,-0.9842824935913086,-0.4565682411193847,0.1647163778543472,0.366716980934143,-0.1556616276502609
1772634188971135000,9.615135009765623,1.0347988605499268,-1.2959537506103516,1.8060200214385984,0.0691089704632759,0.578970730304718,-0.0874847695231437
1772634188991127800,9.6351279296875,-0.1089047193527221,-0.8952236175537109,1.2734391689300537,-0.0422110669314861,0.8002792000770569,-0.0472710691392421
1772634189011120600,9.65512060546875,1.6151106357574463,-0.1068763732910156,-0.7721127271652222,-0.100001610815525,0.9025444984436036,-0.0693752840161323
1772634189031113700,9.67511376953125,4.846379280090332,-2.5144119262695312,-1.5685007572174072,-0.1399489939212799,0.7656581401824951,-0.143411099910736
1772634189051106600,9.6951064453125,0.892074704170227,-8.396596908569336,1.3975791931152344,-0.1673795282840728,0.6900244355201721,-0.1135837212204933
1772634189071099600,9.715099609375,-1.38643217086792,-5.424854278564453,3.999665498733521,-0.0403468571603298,0.5424854755401611,-0.1141163557767868
1772634189091092500,9.735092529296876,-0.4061864614486694,2.0162482261657715,3.8852052688598633,0.0043942118063569,0.3853590786457062,-0.4291680455207824
1772634189111084300,9.755084228515624,-0.7072919607162476,5.262144088745117,2.299667358398437,-0.0709731802344322,0.2969422042369842,-0.9178577065467834
1772634189131076400,9.775076416015626,-1.5436220169067385,2.9686646461486816,1.579171061515808,-0.0480700172483921,0.3091927468776703,-1.0520808696746826
1772634189151068200,9.795068115234375,-2.0671236515045166,-3.467207908630371,0.6298772096633911,0.0872184485197067,0.3976096212863922,-0.7103976011276245
1772634189171060200,9.815060302734375,-2.6577489376068115,-5.964288711547852,0.0414197444915771,0.1599226891994476,0.4495412111282348,-0.3103911578655243
1772634189191052000,9.835052001953123,-1.1301804780960083,-1.0602493286132812,1.8991103172302248,0.2331595569849014,0.4703138470649719,-0.0960068777203559
1772634189211044000,9.855044189453125,-0.793114423751831,3.7926878929138175,2.828303098678589,0.2613890469074249,0.4814991056919098,0.0089215822517871
1772634189231036200,9.8750361328125,-0.6605710983276367,3.0657854080200195,1.129346489906311,0.2896185219287872,0.515587568283081,0.0211721118539571
1772634189251028000,9.895028076171876,-0.2297370433807373,-1.583425521850586,-1.2678250074386597,0.3037332594394684,0.4876243770122528,-0.0765658169984817
1772634189271020000,9.91502001953125,-1.0669214725494385,-4.264859199523926,-2.9907383918762207,0.2419479787349701,0.3621895909309387,-0.2259690314531326
1772634189291012000,9.93501220703125,-1.036968231201172,-1.2978229522705078,-2.044282913208008,0.1271658390760421,0.1209074109792709,-0.3404848575592041
1772634189311004000,9.95500390625,-0.2626140117645263,2.038493156433105,0.3443917036056518,0.0222373753786087,-0.1219726726412773,-0.3692469596862793
1772634189330996000,9.974995849609376,-0.6033011674880981,2.264889717102051,1.9439697265625,-0.0760331824421882,-0.2886864244937897,-0.3101248443126678
1772634189350988000,9.994988037109374,-1.069537878036499,1.5616722106933594,1.662086009979248,-0.3894869685173034,-0.2266348153352737,-0.1767005920410156
1772634189370979800,10.014979736328126,-0.8485552668571472,1.185842514038086,-0.4020067453384399,-0.5207806825637817,-0.1339568942785263,0.160189002752304
1772634189390972000,10.034971923828126,-0.7700701355934143,1.0972833633422852,-1.784188985824585,-0.7671229243278503,-0.272707462310791,0.5237101912498474
1772634189410963700,10.054963623046875,-0.5772417783737183,1.5103445053100586,-1.5511876344680786,-0.4486091136932373,-0.4900212287902832,0.8318376541137695
1772634189430955800,10.074955810546877,-0.5869648456573486,2.21932315826416,-1.207404851913452,-0.176966905593872,-0.4016043543815613,1.0049430131912231
1772634189450947800,10.09494775390625,-0.7577732801437378,2.376758575439453,-1.099528431892395,-0.1197089850902557,-0.0255663245916366,1.1045451164245603
1772634189470939600,10.114939697265624,-0.6143406629562378,1.6719422340393066,-0.8803614377975464,-0.094941608607769,0.2079927027225494,1.0781798362731934
1772634189490931700,10.134931640625,-0.4849706888198852,0.3769741058349609,-1.0532513856887815,-0.1428784728050232,0.2221074402332306,0.6834996938705444
1772634189510923800,10.154923828125,-0.5490822792053223,0.0146207809448242,-1.91878080368042,-0.0304931681603193,0.1880190074443817,0.2757700979709625
1772634189530915600,10.17491552734375,-1.012474536895752,1.2016067504882812,-2.6186304092407227,0.0483363308012485,-0.0412789620459079,0.1990711241960525
1772634189550907600,10.19490771484375,-1.299017071723938,2.421184062957764,-2.514059066772461,-0.0027963167522102,-0.4825643897056579,0.4171838164329529
1772634189570899700,10.214899658203125,-2.048642873764038,2.3353586196899414,-1.89531683921814,-0.048868965357542,-0.994423508644104,0.6097301840782166
1772634189590891800,10.234891845703125,-0.2325674295425415,1.0673646926879885,-1.1270769834518433,-0.0368847511708736,-1.40428364276886,0.7064028978347778
1772634189610884600,10.254884521484374,0.0897847414016723,-0.2672500610351562,0.0757937431335449,-0.0339552760124206,-1.5243921279907229,0.693087100982666
1772634189630877400,10.27487744140625,-0.5536985397338867,-0.680699348449707,0.1888962984085083,-0.0525973848998546,-1.4218604564666748,0.5095954537391663
1772634189650870000,10.2948701171875,-0.2466752529144287,-1.368669509887695,0.3112903833389282,-0.0422110669314861,-1.1851056814193726,0.2443448156118393
1772634189670862800,10.31486279296875,-1.0779757499694824,-3.740447998046875,1.662287950515747,-0.0954742431640625,-0.9582045674324036,0.062717393040657
1772634189690855700,10.334855712890626,0.5318078994750977,-5.13542366027832,2.860323429107666,-0.2241048067808151,-0.7233139276504517,-0.016911057755351
1772634189710848500,10.3548486328125,1.515901803970337,-3.864640235900879,3.397223949432373,-0.4009385704994201,-0.4862928092479706,-0.1034637168049812
1772634189730841300,10.37484130859375,1.5152509212493896,-1.4793453216552734,2.0961456298828125,-0.5250417590141296,-0.3496727645397186,-0.1857553273439407
1772634189750834200,10.394834228515624,1.80349862575531,-0.7550697326660156,0.0172963142395019,-0.6049365401268005,-0.3283674716949463,-0.3063964247703552
1772634189770827000,10.414826904296875,1.8960986137390137,-1.6454458236694336,-1.974942684173584,-0.5306344032287598,-0.358993798494339,-0.3628553748130798
1772634189790819800,10.43481982421875,1.4621751308441162,-2.06381893157959,-2.5441675186157227,-0.420645922422409,-0.4905538558959961,-0.2709763944149017
1772634189810812700,10.454812744140623,1.047244429588318,-1.0263290405273438,-1.7492657899856567,-0.4965459704399109,-0.7843002676963806,-0.2523342967033386
1772634189830805500,10.474805419921877,0.323192834854126,0.1321058273315429,-0.8577706813812256,-0.4768385887145996,-0.8857666254043579,-0.2709763944149017
1772634189850798000,10.494798095703125,-0.2874451875686645,0.6469936370849609,0.2659245729446411,-0.2280995547771453,-0.8351665735244751,-0.3000048398971557
1772634189870791000,10.514791015625,-0.5722349882125854,0.8317623138427734,1.491559982299805,-0.0483363308012485,-0.6580665707588196,-0.1721732169389724
1772634189890783700,10.53478369140625,-0.675991415977478,1.314396858215332,2.1053805351257324,0.0270310621708631,-0.2575274705886841,0.1439437270164489
1772634189910776600,10.554776611328125,-0.9416602849960328,2.322094440460205,2.081230640411377,0.171906903386116,0.2519348263740539,0.3705785572528839
1772634189930769400,10.574769287109374,-1.040739893913269,3.295347213745117,2.0654780864715576,0.209457442164421,0.45140540599823,0.4041343629360199
1772634189950762200,10.59476220703125,-0.3619989156723022,3.76968002319336,2.0271100997924805,0.3980090916156769,0.3619232773780823,0.2992058992385864
1772634189970755000,10.614755126953124,0.1986571550369262,3.27477502822876,1.5374435186386108,0.3580617010593414,0.1158474087715148,0.0432763323187828
1772634189990748000,10.634747802734376,0.393276572227478,2.1294984817504883,0.3062493801116943,0.3455448448657989,-0.1515337377786636,-0.3034669458866119
1772634190010740700,10.65474072265625,0.4729518890380859,1.1219472885131836,-1.4683324098587036,0.4323638379573822,-0.0452736988663673,-0.2494048178195953
1772634190030733600,10.674733642578126,0.5566810369491577,0.5488500595092773,-2.068082809448242,0.5977460145950317,0.1411474198102951,0.0296942200511693
1772634190050726400,10.694726318359375,0.6300743818283081,0.8038902282714844,-1.2543588876724243,0.5628586411476135,0.278832733631134,0.1162468791007995
1772634190070719200,10.71471923828125,1.7042750120162964,0.7029457092285156,-0.1520466804504394,0.3098585307598114,0.3542001247406006,-0.2438121885061264
1772634190090711800,10.7347119140625,1.597555160522461,-0.2211561203002929,0.1690417528152465,0.1015995070338249,0.4729770123958587,-0.5697828531265259
1772634190110704400,10.754704345703123,-0.3050568699836731,-1.1401853561401367,-0.3280621767044067,0.0731037110090255,0.7233139276504517,-0.3343595862388611
1772634190130697000,10.774697021484377,0.1272603273391723,-1.0478019714355469,-0.6894890069961548,0.0451405420899391,0.8290413618087769,0.0818921327590942
1772634190150689500,10.794689453125,1.2243380546569824,0.2394914627075195,-1.1908209323883057,0.0267647467553615,0.8002792000770569,0.1894837468862533
1772634190170682000,10.81468212890625,2.9842982292175293,0.8777542114257812,-2.0187764167785645,-0.0051931599155068,0.8074697256088257,-0.0030626326333731
1772634190190674700,10.8346748046875,2.682071685791016,-2.2158937454223637,-1.5426065921783447,-0.1077247709035873,0.8942887187004089,-0.3692469596862793
1772634190210667000,10.8546669921875,0.6600219011306763,-6.902886390686035,0.5344349145889282,-0.0978710874915123,0.9568729400634766,-0.6526070833206177
1772634190230659600,10.87465966796875,-1.6190636157989502,-6.321512222290039,2.4599766731262207,-0.040879487991333,0.9387634992599488,-0.819320797920227
1772634190250652200,10.894652099609376,-2.7779979705810547,-1.7010297775268557,3.860869646072388,-0.0094542140141129,0.818122386932373,-0.9247819185256958
1772634190270644700,10.914644775390624,-2.3723716735839844,1.4153156280517578,5.166049957275391,0.0014647373463958,0.7161234021186829,-0.8898945450782776
1772634190290637300,10.93463720703125,-2.04226016998291,0.0368223190307617,6.880949020385742,0.0451405420899391,0.5451486110687256,-0.6765754818916321
1772634190310630000,10.9546298828125,-3.017276763916016,-2.4714927673339844,5.9575276374816895,0.1146489903330802,0.4295675158500671,-0.4118575155735016
1772634190330622500,10.97462255859375,-1.5884641408920288,-1.3852949142456057,1.522064447402954,0.2022669166326522,0.3587274849414825,-0.1948100626468658
1772634190350615000,10.994614990234377,0.0368862152099609,0.100046157836914,-0.513515830039978,0.2589921951293945,0.2822948396205902,-0.0376836955547332
1772634190370607400,11.014607421875,0.2201594114303589,0.0520191192626953,0.4542765617370605,0.2797648310661316,0.2434127181768417,0.0153131633996963
1772634190390600000,11.034599853515624,-0.3121641874313354,-0.9818611145019532,0.6517200469970703,0.2403500825166702,0.2601906061172485,-0.0054594753310084
1772634190410592500,11.054592529296874,-1.0393221378326416,-2.750308036804199,0.5749207735061646,0.210522711277008,0.3507380187511444,-0.0624510757625103
1772634190430585000,11.074585205078124,-1.214172124862671,-2.1193771362304688,0.5886112451553345,0.2320942878723144,0.5099949240684509,-0.0659131780266761
1772634190450577700,11.09457763671875,-1.0150264501571655,0.4715557098388672,0.7754548192024231,0.2025332301855087,0.5355612635612488,-0.0770984441041946
1772634190470570200,11.1145703125,-0.6924698948860168,1.5187397003173828,0.5205918550491333,0.18655426800251,0.440752774477005,-0.1141163557767868
1772634190490562800,11.134562744140624,-0.5273948907852173,1.0493173599243164,-0.436129093170166,0.1751026958227157,0.3470095992088318,-0.1002679318189621
1772634190510555100,11.15455517578125,-0.2241932153701782,0.8469448089599609,-1.2063686847686768,0.1364868879318237,0.2764358818531036,-0.073370024561882
1772634190530547700,11.174547607421877,-0.1259461641311645,0.7322607040405273,-1.6098644733428955,-0.1130510941147804,0.3731085360050201,-0.1063931956887245
1772634190550540300,11.194540283203125,-0.2355396747589111,1.0343494415283203,-1.7271193265914917,-0.3151848316192627,0.6394244432449341,-0.0486026480793952
1772634190570532900,11.214532958984377,-0.1531459093093872,1.2162723541259766,-1.7541017532348633,-0.5189164876937866,0.49268439412117,0.2688458859920501
1772634190590525400,11.234525390625,-0.1907200813293457,0.982868194580078,-1.5048513412475586,-0.4906870126724243,0.1153147742152214,0.6233122944831848
1772634190610518300,11.254518310546874,-0.6668432950973511,0.7440605163574219,-1.0321166515350342,-0.2548643052577972,-0.1115863546729087,0.800944983959198
1772634190630510800,11.2745107421875,-1.34621262550354,0.8275318145751953,-0.3974207639694214,-0.1802958548069,-0.1089231967926025,0.7460839152336121
1772634190650503700,11.294503662109374,-1.292367935180664,0.8360424041748047,-0.1669579148292541,0.0002663158811628,0.0013315794058144,0.7474155426025391
1772634190670496500,11.31449658203125,-1.218841314315796,0.3564720153808594,-0.3408559560775757,0.0050600017420947,-0.197073757648468,0.4323638379573822
1772634190690489300,11.3344892578125,-1.1494035720825195,0.298379898071289,-0.8912559151649475,0.0388821177184581,-0.262054830789566,-0.0214384291321039
1772634190710482200,11.354482177734376,-1.2502875328063965,1.0923690795898438,-1.362983226776123,0.190948486328125,-0.2269011288881302,-0.1250353008508682
1772634190730474800,11.374474853515624,-1.246063232421875,1.9147062301635744,-1.2394235134124756,0.1150484606623649,-0.3448790609836578,0.0166447423398494
1772634190750467600,11.394467529296875,-1.387147307395935,1.262070655822754,-0.8774892687797546,0.1544632166624069,-0.5507412552833557,0.1439437270164489
1772634190770460400,11.41446044921875,-0.2776349782943725,0.0433435440063476,0.4560124278068542,0.1510011106729507,-0.8708529472351074,0.1692437380552292
1772634190790453000,11.434452880859377,0.94636070728302,-0.0924100875854492,2.4076972007751465,0.1432779431343078,-1.086568832397461,0.1106542497873306
1772634190810445800,11.45444580078125,-0.6524167656898499,0.4224710464477539,0.9242209792137146,0.0854873955249786,-1.069258213043213,0.0262321140617132
1772634190830438700,11.474438720703125,0.717992901802063,-0.0483179092407226,-1.018696665763855,0.0263652727007865,-0.7494128942489624,-0.0720384493470192
1772634190850431500,11.494431396484377,-0.1341958045959472,-1.024688720703125,0.1520079374313354,0.0109189506620168,-0.5102612376213074,-0.0946752950549125
1772634190870424000,11.514424072265625,1.8134146928787231,-2.7463111877441406,2.326263666152954,-0.0676442310214042,-0.4085285663604736,-0.0158457942306995
1772634190890417000,11.5344169921875,3.6475090980529785,-4.879878997802734,4.6430864334106445,-0.1515337377786636,-0.1600558459758758,0.0659131780266761
1772634190910409700,11.55440966796875,1.7147367000579834,-4.175919532775879,3.54355788230896,-0.2026663869619369,0.0178431645035743,0.03795001283288
1772634190930402300,11.57440234375,1.0110875368118286,-1.571044921875,0.2801960706710815,-0.2324937582015991,0.1246358305215835,0.0275636930018663
1772634190950395100,11.59439501953125,1.077073335647583,-0.7375516891479492,-0.5964690446853638,-0.2996053695678711,0.1656484752893448,0.0946752950549125
1772634190970388000,11.614387939453126,1.1360139846801758,-0.953505516052246,-0.2877252101898193,-0.4151864647865295,-0.045540016144514,0.1074584573507309
1772634190990380800,11.634380859375,1.4268418550491333,-1.3658523559570312,0.2864294052124023,-0.4607264697551727,-0.3680485486984253,-0.0155794788151979
1772634191010373600,11.65437353515625,1.073216438293457,-0.7539844512939453,0.6404812335968018,-0.4143875241279602,-0.3946801424026489,-0.0595216006040573
1772634191030366200,11.6743662109375,0.6629838943481445,0.6241960525512695,0.2038803100585937,-0.2436790317296981,-0.1816274374723434,0.0691089704632759
1772634191050359000,11.694359130859375,-0.521920919418335,1.1100101470947266,0.8152113556861877,-0.0479368567466735,0.0135821104049682,0.2139848172664642
1772634191070352000,11.714351806640623,-0.8019735813140869,1.3513689041137695,1.5881445407867432,0.0487358048558235,0.0157126374542713,0.1569932103157043
1772634191090344400,11.734344482421877,-0.465672492980957,1.7039461135864258,2.045177698135376,0.0271642208099365,-0.025300009176135,-0.0211721118539571
1772634191110337300,11.754337158203125,-0.5587087869644165,2.333641529083252,2.0044045448303223,-0.0521979108452796,0.0191747434437274,-0.1732384860515594
1772634191130329900,11.774329833984376,-0.2441070079803466,2.333621025085449,1.6171979904174805,-0.0854873955249786,-0.0178431645035743,-0.2941458821296692
1772634191150322400,11.794322509765625,-0.0409290790557861,1.3801698684692385,0.9232819080352784,-0.0279631670564413,-0.1597895324230194,-0.3189132809638977
1772634191170315000,11.81431494140625,-0.2426275014877319,0.5653114318847656,-0.4302902221679687,0.0239684283733367,-0.2617885172367096,-0.2376869171857834
1772634191190307800,11.834307861328124,0.1136493682861328,0.008742332458496,-1.1284983158111572,0.0394147485494613,-0.278832733631134,-0.079228974878788
1772634191210300400,11.854300537109374,0.5978788137435913,-0.1658945083618164,-0.4559986591339111,0.0830905586481094,-0.2902843058109283,0.0190415848046541
1772634191230293000,11.87429296875,0.4484033584594726,0.1218099594116211,0.3456544876098633,0.0860200300812721,-0.3278348445892334,-0.0027963167522102
1772634191250285600,11.89428564453125,0.458938717842102,0.2585697174072265,0.6268036961555481,0.0141147412359714,-0.310258001089096,-0.0555268600583076
1772634191270278400,11.9142783203125,1.0569573640823364,-0.810145378112793,0.586586594581604,-0.0383494868874549,-0.2186453342437744,-0.0464721210300922
1772634191290271000,11.93427099609375,0.8299108743667603,-2.613012313842773,0.7753392457962036,-0.0175768472254276,-0.1027979329228401,-0.0193079020828008
1772634191310263600,11.954263671875,0.1390378475189209,-3.167032241821289,1.181875705718994,0.0039947382174432,0.0151800047606229,0.0288952738046646
1772634191330256100,11.974256103515623,-0.4194653034210205,-1.390934944152832,1.137251377105713,-0.0053263176232576,0.0402136966586113,0.0193079020828008
1772634191350249000,11.9942490234375,-0.2295186519622802,1.0164947509765625,1.410109519958496,-0.0159789528697729,0.0077231605537235,-0.0552605465054512
1772634191370241500,12.014241455078125,0.3636343479156494,2.059977531433105,1.6125476360321045,-0.006657897029072,-0.0141147412359714,-0.0866858214139938
1772634191390234000,12.034234130859376,0.577294111251831,1.9440841674804688,1.0481209754943848,0.0031957905739545,-0.0186421126127243,-0.0262321140617132
1772634191410227000,12.05422705078125,0.0976802110671997,0.8679447174072266,0.1732275485992431,0.0106526352465152,-0.0527305454015731,0.0294279046356678
1772634191430219500,12.074219482421874,0.0670948028564453,-0.2698640823364258,-0.4255512952804565,0.0018642111681401,-0.0780305564403534,0.0480700172483921
1772634191450212000,12.094212158203124,0.0236152410507202,-0.8082342147827148,0.3192077279090881,-0.0087884236127138,-0.0820252895355224,0.0344879068434238
1772634191470204700,12.11420458984375,-0.6118101477622986,-0.2409553527832031,1.4215428829193115,-0.0218379013240337,-0.05139896646142,0.0014647373463958
1772634191490197500,12.134197509765626,-0.8777433037757874,0.2968053817749023,1.5218219757080078,-0.0199736915528774,0.0205063223838806,-0.0366184338927269
1772634191510190000,12.154190185546875,-0.4969653487205505,0.2568359375,1.0607125759124756,-0.0215715859085321,0.0793621316552162,-0.0541952811181545
1772634191530182700,12.1741826171875,-0.3286416530609131,-0.0962781906127929,0.5816777944564819,-0.0090547399595379,0.1272989958524704,-0.0328900106251239
1772634191550175200,12.19417529296875,-0.3183293342590332,-0.3119735717773437,0.3783937096595764,0.0063915811479091,0.1669800579547882,0.0049268435686826
1772634191570168000,12.21416796875,-0.3673100471496582,-0.0915546417236328,0.7743345499038696,0.0031957905739545,0.2138516455888748,0.0318247489631176
1772634191590160600,12.23416064453125,-0.3494006395339966,0.3504190444946289,0.8303214311599731,0.0143810575827956,0.2711095809936523,0.0291615892201662
1772634191610153500,12.254153564453125,-0.2960699796676636,0.3956127166748047,0.3738123774528503,0.0199736915528774,0.3115895688533783,0.0083889504894614
1772634191630146000,12.27414599609375,-0.2398396730422973,0.1279945373535156,0.0181139707565307,0.0071905287913978,0.3518032729625702,-0.0041278963908553
1772634191650139000,12.294138916015624,-0.2518347501754761,-0.1311168670654297,-0.0147440433502197,0.0026631588116288,0.402669608592987,0.0131826363503932
1772634191670131500,12.31413134765625,-0.3102039098739624,-0.2367696762084961,0.0579454898834228,0.0082557927817106,0.4327633082866668,0.0496679134666919
1772634191690124300,12.334124267578124,-0.4314993619918823,-0.1798553466796875,0.2377810478210449,0.0199736915528774,0.4277032911777496,0.0691089704632759
1772634191710116900,12.354116943359376,-0.4748616218566894,-0.1499662399291992,0.4105809926986694,0.0380831696093082,0.4119906723499298,0.0685763359069824
1772634191730109700,12.374109619140626,-0.4879273772239685,-0.0713815689086914,0.4641919136047363,0.0458063334226608,0.4085285663604736,0.0563258081674575
1772634191750102300,12.394102294921876,-0.3619221448898315,0.0264301300048828,0.4222971200942993,0.0564589649438858,0.3779022395610809,0.0241015870124101
1772634191770095000,12.41409521484375,-0.2048437595367431,0.0649986267089843,0.3776149749755859,0.0679105520248413,0.3552653789520263,0.0089215822517871
1772634191790088000,12.434087890625,-0.2305190563201904,0.0694580078125,0.3366919755935669,0.0617852844297885,0.3648527562618255,0.0158457942306995
1772634191810080500,12.45408056640625,-0.2590798139572143,0.1311025619506836,0.382329523563385,0.0519315972924232,0.3824295997619629,-0.0089215822517871
1772634191830073300,12.4740732421875,-0.1223855018615722,0.0775251388549804,0.5137408971786499,0.0545947551727294,0.3613906502723694,-0.043010015040636
1772634191850066000,12.49406591796875,-0.1844114065170288,-0.0946874618530273,0.5510766506195068,0.0556600205600261,0.3310306370258331,-0.0597879141569137
1772634191870058800,12.514058837890625,-0.248356819152832,-0.1088781356811523,0.4685235023498535,0.0671116039156913,0.3206443190574646,-0.0608531795442104
1772634191890051300,12.53405126953125,-0.1200596094131469,0.0577564239501953,0.3740794658660888,0.0607200190424919,0.3211769461631775,-0.0667121261358261
1772634191910044200,12.554044189453125,0.0454427003860473,0.1376523971557617,0.3151746988296509,0.0500673875212669,0.3185137808322906,-0.0640489682555198
1772634191930037000,12.574037109375,0.1312263011932373,0.0682010650634765,0.1917511224746704,0.0567252822220325,0.3249053657054901,-0.0568584389984607
1772634191950029600,12.594029541015624,0.0715360641479492,0.03668212890625,0.072922945022583,0.0684431791305542,0.3187801241874695,-0.0507331751286983
1772634191970022400,12.6140224609375,0.0815823078155517,0.0436611175537109,0.0553739070892334,0.070041075348854,0.2916159033775329,-0.048868965357542
1772634191990015000,12.634014892578126,0.1079072952270507,-0.0776119232177734,0.0591551065444946,0.0740358158946037,0.2663158774375915,-0.0448742248117923
1772634192010007800,12.6540078125,0.0173330307006835,-0.084634780883789,0.0329223871231079,0.0782968699932098,0.234624296426773,-0.0470047518610954
1772634192030000400,12.67400048828125,-0.0266536474227905,-0.0577554702758789,0.1645036935806274,0.0679105520248413,0.2242379784584045,-0.0504668578505516
1772634192049993200,12.6939931640625,0.077655553817749,0.1370515823364257,0.1811697483062744,0.0612526535987854,0.2218411266803741,-0.0454068593680858
1772634192069985800,12.71398583984375,0.1184626817703247,0.1558990478515625,0.0187574625015258,0.0511326491832733,0.2447443008422851,-0.0302268527448177
1772634192089979000,12.733978759765623,0.1105626821517944,0.0173845291137695,-0.0983420610427856,0.0490021221339702,0.2695116698741913,-0.0147805316373705
1772634192109972500,12.753972412109375,0.0585122108459472,-0.0595979690551757,-0.0292812585830688,0.064981073141098,0.2793653607368469,-0.0390152782201767
1772634192129966300,12.77396630859375,0.0316642522811889,0.0219631195068359,0.0816200971603393,0.0692421272397041,0.2575274705886841,-0.0768321305513382
1772634192149960200,12.793960205078124,0.0874063968658447,0.1077165603637695,0.0692304372787475,0.097737930715084,0.2396842986345291,-0.1053279340267181
1772634192169953800,12.813953857421875,0.1215794086456298,0.0929822921752929,0.0296324491500854,0.0833568722009658,0.2569948136806488,-0.1066595092415809
1772634192189947600,12.83394775390625,0.1396945714950561,0.0873918533325195,-0.0427926778793334,0.034621063619852,0.2804306149482727,-0.0834900289773941
1772634192209941200,12.853941162109376,0.1284897327423095,0.0817127227783203,-0.1535552740097046,0.0167779009789228,0.2660495638847351,-0.040080539882183
1772634192229935000,12.87393505859375,0.1439567804336547,0.0565824508666992,-0.120235800743103,0.0330231711268425,0.2380864024162292,-0.0531300194561481
1772634192249928700,12.8939287109375,0.0918837785720825,0.0794801712036132,-0.0314966440200805,0.0431431718170642,0.2290316522121429,-0.0877510830760002
1772634192269922600,12.913922607421876,0.1276044845581054,0.1027297973632812,0.0275708436965942,0.0258326400071382,0.2154495418071746,-0.079228974878788
1772634192289916400,12.93391650390625,0.0879416465759277,0.0924654006958007,0.1256322860717773,0.0034621064551174,0.1861547976732254,-0.0608531795442104
1772634192309910000,12.953909912109374,-0.000152587890625,0.0918416976928711,0.2951701879501343,0.0082557927817106,0.1720400601625442,-0.0589889660477638
1772634192329903900,12.97390380859375,0.1196671724319458,0.1098842620849609,0.4425070285797119,0.0109189506620168,0.1800295412540435,-0.0717721283435821
1772634192349897500,12.9938974609375,0.0470916032791137,-0.0627145767211914,0.1636474132537841,0.0130494777113199,0.1829590052366256,-0.0928110852837562
1772634192369891300,13.013891357421874,0.0014410018920898,-0.0195980072021484,-0.0606465339660644,-0.0058589493855834,0.1717737466096878,-0.0994689837098121
1772634192389885200,13.03388525390625,0.0544558763504028,0.2764110565185547,-0.0447067022323608,-0.0189084280282259,0.1712411046028137,-0.1077247709035873
1772634192409878800,13.053878662109376,-0.0336089134216308,0.0516033172607421,-0.276701807975769,-0.0125168468803167,0.1515337377786636,-0.1098553016781807
1772634192429872600,13.07387255859375,0.0116341114044189,0.0956373214721679,-0.2907654047012329,-0.0087884236127138,0.1054610908031463,-0.1023984551429748
1772634192449866200,13.0938662109375,0.1467605829238891,0.2347488403320312,-0.0361232757568359,-0.0101200034841895,0.0833568722009658,-0.0997352972626686
1772634192469860000,13.113860107421877,0.0929872989654541,0.1153860092163086,-0.0940785408020019,-0.0061252652667462,0.0692421272397041,-0.0930773988366127
1772634192489854000,13.13385400390625,0.00025475025177,0.0018529891967773,-0.2664617300033569,0.0005326317623257,0.0460726469755172,-0.0818921327590942
1772634192509847600,13.15384765625,0.0582839250564575,0.1365299224853515,-0.1350189447402954,-0.0002663158811628,0.0314252749085426,-0.0691089704632759
1772634192529841400,13.17384130859375,0.109820008277893,0.2815704345703125,0.0501635074615478,-0.0082557927817106,0.0119842141866683,-0.0579237043857574
1772634192549835000,13.1938349609375,0.0877118110656738,0.2156200408935547,0.0914554595947265,0.0045273699797689,-0.0061252652667462,-0.0304931681603193
1772634192569828900,13.213828857421875,0.0465742349624633,0.0973443984985351,0.0723603963851928,0.0221042186021804,-0.0031957905739545,-0.0264984294772148
1772634192589822500,13.233822509765623,0.034271240234375,0.0567169189453125,-0.0121879577636718,0.0045273699797689,-0.0138484258204698,-0.0201068483293056
1772634192609816000,13.253816162109375,0.0404272079467773,0.0732030868530273,-0.0977681875228881,-0.0295610632747411,-0.0266315881162881,-0.0067910552024841
1772634192629809700,13.2738095703125,0.0477876663208007,0.1480617523193359,-0.2190841436386108,-0.0639158114790916,-0.0330231711268425,-0.0030626326333731
1772634192649803000,13.293802978515624,0.1531240940093994,0.0979909896850586,-0.2398309707641601,-0.0657800212502479,-0.0290284305810928,-0.0049268435686826
1772634192669796600,13.313796630859375,0.1423982381820678,0.0866861343383789,-0.1458953619003296,,,
1772634192689790200,13.333790283203124,0.0363162755966186,0.1076526641845703,-0.1667768955230713,,,
1772634192709783600,13.353783447265624,0.0335863828659057,0.0815305709838867,-0.1913602352142334,,,
1772634192729777200,13.373777099609375,0.0246652364730834,0.0831384658813476,-0.1425086259841919,,,
1772634192749770800,13.393770751953124,0.0112314224243164,0.1510572433471679,-0.1164991855621337,,,
1772634192769764400,13.413764404296876,0.0887439250946044,0.2290563583374023,-0.0931414365768432,,,
1772634192789757700,13.4337578125,-0.0004009008407592,0.306828498840332,-0.1015858650207519,,,
1772634192809751300,13.453751220703126,-0.0551350116729736,0.23040771484375,-0.1689352989196777,,,
1772634192829745000,13.473744873046876,-0.0018956661224365,0.0152788162231445,-0.177921175956726,,,
1772634192849738200,13.49373828125,0.0030741691589355,-0.0370569229125976,-0.1619131565093994,,,
1772634192869731800,13.51373193359375,0.0007417201995849,0.0648250579833984,-0.0963202714920044,,,
1772634192889725400,13.533725341796876,0.0225056409835815,0.147684097290039,-0.1217180490493774,,,
1772634192909719000,13.553718994140626,0.014398455619812,0.0638542175292968,-0.1469333171844482,,,
