time,seconds_elapsed,accel_z,accel_y,accel_x,gyro_x,gyro_y,gyro_z
1.7726343035313382e+18,0.289338134765625,0.0314985513687133,0.0328025817871093,0.0758090019226074,-0.0191747434437274,-0.0466052778065204,0.0113184247165918
1.77263430355133e+18,0.309330078125,-0.0563857555389404,0.0469751358032226,0.0486926436424255,-0.023169482126832,-0.0468715950846672,0.0179763212800025
1.7726343035713219e+18,0.32932177734375,-0.0963106155395507,0.042586326599121,-0.0628718733787536,-0.0328900106251239,-0.043409489095211,0.0161121115088462
1.772634303591314e+18,0.34931396484375,-0.0484981536865234,-0.0192441940307617,-0.1393651962280273,-0.0344879068434238,-0.0391484349966049,0.0075900023803114
1.7726343036113073e+18,0.369307373046875,0.0417264699935913,-0.0283756256103515,-0.0723374485969543,-0.0283626411110162,-0.0319579057395458,0.0031957905739545
1.7726343036313009e+18,0.38930078125,0.0681046247482299,0.0767669677734375,0.0686732530593872,-0.0159789528697729,-0.0255663245916366,-0.0007989476434886
1.7726343036512942e+18,0.409294189453125,-0.0210814476013183,0.2513875961303711,0.0054944157600402,-0.0149136893451213,-0.011185267008841,0.0031957905739545
1.7726343036712876e+18,0.42928759765625,-0.0678509473800659,0.1614713668823242,0.0185574889183044,-0.022370534017682,-0.019441058859229,0.0141147412359714
1.7726343036912812e+18,0.44928125,-0.0245260000228881,-0.0105133056640625,-0.0550107955932617,-0.0286289565265178,-0.0327568538486957,0.0229031667113304
1.7726343037112745e+18,0.4692744140625,-0.0734854936599731,0.0609102249145507,-0.0045887827873229,-0.0211721118539571,-0.0402136966586113,0.0162452682852745
1.7726343037312678e+18,0.489267822265625,0.0654544830322265,0.1226930618286132,-0.0550516247749328,-0.010785792954266,-0.0343547500669956,-0.0013315794058144
1.7726343037512614e+18,0.509261474609375,0.1043300628662109,-0.0403032302856445,-0.1528289318084716,-0.0181094799190759,-0.0106526352465152,0.0105194775387644
1.7726343037712548e+18,0.5292548828125,0.0720610618591308,-0.0826644897460937,-0.1189486980438232,-0.0308926422148942,0.0082557927817106,0.0131826363503932
1.7726343037912484e+18,0.549248291015625,0.018039584159851,0.0843000411987304,-0.0294233560562133,-0.0191747434437274,0.0042610540986061,0.0424773842096328
1.7726343038112417e+18,0.56924169921875,-0.0831387042999267,0.2129058837890625,-0.1392711400985717,-0.0117178987711668,0.0263652727007865,0.0475373864173889
1.772634303831235e+18,0.589235107421875,-0.0435565710067749,0.0365266799926757,-0.1883901953697204,0.0034621064551174,0.0284957997500896,0.0185089539736509
1.7726343038512284e+18,0.609228515625,-0.0033986568450927,-0.0537137985229492,-0.1503940820693969,-0.0069242129102349,0.0074568446725606,0.0027963167522102
1.772634303871222e+18,0.629221923828125,0.0839052200317382,0.1436338424682617,-0.1021239161491394,-0.0018642111681401,-0.013315794058144,0.003328948514536
1.7726343038912154e+18,0.64921533203125,-0.0296354293823242,0.2161474227905273,-0.1206921339035034,0.0079894764348864,-0.0210389550775289,-0.003328948514536
1.772634303911209e+18,0.669208984375,-0.0771775245666503,0.0797576904296875,-0.2265581488609314,-0.002130527049303,-0.0186421126127243,0.0030626326333731
1.7726343039312023e+18,0.689202392578125,0.0765308141708374,-0.0905838012695312,-0.1519299745559692,-0.0122505305334925,-0.0306263267993927,-0.0121173728257417
1.7726343039511956e+18,0.709195556640625,0.0276076793670654,-0.0695810317993164,-0.0680855512619018,-0.0162452682852745,-0.0495347529649734,-0.0299605373293161
1.7726343039711892e+18,0.729189208984375,-0.0128910541534423,0.0708875656127929,-0.0031284689903259,-0.0058589493855834,-0.0668452829122543,-0.0502005442976951
1.7726343039911826e+18,0.7491826171875,0.0666275024414062,0.0718774795532226,0.0381881594657897,-0.0215715859085321,-0.0788294970989227,-0.0635163411498069
1.772634304011176e+18,0.769176025390625,0.0729016065597534,0.0055179595947265,0.0981484651565551,-0.0370179079473018,-0.0769652873277664,-0.0693752840161323
1.7726343040311695e+18,0.78916943359375,0.0196975469589233,0.1064167022705078,0.0493999719619751,-0.0332894846796989,-0.0998684540390968,-0.0723047628998756
1.772634304051163e+18,0.809162841796875,-0.0647517442703247,0.1915407180786132,-0.0143919587135314,-0.0239684283733367,-0.1123853027820587,-0.0699079185724258
1.7726343040711562e+18,0.82915625,-0.103757619857788,0.0570001602172851,-0.0892725586891174,-0.0109189506620168,-0.1235705688595771,-0.0661794990301132
1.7726343040911498e+18,0.84914990234375,-0.1474440097808838,-0.116032600402832,-0.105490505695343,0.0034621064551174,-0.1403484642505645,-0.0640489682555198
1.7726343041111432e+18,0.86914306640625,-0.204358696937561,-0.126352310180664,-0.1196001172065734,0.0095873717218637,-0.1488705724477768,-0.0629837065935134
1.7726343041311368e+18,0.88913671875,-0.1875351667404174,0.0069828033447265,-0.003537118434906,0.0260989554226398,-0.1491369009017944,-0.0448742248117923
1.77263430415113e+18,0.909130126953125,-0.2037696838378906,0.1171474456787109,0.1007403135299682,0.0386158041656017,-0.1563274264335632,-0.0235689561814069
1.7726343041711237e+18,0.929123779296875,-0.308895468711853,0.1837339401245117,0.1294779777526855,0.042610540986061,-0.1723063737154007,-0.0075900023803114
1.7726343041911173e+18,0.949117431640625,-0.3153462409973144,0.0792236328125,0.15821373462677,0.0399473831057548,-0.1973400712013244,-0.0126500045880675
1.7726343042111107e+18,0.969110595703125,-0.3099046945571899,-0.0542421340942382,0.2059593796730041,0.0274305362254381,-0.2106558680534362,-0.0254331659525632
1.7726343042311043e+18,0.989104248046875,-0.2895314693450928,-0.0292634963989257,0.0835935473442077,0.0210389550775289,-0.2269011288881302,-0.0414121188223362
1.7726343042510976e+18,1.00909765625,-0.2201944589614868,0.0151901245117187,0.0189127922058105,0.0181094799190759,-0.2229063957929611,-0.0464721210300922
1.7726343042710912e+18,1.02909130859375,-0.1982958316802978,0.0646314620971679,-0.0444593429565429,0.0061252652667462,-0.2005358636379242,-0.0302268527448177
1.7726343042910848e+18,1.049084716796875,-0.1149078607559204,-0.0153636932373046,-0.1124809980392456,-0.0071905287913978,-0.1619200557470321,-0.0182426385581493
1.7726343043110781e+18,1.069078125,-0.1073285341262817,0.0051736831665039,-0.1790999770164489,-0.0143810575827956,-0.1238368824124336,-0.0390152782201767
1.7726343043310717e+18,1.08907177734375,-0.1181209087371826,0.0591688156127929,-0.2465315163135528,-0.0151800047606229,-0.0921452939510345,-0.0624510757625103
1.772634304351065e+18,1.109065185546875,-0.0683364868164062,0.0408878326416015,-0.1872304677963256,-0.0158457942306995,-0.0631168633699417,-0.0914795026183128
1.7726343043710587e+18,1.12905859375,-0.0683083534240722,-0.0496320724487304,-0.1124309003353118,-0.0179763212800025,-0.0407463312149047,-0.0976047739386558
1.772634304391052e+18,1.149052001953125,-0.1365135908126831,-0.025308609008789,-0.0141302943229675,-0.0129163200035691,-0.0402136966586113,-0.0954742431640625
1.7726343044110456e+18,1.169045654296875,-0.1995924711227417,0.1468515396118164,0.0081779956817626,-0.0209057964384555,-0.0386158041656017,-0.0821584463119506
1.7726343044310392e+18,1.189039306640625,-0.1583281755447387,0.161376953125,0.0002433061599731,-0.0153131633996963,-0.0348873808979988,-0.067511074244976
1.7726343044510326e+18,1.209032470703125,-0.1686862707138061,0.027801513671875,0.0289579927921295,-0.0073236869648098,-0.0498010702431201,-0.0515321232378482
1.7726343044710262e+18,1.229026123046875,-0.1785997152328491,0.0182828903198242,0.021491914987564,-0.0001331579405814,-0.0644484460353851,-0.048868965357542
1.7726343044910195e+18,1.24901953125,-0.1581661701202392,0.1384477615356445,0.0045179426670074,0.0059921070933341,-0.0588558092713356,-0.0533963330090045
1.772634304511013e+18,1.26901318359375,-0.0749000310897827,0.1242933273315429,0.0681367516517639,0.0041278963908553,-0.0418115928769111,-0.0422110669314861
1.7726343045310067e+18,1.2890068359375,-0.046751856803894,0.0282249450683593,0.172516256570816,0.0059921070933341,-0.0284957997500896,-0.0270310621708631
1.772634304551e+18,1.309,-0.0546982288360595,0.0082607269287109,0.2040899693965912,0.0051931599155068,-0.013315794058144,-0.0166447423398494
1.7726343045709937e+18,1.32899365234375,-0.0778524875640869,-0.0024662017822265,0.1876736581325531,-0.0035952643956989,-0.0005326317623257,-0.0150468470528721
1.772634304590987e+18,1.348987060546875,-0.099983811378479,0.0348472595214843,0.0900034606456756,-0.010785792954266,0.0154463211074471,-0.0035952643956989
1.7726343046109806e+18,1.368980712890625,-0.0451692342758178,0.0628204345703125,0.0136538743972778,-0.0027963167522102,0.0303600095212459,0.0097205294296145
1.7726343046309742e+18,1.38897412109375,-0.0320453643798828,0.0286970138549804,-0.0114549398422241,0.011584741063416,0.0444747507572174,0.0211721118539571
1.7726343046509678e+18,1.4089677734375,-0.0084813833236694,0.0330867767333984,0.03457972407341,0.0241015870124101,0.0561926513910293,0.0448742248117923
1.7726343046709617e+18,1.428961669921875,-0.0008125305175781,0.0468921661376953,0.0785666406154632,0.0206394810229539,0.0655137076973915,0.0563258081674575
1.7726343046909553e+18,1.448955322265625,-0.0228618383407592,0.0318183898925781,0.145597755908966,0.0155794788151979,0.0785631835460662,0.0483363308012485
1.7726343047109489e+18,1.468948974609375,-0.0407845973968505,-0.0217494964599609,0.1239147186279296,0.0142478998750448,0.0711063370108604,0.0336889587342739
1.7726343047309425e+18,1.4889423828125,-0.0549577474594116,-0.037144660949707,0.1158153414726257,0.0041278963908553,0.0695084482431411,0.0312921144068241
1.772634304750936e+18,1.50893603515625,-0.0796295404434204,0.0191431045532226,0.068263828754425,0.0097205294296145,0.0692421272397041,0.0214384291321039
1.7726343047709297e+18,1.5289296875,-0.086925983428955,0.0609903335571289,0.0231276154518127,0.0174436904489994,0.0801610797643661,0.0161121115088462
1.7726343047909233e+18,1.54892333984375,-0.1079003810882568,0.0550518035888671,0.0014775395393371,0.0201068483293056,0.0918789803981781,0.0161121115088462
1.7726343048109169e+18,1.568916748046875,-0.1136238574981689,0.0541200637817382,0.016597956418991,0.0262321140617132,0.1019989848136901,0.0190415848046541
1.772634304850904e+18,1.608904052734375,-0.1034191846847534,0.0526151657104492,-0.0300434827804565,0.0323573797941207,0.0993358269333839,0.0158457942306995
1.7726343048708977e+18,1.628897705078125,-0.0837628841400146,0.066354751586914,-0.0578581094741821,0.0406131707131862,0.0958737134933471,0.0054594753310084
1.7726343048908913e+18,1.648891357421875,-0.082230806350708,0.0322656631469726,-0.0906758308410644,0.0416784361004829,0.0964063480496406,-0.0030626326333731
1.7726343049108849e+18,1.668884765625,-0.0751763582229614,0.0175657272338867,-0.1447548270225525,0.0368847511708736,0.0950747728347778,-0.0067910552024841
1.7726343049308785e+18,1.68887841796875,-0.0439010858535766,-0.0209016799926757,-0.1969192028045654,0.0328900106251239,0.0972052961587905,-0.0126500045880675
1.772634304950872e+18,1.7088720703125,-0.0359396934509277,-0.0494928359985351,-0.2289004027843475,0.0283626411110162,0.0996021404862403,-0.0105194775387644
1.772634304970866e+18,1.728865966796875,-0.0324734449386596,-0.0011920928955078,-0.2456214427947998,0.0246342197060585,0.0993358269333839,-0.0094542140141129
1.7726343049908595e+18,1.748859619140625,-0.0197023153305053,0.051741600036621,-0.2555941641330719,0.0238352715969085,0.097737930715084,-0.0113184247165918
1.772634305010853e+18,1.76885302734375,-0.0132750272750854,0.0855722427368164,-0.2435358166694641,0.0195742174983024,0.0902810841798782,-0.0153131633996963
1.7726343050308467e+18,1.7888466796875,-0.0354214906692504,0.1479148864746093,-0.197655975818634,0.0166447423398494,0.0836231857538223,-0.0275636930018663
1.7726343050508403e+18,1.80884033203125,-0.0479489564895629,0.1520862579345703,-0.1632667183876037,0.0139815835282206,0.0703073889017105,-0.0427436977624893
1.772634305070834e+18,1.828833984375,-0.0272932052612304,0.1614608764648437,-0.108850359916687,0.0094542140141129,0.0529968589544296,-0.0613858103752136
1.7726343050908275e+18,1.84882763671875,-0.0362040996551513,0.1609926223754882,-0.0749605000019073,0.011584741063416,0.0415452793240547,-0.0749679207801818
1.7726343051108206e+18,1.868820556640625,-0.0604722499847412,0.1081323623657226,-0.0189383924007415,0.013715268112719,0.0300936941057443,-0.0741689726710319
1.7726343051308137e+18,1.888813720703125,-0.0571922063827514,0.0496025085449218,0.0245725512504577,0.0150468470528721,0.0162452682852745,-0.0699079185724258
1.772634305150807e+18,1.90880712890625,-0.0642205476760864,0.0292272567749023,-0.0402808189392089,0.0161121115088462,0.0050600017420947,-0.0563258081674575
1.7726343051708e+18,1.928800048828125,0.0114468336105346,0.0132341384887695,-0.0405106246471405,0.0153131633996963,-0.0029294746927917,-0.0443415939807891
1.7726343051907935e+18,1.94879345703125,-0.1396641731262207,0.1023702621459961,-0.127158910036087,0.0182426385581493,-0.0122505305334925,-0.0294279046356678
1.7726343052107866e+18,1.96878662109375,-0.1914710998535156,0.1495199203491211,-0.2554840743541717,0.0238352715969085,-0.0106526352465152,-0.0134489517658948
1.77263430523078e+18,1.98877978515625,-0.018787145614624,0.1298284530639648,-0.2131343483924865,0.0294279046356678,-0.0029294746927917,-0.0011984214652329
1.772634305250773e+18,2.00877294921875,-0.0494515895843505,0.1673030853271484,-0.1580980122089386,0.0331563279032707,0.0061252652667462,0.0049268435686826
1.772634305270766e+18,2.02876611328125,-0.3500516414642334,0.2098817825317382,-0.2670483291149139,0.045939490199089,0.0186421126127243,0.0025300008710473
1.7726343052907594e+18,2.048759521484375,-0.3160786628723144,0.1376934051513672,-0.2959673106670379,0.050999492406845,0.0157126374542713,-0.0070573706179857
1.7726343053107525e+18,2.06875244140625,-0.3113731145858764,0.0757064819335937,-0.2630722820758819,0.0323573797941207,0.0370179079473018,-0.0067910552024841
1.7726343053307456e+18,2.08874560546875,-0.2406282424926757,-0.0159521102905273,-0.1860110759735107,0.0203731656074523,0.046338964253664,-0.0065247388556599
1.772634305350739e+18,2.108739013671875,-0.3037078380584717,-0.0167398452758789,-0.0804449319839477,0.0270310621708631,0.0332894846796989,-0.0211721118539571
1.772634305370732e+18,2.12873193359375,-0.4492071866989136,0.1414642333984375,0.0110808014869689,0.0344879068434238,0.0117178987711668,-0.0440752767026424
1.7726343053907254e+18,2.148725341796875,-0.4264448881149292,0.3238143920898437,0.0601904094219207,0.02569948323071,-0.0018642111681401,-0.0472710691392421
1.7726343054107185e+18,2.168718505859375,-0.3016334772109985,0.3666629791259765,-0.0116189122200012,0.0217047445476055,-0.0330231711268425,-0.0478036999702453
1.7726343054307118e+18,2.1887119140625,-0.4285359382629394,0.3314075469970703,-0.1968468427658081,0.0238352715969085,-0.0607200190424919,-0.0419447496533393
1.772634305450705e+18,2.208704833984375,-0.5175098180770874,0.3482036590576172,-0.2886793613433838,0.0315584316849708,-0.0711063370108604,-0.0272973775863647
1.7726343054706982e+18,2.2286982421875,-0.4675967693328857,0.4841527938842773,-0.2975889444351196,0.013715268112719,-0.0247673764824867,0.0075900023803114
1.7726343054906913e+18,2.24869140625,-0.4798769950866699,0.7216911315917969,-0.2747028470039367,-0.0296942200511693,0.0442084372043609,0.0448742248117923
1.7726343055106844e+18,2.268684326171875,-0.3224655389785766,0.8879909515380859,-0.2102663516998291,-0.03795001283288,0.1118526682257652,0.0933437198400497
1.7726343055306778e+18,2.288677734375,-0.0791270732879638,0.5834522247314453,-0.1039661765098571,-0.0105194775387644,0.1137168779969215,0.1703090071678161
1.7726343055506708e+18,2.3086708984375,0.069948673248291,-0.0679750442504882,0.0657534003257751,-0.0017310532275587,0.0548610724508762,0.2451437711715698
1.7726343055706642e+18,2.328664306640625,-0.140758991241455,-0.4529085159301758,0.1160368919372558,-0.0083889504894614,-0.0186421126127243,0.2648511528968811
1.772634305590657e+18,2.348656982421875,-0.3595806360244751,-0.1645336151123047,-0.4282838106155395,-0.0225036926567554,-0.0846884474158287,0.2459427118301391
1.7726343056106488e+18,2.36864892578125,0.290920615196228,0.3762550354003906,-1.236763834953308,-0.0544615983963012,-0.1027979329228401,0.2334258705377578
1.7726343056306406e+18,2.388640625,0.7594611644744873,0.5515785217285156,-1.9392398595809937,-0.0451405420899391,-0.0852210819721221,0.2779006361961365
1.7726343056506324e+18,2.408632568359375,1.128152847290039,-0.0697212219238281,-2.6751928329467773,-0.0142478998750448,-0.0716389715671539,0.3484743237495422
1.7726343056706245e+18,2.42862451171875,1.3062134981155396,-1.059779167175293,-3.0270650386810303,0.0390152782201767,-0.048469491302967,0.3713774979114532
1.7726343056906163e+18,2.4486162109375,1.1687395572662354,-1.7329578399658203,-2.4647107124328613,0.0472710691392421,-0.0005326317623257,0.3631217181682586
1.7726343057106081e+18,2.468608154296875,0.628752589225769,-1.5907411575317385,-1.1476503610610962,0.0155794788151979,0.0820252895355224,0.3950796127319336
1.7726343057306e+18,2.488599853515625,0.2212997674942016,-0.3384990692138672,-0.2419300079345703,0.0286289565265178,0.0391484349966049,0.4523375332355499
1.7726343057505917e+18,2.508591796875,0.2486634254455566,0.9460554122924804,0.0497291088104248,0.0560594946146011,-0.1185105666518211,0.4832301735877991
1.7726343057705843e+18,2.528584228515625,0.224100112915039,1.448198318481445,-0.1039632558822631,0.1085237190127372,-0.3352916836738586,0.462457537651062
1.7726343057905766e+18,2.54857666015625,0.1609202623367309,1.3678483963012695,-0.4174814224243164,0.1468732059001922,-0.539289653301239,0.372442752122879
1.7726343058105692e+18,2.5685693359375,0.4411839246749878,1.1025257110595703,-0.5976192355155945,0.1559279412031173,-0.6743118166923523,0.1820269078016281
1.7726343058305618e+18,2.588561767578125,0.3784201145172119,1.0972919464111328,-0.8407173156738281,0.1103879362344741,-0.7307707667350769,-0.0475373864173889
1.772634305850554e+18,2.60855419921875,0.2997289896011352,1.280137062072754,-1.1616759300231934,0.0728373900055885,-0.6663223505020142,-0.1948100626468658
1.7726343058705467e+18,2.628546630859375,0.0813720226287841,1.1548738479614258,-1.1719036102294922,0.0355531685054302,-0.5613938570022583,-0.2568616569042206
1.7726343058905393e+18,2.648539306640625,0.0904316902160644,0.9773006439208984,-1.160412073135376,-0.0051931599155068,-0.4119906723499298,-0.2456763982772827
1.7726343059105316e+18,2.668531494140625,0.5402344465255737,0.8581905364990234,-1.2391376495361328,-0.0536626502871513,-0.2506032586097717,-0.2219742834568023
1.7726343059305242e+18,2.688524169921875,0.9234899282455444,0.6987056732177734,-1.4447226524353027,-0.0917458236217498,-0.1994705945253372,-0.2496711313724517
1.7726343059505167e+18,2.708516845703125,0.852073073387146,0.4933881759643554,-1.5137436389923096,-0.1399489939212799,-0.1946769058704376,-0.2688458859920501
1.772634305970509e+18,2.728509033203125,0.7602944374084473,0.3531217575073242,-1.537542700767517,-0.1780321598052978,-0.2338253408670425,-0.2797648310661316
1.7726343059905016e+18,2.748501708984375,0.7384990453720093,0.4733343124389648,-1.24321186542511,-0.235822707414627,-0.2644516825675964,-0.3468764424324035
1.7726343060104942e+18,2.768494140625,0.78853440284729,0.6703891754150391,-0.8361914157867432,-0.2901511490345001,-0.2492716610431671,-0.3849596083164215
1.7726343060304865e+18,2.788486572265625,1.043648362159729,0.7813425064086914,-0.9770276546478271,-0.2925480008125305,-0.1872200667858123,-0.3466101288795471
1.772634306050479e+18,2.80847900390625,1.339816927909851,0.8353824615478516,-1.552854061126709,-0.2483395636081695,-0.1182442530989646,-0.2640521824359894
1.7726343060704717e+18,2.8284716796875,2.205697536468506,-0.2768507003784179,-1.8194434642791748,-0.2190448194742202,-0.0753673911094665,-0.1924132257699966
1.772634306090464e+18,2.848464111328125,1.605156183242798,-3.494449615478516,-1.2215757369995115,-0.1774995326995849,-0.0921452939510345,-0.1308942586183548
1.7726343061104566e+18,2.86845654296875,0.8594402074813843,-4.356189727783203,0.6361899971961975,-0.165781632065773,-0.114249512553215,-0.0736363381147384
1.7726343061304492e+18,2.88844921875,0.4166176319122314,-1.4406862258911133,2.3289406299591064,-0.1796300560235977,-0.1400821506977081,-0.0525973848998546
1.7726343061504417e+18,2.908441650390625,0.2216442823410034,1.7922344207763672,1.9454803466796875,-0.2075932323932647,-0.1581916362047195,-0.094941608607769
1.7726343061704343e+18,2.928434326171875,0.772232174873352,2.6932191848754883,0.4369513988494873,-0.1418132036924362,-0.1155810952186584,-0.1364868879318237
1.772634306190427e+18,2.948427001953125,0.5691111087799072,0.7891397476196289,-0.1490376889705658,0.2265016585588455,0.1187768802046775,-0.0387489609420299
1.7726343062104192e+18,2.968419189453125,-0.7647624611854553,-1.444868087768555,-0.4627753496170044,0.2006690204143524,0.1512674242258072,-0.0147805316373705
1.7726343062304118e+18,2.988411865234375,-1.092312932014465,-2.4791259765625,0.0295819640159606,0.1322258412837982,0.2300969213247299,0.0150468470528721
1.7726343062504044e+18,3.008404296875,-1.4535824060440063,-1.1551361083984375,1.6449005603790283,0.0448742248117923,0.392549604177475,0.0712395012378692
1.772634306270397e+18,3.02839697265625,-1.719106674194336,0.4443511962890625,3.1279571056365967,0.094941608607769,0.4279696345329284,0.1556616276502609
1.7726343062903895e+18,3.048389404296875,-1.7424644231796265,1.1796445846557615,2.861964225769043,0.1897500604391098,0.2623211443424225,0.1127847731113433
1.772634306310382e+18,3.068382080078125,-1.0582267045974731,0.7126216888427734,0.9978772401809692,0.2113216519355774,0.0993358269333839,-0.022770008072257
1.7726343063303747e+18,3.088374755859375,-0.9158313274383544,-0.7727937698364258,-1.428694725036621,0.2323606014251709,0.0069242129102349,-0.1849563866853714
1.772634306350367e+18,3.108366943359375,-0.8531665205955505,-1.545628547668457,-2.4494333267211914,0.2057290226221084,0.0412789620459079,-0.2965427339076996
1.7726343063703596e+18,3.128359619140625,-0.4360436201095581,-0.6659832000732422,-1.8207929134368896,0.0613858103752136,0.2181127071380615,-0.3900195956230163
1.7726343063903521e+18,3.14835205078125,-0.5305776596069336,0.7475252151489258,-0.796579122543335,-0.0904142409563064,0.5052012205123901,-0.403868019580841
1.7726343064103447e+18,3.1683447265625,-0.5537682175636292,1.2072677612304688,0.2839881479740143,-0.1223721504211425,0.7688539624214172,-0.3008037805557251
1.7726343064303373e+18,3.188337158203125,-0.4394090175628662,0.6968965530395508,0.7648932933807373,-0.1777658462524414,0.8886960744857788,-0.0608531795442104
1.7726343064503299e+18,3.208329833984375,-0.630008339881897,0.5240640640258789,0.1282628774642944,-0.1900163739919662,0.8069370985031128,0.0699079185724258
1.7726343064703224e+18,3.228322509765625,-0.5165621638298035,0.6983842849731445,-0.895159900188446,-0.1242363601922988,0.6471475958824158,0.0102531611919403
1.7726343064903148e+18,3.248314697265625,-0.1984790563583374,0.7782421112060547,-1.88646137714386,-0.1047952994704246,0.5278380513191223,-0.1748363822698593
1.7726343065103073e+18,3.268307373046875,-0.0076225996017456,0.7986345291137695,-2.346406936645508,-0.1122521460056305,0.4535359442234039,-0.4363585710525512
1.7726343065303e+18,3.2882998046875,-0.1728229522705078,0.9609336853027344,-2.4489011764526367,-0.101066879928112,0.3997401297092438,-0.6563354730606079
1.7726343065502925e+18,3.30829248046875,-0.4694781303405761,0.9158830642700196,-2.186847925186157,-0.0826910808682441,0.4631233215332031,-0.7117291688919067
1.772634306570285e+18,3.32828515625,-0.5052357912063599,0.4874191284179687,-1.6851811408996582,-0.0376836955547332,0.5323654413223267,-0.595349133014679
1.7726343065902776e+18,3.348277587890625,-0.7365655303001404,0.1500167846679687,-1.0393548011779783,0.0446079112589359,0.5323654413223267,-0.3940143585205078
1.7726343066102705e+18,3.3682705078125,-1.349086880683899,0.3314476013183594,-1.0181361436843872,0.1250353008508682,0.4274369776248932,-0.2499374598264694
1.7726343066302636e+18,3.388263671875,-0.971750557422638,0.2468500137329101,-1.8239505290985107,0.181494265794754,0.3059969544410705,-0.1817605942487716
1.7726343066502564e+18,3.40825634765625,-0.5870689153671265,0.1917037963867187,-2.2827816009521484,0.2051963806152343,0.2596579790115356,-0.204397439956665
1.7726343066702492e+18,3.428249267578125,-1.0718650817871094,0.7877073287963867,-2.525970697402954,0.1958753317594528,0.3067958950996399,-0.2720416784286499
1.772634306690242e+18,3.448241943359375,-2.1329104900360107,0.8525724411010742,-2.941612720489502,0.1535311043262481,0.3912180364131927,-0.3372890651226043
1.772634306730228e+18,3.48822802734375,0.8408267498016357,-0.7801103591918945,-0.5367809534072876,0.0523310713469982,0.4410190880298614,-0.3218427300453186
1.7726343067502208e+18,3.508220703125,0.0216118097305297,-1.7108898162841797,-0.3064104616641998,0.0291615892201662,0.3709780275821686,-0.2624543011188507
1.7726343067702136e+18,3.528213623046875,-1.1797696352005005,-2.0490198135375977,-0.3452151119709015,0.0185089539736509,0.1890842765569687,-0.2004027068614959
1.7726343067902067e+18,3.548206787109375,-1.4553271532058716,-1.1587772369384766,0.9835951924324036,-0.0006657897029072,0.0593884401023387,-0.1021321415901184
1.7726343068101996e+18,3.568199462890625,0.0482053756713867,0.0937042236328125,2.82709002494812,-0.2395511418581009,0.1073253005743026,0.003328948514536
1.7726343068301924e+18,3.5881923828125,2.0215306282043457,1.213483810424805,2.7087244987487797,-0.4994754493236542,0.4189148843288421,0.1268995106220245
1.7726343068501855e+18,3.608185546875,2.8179428577423096,-0.0225706100463867,0.3644006252288818,-0.4520712196826935,0.1747032105922699,0.3753722310066223
1.7726343068701783e+18,3.62817822265625,2.136005163192749,-4.35274600982666,-1.48108172416687,-0.3466101288795471,-0.3419495820999145,0.6153228282928467
1.7726343068901711e+18,3.648171142578125,1.7641788721084597,-6.870255470275879,-1.848392963409424,-0.2688458859920501,-0.4351601600646972,0.7889608144760132
1.772634306930157e+18,3.688156982421875,0.4439697265625,0.3879938125610351,0.0963839888572692,-0.4241080284118652,-0.1166463568806648,0.9583377242088318
1.772634306970143e+18,3.72814306640625,1.0665099620819092,2.321672916412353,1.3490427732467651,-0.44354909658432,0.2106558680534362,0.999350368976593
1.7726343069901358e+18,3.7481357421875,0.514478325843811,1.4189348220825195,1.1002141237258911,-0.0693752840161323,0.3885548710823059,0.9538103342056274
1.7726343070101286e+18,3.768128662109375,0.1448533535003662,0.7221279144287109,0.3985280394554138,0.2888195812702179,0.2735064029693603,0.8866987228393555
1.7726343070301215e+18,3.78812158203125,-0.3247659206390381,0.9575700759887696,-0.1347355246543884,0.3218427300453186,-0.1257010996341705,0.6118607521057129
1.7726343070501146e+18,3.808114501953125,-0.7283523082733154,2.3401451110839844,0.0498129725456237,0.1862879544496536,-0.7765771150588989,0.2233058661222458
1.7726343070701074e+18,3.828107421875,-0.5986049175262451,3.525962352752685,0.5366973876953125,0.0944089815020561,-1.2849740982055664,-0.0315584316849708
1.7726343070901005e+18,3.8481005859375,0.3217642307281494,3.3834686279296875,0.7578557133674622,0.1737711131572723,-1.3046815395355225,0.0992026627063751
1.7726343071100948e+18,3.8680947265625,0.4958658218383789,2.6022257804870605,-0.0366420149803161,0.2893522083759308,-1.1590067148208618,0.3095922172069549
1.7726343071300895e+18,3.88808935546875,0.7810430526733398,1.8567161560058596,-1.827612400054932,0.3721764385700226,-1.0293108224868774,0.4320975244045257
1.7726343071700782e+18,3.928078125,0.5690116882324219,0.4599409103393554,-2.078001022338867,0.3380880057811737,-0.6633928418159485,0.2760364115238189
1.7726343071900726e+18,3.948072509765625,1.4185729026794434,-0.5358390808105469,-0.573068380355835,0.1929458528757095,-0.564323365688324,0.110920563340187
1.772634307210067e+18,3.96806689453125,0.9236363172531128,-1.743025779724121,1.5350152254104614,-0.0065247388556599,-0.5305012464523315,-0.0280963256955146
1.7726343072300613e+18,3.988061279296875,-0.6676863431930542,-1.5135860443115234,0.791316032409668,-0.1910816431045532,-0.5062664747238159,-0.2155826985836029
1.772634307250056e+18,4.008055908203125,1.1291048526763916,0.6901359558105469,-2.010000705718994,-0.372442752122879,-0.5997433662414551,-0.460326999425888
1.7726343072700503e+18,4.02805029296875,2.2927441596984863,2.9477744102478027,-5.05349063873291,-0.4454133212566376,-0.5099949240684509,-0.5692501664161682
1.7726343072900447e+18,4.048044677734375,5.036043167114258,-1.8992118835449217,-2.271084785461426,-0.3908185660839081,-0.3371559083461761,-0.4424838423728943
1.772634307310039e+18,4.0680390625,2.4827146530151367,-8.942252159118652,2.809485912322998,-0.3292995989322662,-0.4055990874767303,-0.2254363894462585
1.7726343073300334e+18,4.088033447265625,-4.185782909393311,-4.854955673217773,4.788486003875732,-0.2366216629743576,-0.4202464520931244,0.0291615892201662
1.7726343073700224e+18,4.1280224609375,-2.2017393112182617,3.064744472503662,4.719815731048584,0.0856205523014068,-0.3294327557086944,0.02569948323071
1.7726343073900168e+18,4.148016845703125,-1.1032159328460691,-0.1532831192016601,1.8472962379455569,-0.0882837176322937,0.0276968516409397,0.1359542608261108
1.7726343074100111e+18,4.16801123046875,-0.6469748020172119,-2.939668655395508,-1.3037288188934326,-0.073370024561882,0.2426137626171112,0.4462122619152069
1.7726343074300055e+18,4.188005615234375,-0.7998180389404297,-2.212127685546875,-0.848767876625061,0.0462058037519454,0.4146538376808166,0.834500789642334
1.77263430745e+18,4.207999755859375,-1.0799504518508911,0.9805307388305664,1.9919558763504028,0.5383575558662415,-0.2250369191169738,0.5255743861198425
1.7726343074699942e+18,4.227994140625,-1.8098005056381223,2.1200995445251465,3.466381311416626,0.7141260504722595,-0.449008584022522,-0.1261005699634552
1.7726343074899889e+18,4.24798876953125,-1.963820457458496,-0.2105159759521484,2.113802671432495,0.1945437490940094,-0.3227748572826385,-0.3559311628341675
1.7726343075099832e+18,4.267983154296875,-1.416096568107605,-3.455230712890625,-0.304423987865448,0.116779513657093,0.1683116406202316,-0.3561974763870239
1.7726343075299776e+18,4.2879775390625,-1.3698182106018066,-2.301551818847656,-1.837715029716492,0.0989363491535186,0.3310306370258331,-0.322109043598175
1.772634307549972e+18,4.307971923828125,-0.2788426876068115,1.216474533081055,-0.9123340845108032,0.2648511528968811,0.3222422301769256,-0.1050616130232811
1.7726343075699663e+18,4.32796630859375,-0.2584564685821533,2.8659920692443848,0.7085294127464294,0.3516701161861419,0.4956138432025909,0.2166479676961898
1.7726343075899607e+18,4.347960693359375,-0.7961078882217407,2.768075466156006,1.2170462608337402,0.1282310932874679,0.5619264841079712,0.2733732461929321
1.7726343076099548e+18,4.367954833984375,-0.4395665526390075,2.017293930053711,-0.7480933666229248,-0.1727058440446853,0.6285054683685303,-0.0560594946146011
1.7726343076299487e+18,4.38794873046875,-0.0088751316070556,1.0482044219970703,-2.5495710372924805,-0.4187817275524139,0.7358307838439941,-0.5207806825637817
1.7726343076499428e+18,4.40794287109375,-0.2305964231491089,0.5686893463134766,-2.82045841217041,-0.4400869905948639,0.8825708031654358,-0.8374302983283997
1.772634307669937e+18,4.42793701171875,-0.4946683049201965,0.9722156524658204,-2.399755954742432,-0.2810963988304138,1.074318289756775,-0.6707165241241455
1.772634307689931e+18,4.447930908203125,-0.4475541710853576,1.6930780410766602,-2.157768726348877,-0.1729721575975418,1.247689962387085,-0.2294311374425888
1.7726343077099249e+18,4.4679248046875,-0.2906177043914795,1.4472980499267578,-1.647234559059143,-0.094941608607769,1.1161298751831057,-0.1266331970691681
1.772634307729919e+18,4.4879189453125,-0.527313768863678,0.3407964706420898,-0.8218228816986084,-0.1700426936149597,0.8407592177391052,-0.5077311992645264
1.772634307749913e+18,4.5079130859375,-0.5339111685752869,-1.0444345474243164,-1.194250226020813,-0.2363553494215011,0.6282391548156738,-0.9775124192237854
1.772634307769907e+18,4.527906982421875,-0.3670327663421631,-1.268385887145996,-2.081425666809082,-0.1372858434915542,0.5616601705551147,-0.9311735033988952
1.772634307789901e+18,4.547901123046875,-0.5547351837158203,0.6288127899169922,-2.7349226474761963,0.0019973691087216,0.5320991277694702,-0.5676522850990295
1.7726343078098952e+18,4.567895263671875,-1.4999369382858276,1.8876872062683103,-3.2562472820281982,0.0563258081674575,0.4340948760509491,-0.355664849281311
1.772634307829889e+18,4.587888916015625,-1.0681301355361938,1.4016103744506836,-2.487318992614746,0.1111868768930435,0.339819073677063,-0.3727090656757355
1.7726343078498831e+18,4.607883056640625,0.2594819068908691,0.1340560913085937,-0.2649992406368255,0.1617868989706039,0.3824295997619629,-0.4097269773483276
1.7726343078698772e+18,4.627877197265625,-0.9242533445358276,-0.7404327392578125,-0.1115332245826721,0.1607216298580169,0.4319643676280975,-0.3929490745067596
1.772634307889871e+18,4.64787109375,-0.8533061742782593,-0.9724016189575196,-0.2989773750305176,0.1506016254425048,0.366716980934143,-0.4219775199890136
1.7726343079098652e+18,4.667865234375,-0.5186876058578491,-0.6927757263183594,1.7168607711791992,0.1948100626468658,0.2958769500255584,-0.4044006764888763
1.7726343079298593e+18,4.687859375,2.3443493843078613,-1.6112489700317385,2.752537965774536,0.1556616276502609,0.1525990068912506,-0.3021353781223297
1.7726343079498534e+18,4.707853515625,3.157911539077759,-4.756045341491699,1.6193783283233645,0.0565921254456043,-0.0245010610669851,-0.1300953030586242
1.7726343079698473e+18,4.727847412109375,1.4553476572036743,-6.112375259399414,-0.4838566780090332,-0.26325324177742,-0.0069242129102349,0.0336889587342739
1.7726343079898414e+18,4.74784130859375,0.979577898979187,-4.708642959594727,-1.3482141494750977,-0.5032038688659668,0.3273022174835205,0.2438121885061264
1.7726343080098355e+18,4.76783544921875,0.5875141620635986,-2.201345443725586,-1.4653489589691162,-0.5410206913948059,0.1568600535392761,0.6406228542327881
1.7726343080498235e+18,4.807823486328125,1.3038657903671265,1.4603662490844729,0.3943890333175659,-0.4107922613620758,-0.3696464300155639,0.9452882409095764
1.7726343080698176e+18,4.827817626953125,1.3151389360427856,1.8233847618103027,0.9291870594024658,-0.3372890651226043,-0.2737727165222168,1.1953588724136353
1.7726343080898115e+18,4.8478115234375,0.4585913419723511,1.2612829208374023,1.0062503814697266,-0.3050648272037506,0.2058621793985366,1.3527514934539795
1.7726343081098056e+18,4.8678056640625,-0.0505405664443969,0.7714452743530273,1.0774827003479004,-0.0174436904489994,0.3518032729625702,1.4286515712738037
1.7726343081297994e+18,4.88779931640625,-0.5909424424171448,1.9330816268920896,1.0096158981323242,0.1652490049600601,-0.1014663502573967,1.1578083038330078
1.7726343081497933e+18,4.907793212890625,-0.7666465044021606,3.972271919250488,0.8049612641334534,0.062717393040657,-0.6956170797348022,0.5969470739364624
1.7726343081697871e+18,4.927787109375,-1.2005901336669922,4.866067886352539,1.218505620956421,-0.0403468571603298,-1.065796136856079,0.0938763469457626
1.7726343081897812e+18,4.94778125,-0.8696027994155884,4.47899866104126,1.3911314010620115,-0.1037300378084182,-1.176050901412964,-0.0331563279032707
1.772634308209775e+18,4.967775146484375,-0.1283824443817138,3.290091037750244,0.1932789981365203,-0.0456731729209423,-1.2644678354263306,0.1498026847839355
1.772634308229769e+18,4.98776904296875,0.68044114112854,2.0426278114318848,-1.895230054855347,0.1231710985302925,-1.4349099397659302,0.3729753792285919
1.772634308249763e+18,5.00776318359375,0.9718012809753418,0.7655792236328125,-3.0419921875,0.3101248443126678,-1.4319804906845093,0.4499406814575195
1.772634308269757e+18,5.0277568359375,1.2068158388137815,-0.8106155395507812,-2.1323723793029785,0.3444795906543731,-1.1696593761444092,0.2933469414710998
1.7726343082897508e+18,5.047750732421875,1.894394874572754,-2.1929855346679688,0.7708789110183716,0.2416816651821136,-0.9784445762634276,0.0448742248117923
1.772634308309745e+18,5.067744873046875,0.3648560047149658,-2.750882148742676,2.7019991874694824,0.1532647907733917,-0.8356992602348328,-0.0568584389984607
1.7726343083297388e+18,5.08773876953125,-0.6387627720832825,-1.7543115615844729,-0.0334283411502838,0.0166447423398494,-0.7166560292243958,-0.0715058147907257
1.7726343083497326e+18,5.107732666015625,3.037132501602173,-1.3561887741088867,-3.521634101867676,-0.1772332191467285,-0.545414924621582,-0.2131858617067337
1.7726343083697265e+18,5.1277265625,3.568321704864502,-7.137534141540527,-1.8835361003875728,-0.3479416966438293,-0.4079959392547607,-0.4478101432323456
1.7726343083897206e+18,5.147720458984375,-0.3708549737930298,-7.415121078491211,3.7592148780822754,-0.4629901647567749,-0.3456780016422272,-0.5972133874893188
1.7726343084097144e+18,5.16771435546875,-0.6463339328765869,1.884842872619629,4.670708656311035,-0.4286354184150696,-0.3451453745365143,-0.506932258605957
1.7726343084297083e+18,5.187708251953125,-1.4162378311157229,6.5518107414245605,3.660062313079834,-0.3082606196403503,-0.3920169770717621,-0.2312953472137451
1.7726343084497024e+18,5.207702392578125,-2.291809558868408,4.588212966918945,2.3731422424316406,-0.1327584683895111,-0.304132729768753,0.0776310786604881
1.77263430848969e+18,5.247690185546875,-2.025306940078736,-8.319866180419922,-1.393242597579956,0.1247689872980117,-0.3741738200187683,0.0984037145972251
1.7726343085096842e+18,5.267684326171875,-1.08585786819458,-3.560423851013184,0.506048321723938,0.0243679024279117,-0.3571296036243438,-0.0936100333929061
1.772634308529678e+18,5.287677978515625,-0.7166051864624023,3.257629871368408,3.439449548721313,-0.0267647467553615,0.2143842875957489,0.1846900582313537
1.772634308549672e+18,5.307671875,-2.0087928771972656,3.7463765144348153,4.698122501373291,0.689358651638031,0.5472791194915771,0.8366313576698303
1.7726343085696658e+18,5.327665771484375,-1.6747961044311523,0.8049697875976562,2.0370912551879883,0.877910315990448,0.5054675340652466,0.8882966041564941
1.7726343085896594e+18,5.347659423828125,-1.0675721168518066,-2.6978445053100586,-2.028808116912842,0.4086617231369018,0.2814958989620209,0.3476753830909729
1.7726343086096515e+18,5.3676513671875,-1.7736241817474363,-2.3636064529418945,-3.138612031936645,0.1884184926748275,0.2005358636379242,0.0872184485197067
1.7726343086296435e+18,5.3876435546875,-0.711732804775238,1.088231086730957,-1.1379508972167969,0.133291095495224,0.2572611272335052,-0.2190448194742202
1.7726343086496356e+18,5.407635498046875,-0.3911808729171753,3.1810522079467773,0.9834727644920348,0.106126882135868,0.0242347456514835,-0.6579334139823914
1.7726343086696274e+18,5.42762744140625,-0.7801662683486938,2.8485913276672363,1.44209623336792,0.2533995509147644,-0.1443432122468948,-0.7948197722434998
1.7726343086896195e+18,5.447619384765625,-0.5429863333702087,1.80479097366333,-1.0300027132034302,0.0938763469457626,0.0905473977327346,-0.2917490601539612
1.7726343087096115e+18,5.467611572265625,-0.244475245475769,0.7932662963867188,-3.0390048027038574,0.0808268710970878,0.442350685596466,0.0680437088012695
1.7726343087296033e+18,5.487603271484375,-0.2997056245803833,1.0560951232910156,-3.0696935653686523,-0.0073236869648098,0.7584676146507263,-0.0499342270195484
1.7726343087495954e+18,5.507595458984375,-0.1998801231384277,1.9965944290161133,-2.0600953102111816,-0.3455448448657989,0.8647276759147644,-0.5703154802322388
1.7726343087695875e+18,5.52758740234375,-0.3331301212310791,1.9404754638671875,-1.4372477531433103,-0.3538006544113159,0.939562439918518,-0.905873477458954
1.7726343087895793e+18,5.547579345703125,-0.6674280762672424,0.7157516479492188,-1.4456984996795654,-0.2179795503616333,1.0879004001617432,-0.6877607703208923
1.7726343088095713e+18,5.5675712890625,-0.67782062292099,-1.0310707092285156,-1.5347881317138672,-0.209457442164421,1.1622024774551392,-0.2169142812490463
1.7726343088295634e+18,5.5875634765625,-0.5849417448043823,-1.059465408325195,-2.372886180877685,-0.0984037145972251,0.939562439918518,-0.116779513657093
1.7726343088495552e+18,5.60755517578125,-0.6437351703643799,0.8013734817504883,-3.639591693878174,-0.1135837212204933,0.6540718078613281,-0.5460807085037231
1.7726343088695473e+18,5.62754736328125,-1.5149294137954712,1.815240859985352,-3.627021551132202,-0.1450089961290359,0.5091959834098816,-1.0704567432403564
1.7726343088895393e+18,5.647539306640625,1.4884670972824097,0.7238140106201172,-1.419550895690918,-0.0608531795442104,0.4793685972690582,-1.0185251235961914
1.7726343089095311e+18,5.66753125,1.3705966472625732,-0.453033447265625,-0.051885575056076,0.0448742248117923,0.5121254324913025,-0.6478133797645569
1.7726343089295232e+18,5.687523193359375,-1.213212013244629,-1.9949121475219729,-0.4518496394157409,0.0986700356006622,0.5840307474136353,-0.4012048840522766
1.7726343089495153e+18,5.707515380859375,-2.6789417266845703,-2.404176712036133,0.8109142184257507,0.1415468901395797,0.6008086204528809,-0.4193143546581268
1.772634308969507e+18,5.727507080078125,0.0720201730728149,-2.3369903564453125,3.294827699661255,0.1543300598859787,0.6069338917732239,-0.5079975724220276
1.7726343089894991e+18,5.7474990234375,3.3884434700012207,-3.607158660888672,3.924201011657715,0.188684806227684,0.6343644261360168,-0.5388901829719543
1.7726343090094912e+18,5.7674912109375,2.7221460342407227,-4.70701789855957,1.9031860828399656,0.187619537115097,0.591221272945404,-0.4693817496299743
1.772634309029483e+18,5.78748291015625,1.1211003065109253,-3.93830680847168,-0.4698489308357239,0.1239700391888618,0.3805654048919678,-0.2158490270376205
1.7726343090694671e+18,5.827467041015625,0.7490942478179932,-1.991454124450684,-1.282210111618042,0.0065247388556599,0.1552621573209762,0.0502005442976951
1.7726343090894592e+18,5.847459228515625,0.880703330039978,-0.0443325042724609,-0.614906370639801,-0.508263885974884,0.3022685348987579,0.2217079699039459
1.7726343091094533e+18,5.867453369140625,1.168124437332153,1.6877470016479492,0.2403026819229126,-0.5657880902290344,0.2724411487579345,0.5556681156158447
1.7726343091294472e+18,5.887447265625,0.4717907905578613,2.233691692352295,0.8210347294807434,-0.4616585671901703,-0.6253097057342529,1.02012300491333
1.772634309149441e+18,5.90744091796875,-0.1245234012603759,2.055354595184326,0.887506902217865,-0.3042658865451813,-0.9350350499153136,1.1887009143829346
1.772634309169435e+18,5.927434814453125,-0.1281173229217529,1.7827978134155271,0.6718964576721191,-0.4118575155735016,-0.2415485084056854,1.3186631202697754
1.772634309189429e+18,5.947428955078125,-0.1155482530593872,2.4918532371521,0.7506315112113953,-0.2917490601539612,0.4311653971672058,1.4286515712738037
1.7726343092094228e+18,5.9674228515625,-0.7717673182487488,3.923983573913574,0.9084292650222778,0.0027963167522102,0.3805654048919678,1.1546125411987305
1.7726343092294167e+18,5.987416748046875,-1.0072360038757324,4.563173770904541,1.185654878616333,0.1926795393228531,-0.0793621316552162,0.5974797010421753
1.7726343092494106e+18,6.00741064453125,-0.4510015249252319,4.449202060699463,0.4061356782913208,0.1537974178791046,-0.5579317808151245,0.209457442164421
1.7726343092694044e+18,6.027404296875,0.3044042587280273,3.770759105682373,-1.495034098625183,0.0440752767026424,-0.9219855666160583,-0.0193079020828008
1.7726343092893985e+18,6.0473984375,0.8142542839050293,2.4522523880004883,-2.663193464279175,0.02490053512156,-1.0578067302703855,-0.017710005864501
1.7726343093093924e+18,6.067392333984375,0.8965617418289185,0.3866529464721679,-2.5498716831207275,0.1175784617662429,-1.1960246562957764,0.2749711573123932
1.7726343093293862e+18,6.08738623046875,1.420280933380127,-1.643903732299805,-0.6585181951522827,0.2629869282245636,-1.3369057178497314,0.5535375475883484
1.77263430934938e+18,6.107380126953125,1.104067325592041,-3.099233627319336,2.4336724281311035,0.2946785092353821,-1.1733877658843994,0.5199817419052124
1.7726343093693742e+18,6.127374267578125,-0.8823106288909912,-2.930625915527344,1.5092995166778564,0.247540608048439,-0.8623307943344116,0.2826943099498749
1.772634309389368e+18,6.1473681640625,1.9518396854400637,-1.0181865692138672,-1.7442806959152222,0.171906903386116,-0.7653918266296387,0.0659131780266761
1.772634309409362e+18,6.16736181640625,4.055001258850098,-5.112133026123047,-1.8997387886047363,0.0659131780266761,-0.8543413281440735,-0.0858868733048439
1.7726343094293558e+18,6.187355712890625,0.2453106641769409,-10.42208194732666,3.118823766708374,-0.1103879362344741,-0.8165245056152344,-0.2254363894462585
1.7726343094493496e+18,6.207349609375,-2.139443874359131,-1.8433427810668943,5.325250625610352,-0.3250385224819183,-0.6455497145652771,-0.4557996392250061
1.7726343094693437e+18,6.22734375,-1.2673473358154297,6.358567714691162,4.40481424331665,-0.4443480372428894,-0.4724443852901459,-0.5945501923561096
1.7726343094893376e+18,6.247337646484375,-1.7295926809310913,7.090985298156738,2.16888689994812,-0.4304996132850647,-0.4450138509273529,-0.5479449033737183
1.7726343095093315e+18,6.26733154296875,0.0807372331619262,0.2352781295776367,0.691943347454071,-0.3620564341545105,-0.6551370620727539,-0.372442752122879
1.7726343095293253e+18,6.2873251953125,-1.5275859832763672,-7.795933723449707,-2.521115303039551,-0.198272168636322,-0.5954822897911072,-0.0025300008710473
1.7726343095493192e+18,6.307319091796875,-1.9882519245147705,-7.218434333801269,-1.436771035194397,0.0504668578505516,-0.570448637008667,0.3058637976646423
1.7726343095693133e+18,6.327313232421875,-0.5453505516052246,1.1143474578857422,2.4432249069213867,0.1095889881253242,-0.6048033833503723,0.1599226891994476
1.772634309589307e+18,6.347306884765625,-1.3984050750732422,4.427754878997803,5.046030521392822,-0.1388837248086929,-0.0961400344967842,0.2153163850307464
1.7726343096093002e+18,6.36730029296875,-1.7475736141204834,2.286496639251709,3.322027921676636,0.3684480190277099,0.440752774477005,0.5607280731201172
1.7726343096292933e+18,6.387293212890625,-0.8504471778869629,-1.3002309799194336,-1.2437641620635986,0.9607345461845398,0.5829654932022095,0.8438218832015991
1.7726343096492864e+18,6.407286376953125,-1.5014690160751345,-2.262694358825684,-3.2104201316833496,0.7165228724479675,0.5275717377662659,0.2842921912670135
1.7726343096692795e+18,6.427279541015625,-0.7194643616676331,0.642521858215332,-1.8250094652175903,0.2174469232559204,0.4061317145824432,0.0502005442976951
1.7726343096892726e+18,6.4472724609375,-0.3936988115310669,3.367100715637207,0.2828615009784698,0.0315584316849708,0.4905538558959961,-0.144476369023323
1.772634309709266e+18,6.467265869140625,-0.7212942242622375,3.4980921745300293,1.5625009536743164,-0.0129163200035691,0.3864243328571319,-0.4254396259784698
1.772634309729259e+18,6.487259033203125,-0.882402241230011,2.2782254219055176,-0.1234281808137893,0.3980090916156769,-0.1155810952186584,-0.7221155166625977
1.772634309749252e+18,6.507252197265625,-0.6231297850608826,0.9511890411376952,-2.56202244758606,0.1511342674493789,0.0141147412359714,-0.4086617231369018
1.7726343097692452e+18,6.5272451171875,-0.4660539031028747,0.5198898315429688,-3.106323719024658,-0.0621847584843635,0.4356927871704101,-0.0656468644738197
1.7726343097892383e+18,6.54723828125,-0.2015653848648071,0.874577522277832,-2.518455743789673,-0.0113184247165918,0.8074697256088257,-0.0110521093010902
1.7726343098092316e+18,6.567231689453125,-0.3566267490386963,1.1589422225952148,-1.9649536609649656,-0.252600610256195,0.8633961081504822,-0.341017484664917
1.7726343098292247e+18,6.587224609375,-0.5746921896934509,0.8490133285522461,-1.43705415725708,-0.3918838202953338,0.9012129306793212,-0.7570028901100159
1.7726343098492178e+18,6.6072177734375,-0.937862515449524,-0.3908004760742187,-1.334871530532837,-0.2816290557384491,1.051681399345398,-0.7604650259017944
1.772634309869211e+18,6.6272109375,-0.685601532459259,-1.041703224182129,-2.2799978256225586,-0.2826943099498749,1.1768498420715332,-0.3961448669433594
1.772634309889204e+18,6.647203857421875,-0.6943976283073425,0.5143489837646484,-3.76866626739502,-0.1745700538158416,0.9733845591545104,-0.1942774355411529
1.7726343099091973e+18,6.667197265625,-1.1149537563323977,1.8576931953430176,-4.514997005462647,-0.1335574090480804,0.6924213171005249,-0.4483428001403808
1.7726343099291904e+18,6.6871904296875,1.3133374452590942,0.8916101455688477,-2.5639467239379883,-0.1564605832099914,0.4564654231071472,-0.9969534873962402
1.7726343099491835e+18,6.70718359375,0.0455529689788818,-0.2942714691162109,-0.3237747251987457,-0.100001610815525,0.4298338294029236,-1.1112029552459717
1.7726343099691766e+18,6.727176513671875,-0.9048866629600524,-1.4907283782958984,-0.4669668972492218,0.0049268435686826,0.4900212287902832,-0.8094671368598938
1.772634310009163e+18,6.7671630859375,0.8700040578842163,-2.6424436569213867,3.77372407913208,0.0802942365407943,0.4814991056919098,-0.586294412612915
1.772634310029156e+18,6.787156005859375,3.23091459274292,-5.148468971252441,4.526556968688965,0.1836248040199279,0.4740422666072845,-0.574043869972229
1.7726343100491492e+18,6.807149169921875,1.4348163604736328,-6.904965400695801,3.296095132827759,0.2177132368087768,0.5400885939598083,-0.5607280731201172
1.7726343100691423e+18,6.827142333984375,0.2378392219543457,-4.531726837158203,0.8978216648101807,0.2288984954357147,0.5882917642593384,-0.4954806864261627
1.7726343100891356e+18,6.847135498046875,0.8906383514404297,-1.6198997497558594,-0.7891651391983032,0.1487374156713485,0.5616601705551147,-0.3189132809638977
1.7726343101091292e+18,6.867129150390625,0.9754143953323364,-0.1278228759765625,-1.629277229309082,0.0363521166145801,0.3496727645397186,-0.050999492406845
1.7726343101291228e+18,6.887122802734375,1.1519752740859983,1.0572261810302734,-1.752994418144226,-0.0864195004105568,0.023169482126832,0.2515353560447693
1.7726343101491164e+18,6.907116455078125,1.8248038291931152,1.5053377151489258,-1.0590314865112305,-0.454201728105545,0.065247394144535,0.529569149017334
1.77263431016911e+18,6.927110107421875,0.6332823038101196,1.1949615478515625,0.2464666366577148,-0.5157207250595093,-0.042610540986061,0.8550071120262146
1.7726343102090975e+18,6.967097412109375,-0.44302499294281,2.1878533363342285,1.0513129234313965,-0.5604617595672607,-0.7560707926750183,1.1602051258087158
1.772634310229091e+18,6.987091064453125,-0.8001736998558044,3.8252034187316895,1.110263466835022,-0.3964111804962158,-1.0910961627960205,1.268329381942749
1.7726343102490847e+18,7.007084716796875,-1.4424504041671753,4.915708541870117,1.1343863010406494,-0.3985417187213897,-0.5858949422836304,1.3053473234176636
1.7726343102690783e+18,7.027078369140625,-1.3696284294128418,4.674280166625977,1.128560185432434,-0.1039963513612747,0.0665789693593978,1.3759210109710691
1.7726343102890719e+18,7.04707177734375,-0.2832661867141723,4.015180587768555,0.0370494723320007,0.1641837358474731,0.1382179409265518,1.1961578130722046
1.7726343103090657e+18,7.067065673828125,1.09443998336792,2.946847438812256,-1.8771052360534668,0.1474058330059051,-0.1451421529054641,0.5500754714012146
1.7726343103290593e+18,7.087059326171875,1.232725739479065,1.2219085693359375,-2.5541300773620605,0.0818921327590942,-0.366716980934143,0.155129000544548
1.772634310349053e+18,7.107052978515625,1.258031129837036,-0.4812517166137695,-1.8844958543777464,0.0906805545091629,-0.5336970090866089,0.0547279119491577
1.7726343103690465e+18,7.127046630859375,1.7451732158660889,-2.017791748046875,0.0544281303882598,0.1322258412837982,-0.6972149610519409,0.1474058330059051
1.7726343103890404e+18,7.147040283203125,-0.2517520189285278,-2.9750747680664062,2.002814292907715,0.2182458639144897,-0.9715203046798706,0.4534027874469757
1.772634310409034e+18,7.167033935546875,-0.393069863319397,-2.703221321105957,0.4456628561019897,0.3732416927814483,-1.2732561826705933,0.6384923458099365
1.7726343104290276e+18,7.187027587890625,2.008080005645752,-0.0701770782470703,-3.063307523727417,0.370045930147171,-1.299887776374817,0.4749743640422821
1.7726343104490212e+18,7.207021240234375,4.962541580200195,-3.396337509155273,-1.9153144359588623,0.2802974581718445,-1.1203908920288086,0.2059953361749649
1.7726343104690148e+18,7.227014892578125,1.1228680610656738,-10.550728797912598,4.15997838973999,0.1748363822698593,-0.9696561098098756,-0.0374173820018768
1.7726343104890084e+18,7.24700830078125,-3.5229740142822266,-3.433489799499512,6.149132251739502,-0.1774995326995849,-0.7076013088226318,-0.2233058661222458
1.7726343105090022e+18,7.267002197265625,-3.5932435989379883,5.298830032348633,5.538521766662598,-0.4139880239963531,-0.5656549334526062,-0.4451470077037811
1.7726343105289958e+18,7.286995849609375,-2.305073499679565,5.238052845001221,4.279679298400879,-0.5159870386123657,-0.5579317808151245,-0.59002286195755
1.7726343105489894e+18,7.306989501953125,-0.1007684469223022,-1.0516242980957031,1.7083582878112793,-0.4326301515102386,-0.675909698009491,-0.5340964794158936
1.772634310568983e+18,7.326983154296875,-0.9093877673149108,-5.058401107788086,-2.7415473461151123,-0.3226417005062103,-0.7560707926750183,-0.3247722089290619
1.7726343105889766e+18,7.3469765625,-0.9657863974571228,-3.1312456130981445,-2.6423916816711426,-0.1521995216608047,-0.6641917824745178,0.0611194930970668
1.77263431060897e+18,7.366969970703125,-0.5925875902175903,1.170166015625,1.4894416332244873,0.1559279412031173,-0.6412886381149292,0.2355563938617706
1.7726343106289636e+18,7.386963623046875,-1.7704904079437256,1.8496642112731931,4.668210029602051,0.03795001283288,-0.320910632610321,0.1426121592521667
1.772634310648957e+18,7.40695703125,-2.234863042831421,-0.3825054168701172,2.98233413696289,-0.0355531685054302,0.1579253226518631,0.3761711716651916
1.7726343106689503e+18,7.4269501953125,-1.5559591054916382,-2.5149593353271484,-0.914512574672699,0.2965427339076996,0.5081307291984558,0.8001460433006287
1.7726343106889439e+18,7.44694384765625,-1.4652314186096191,-0.2272548675537109,-2.5826282501220703,0.8041408061981201,0.2553969323635101,0.7141260504722595
1.7726343107089372e+18,7.466937255859375,-0.1914945840835571,2.807857036590576,-1.1697096824645996,0.7109302282333374,0.2434127181768417,-0.0523310713469982
1.7726343107289306e+18,7.4869306640625,-0.1712175607681274,3.2279672622680664,1.1945905685424805,0.2651174664497375,0.3299653828144073,-0.3226417005062103
1.7726343107689175e+18,7.52691748046875,-0.7382501363754272,2.338036060333252,-1.2810337543487549,0.0946752950549125,0.6807034015655518,-0.3753722310066223
1.7726343107889108e+18,7.546910888671875,-0.2592878341674804,1.5170297622680664,-3.5632779598236084,0.0755005553364753,0.5379580855369568,-0.4472775161266327
1.7726343108089042e+18,7.566904296875,-0.1302635669708252,0.8856687545776367,-3.90446400642395,0.2792322039604187,0.1941442787647247,-0.4390217363834381
1.7726343108288975e+18,7.5868974609375,-0.2750056982040405,0.9406061172485352,-2.953589916229248,0.1356879472732544,0.5030707120895386,0.0307594835758209
1.772634310848891e+18,7.606890869140625,-0.4511861801147461,1.4325599670410156,-1.9468307495117188,-0.0334226414561271,0.8966856002807617,0.3111900985240936
1.7726343108688845e+18,7.626884521484375,-0.6891465783119202,1.053445816040039,-1.4195024967193604,-0.1229047775268554,0.8804402947425842,-0.0129163200035691
1.7726343108888778e+18,7.6468779296875,-0.7634191513061523,-0.5433664321899414,-1.872267484664917,-0.3261038064956665,0.7864307761192322,-0.7668565511703491
1.7726343109088712e+18,7.66687109375,-0.3817639350891113,-1.6590347290039062,-2.672511339187622,-0.4126564562320709,0.7419560551643372,-1.2606061697006226
1.7726343109288645e+18,7.686864501953125,-0.7668217420578003,0.0230979919433593,-3.4488205909729004,-0.301336407661438,0.95287823677063,-1.0190577507019043
1.772634310948858e+18,7.706858154296875,-1.1834454536437988,1.414229393005371,-3.2000844478607178,-0.2214416563510894,1.2077425718307495,-0.3338269591331482
1.7726343109688515e+18,7.7268515625,1.890342354774475,0.724212646484375,-0.9506214261054992,-0.0981374010443687,1.0415613651275637,-0.0989363491535186
1.7726343109888448e+18,7.7468447265625,0.2118341922760009,-0.4336538314819336,-0.3570266366004944,-0.1023984551429748,0.7009434103965759,-0.5849628448486328
1.7726343110088381e+18,7.766838134765625,-1.613825798034668,-2.614269256591797,-0.5664514899253845,-0.1322258412837982,0.5110601782798767,-1.0946913957595823
1.7726343110288317e+18,7.786831787109375,-1.960454225540161,-2.85135555267334,1.8170013427734373,-0.043010015040636,0.56911700963974,-0.990029275417328
1.772634311048825e+18,7.8068251953125,1.0628160238265991,-2.7507104873657227,4.034985065460205,0.0829573944211006,0.600275993347168,-0.5538038611412048
1.7726343110688184e+18,7.826818359375,3.837882041931152,-4.144305229187012,3.52493667602539,0.1599226891994476,0.4751075208187103,-0.2962764203548431
1.7726343110888118e+18,7.846811767578125,2.2628369331359863,-4.413997650146484,1.378826141357422,0.2241048067808151,0.3653853833675384,-0.3500722348690033
1.7726343111088044e+18,7.866804443359375,1.0425785779953003,-3.007343292236328,-0.6786598563194275,0.2246374487876892,0.3472759127616882,-0.4664522707462311
1.7726343111287972e+18,7.886797119140625,0.6567347049713135,-2.2224273681640625,-1.5459468364715576,0.18655426800251,0.3627222180366516,-0.5367596745491028
1.7726343111487898e+18,7.906789794921875,0.3221805095672607,-1.1546144485473633,-1.5566978454589844,0.1205079331994056,0.3097253739833832,-0.4491417407989502
1.7726343111687826e+18,7.926782470703125,0.6904513835906982,0.6722373962402344,-0.8555465936660767,0.0587226524949073,0.0982705578207969,-0.2041311264038086
1.7726343111887752e+18,7.946775146484375,0.8357435464859009,1.795090675354004,0.2924354672431946,-0.0805605575442314,-0.119309514760971,0.1255679428577423
1.772634311208768e+18,7.96676806640625,0.0974571704864502,2.263857841491699,1.2674013376235962,-0.5306344032287598,0.147805318236351,0.3929490745067596
1.7726343112287606e+18,7.986760498046875,-0.3140838146209717,2.441685676574707,1.2766200304031372,-0.5436838865280151,-0.1166463568806648,0.861931324005127
1.7726343112487532e+18,8.006753173828125,-0.3103812932968139,2.585678100585937,1.073544144630432,-0.4443480372428894,-1.0181256532669067,1.2693946361541748
1.772634311268746e+18,8.02674609375,-0.3569750785827636,3.641864776611328,1.0978766679763794,-0.3396859169006347,-1.0239845514297483,1.3748557567596436
1.7726343112887388e+18,8.04673876953125,-1.0588345527648926,4.473226070404053,1.2604949474334717,-0.0946752950549125,0.3728422224521637,1.3809809684753418
1.7726343113087314e+18,8.0667314453125,-0.8895643949508667,4.211959362030029,1.336750030517578,0.1596563756465912,0.1510011106729507,1.0065408945083618
1.772634311328724e+18,8.086723876953124,-0.0038760900497436,3.5650224685668945,-0.0438161492347717,0.1918805986642837,-0.365119069814682,0.4283691048622131
1.7726343113487168e+18,8.106716796875,0.4034336805343628,2.836826801300049,-1.8074806928634644,0.1210405677556991,-0.8439550399780273,0.1436774134635925
1.7726343113687094e+18,8.12670947265625,0.8292993307113647,1.2166748046875,-2.350618839263916,0.0283626411110162,-1.1289130449295044,0.0672447606921196
1.7726343113887022e+18,8.1467021484375,1.565371870994568,-0.8518285751342773,-1.7262121438980105,0.0422110669314861,-1.2197266817092896,0.1756353229284286
1.7726343114086948e+18,8.16669482421875,2.13791561126709,-2.471982955932617,0.469092845916748,0.1548626869916916,-1.321992039680481,0.5119922757148743
1.7726343114286876e+18,8.1866875,0.0003827810287475,-3.620927810668945,2.3659348487854004,0.2888195812702179,-1.289235234260559,0.7295723557472229
1.7726343114486802e+18,8.20668017578125,0.90371835231781,-2.3522825241088867,0.183279812335968,0.2912164032459259,-1.0748509168624878,0.5772396922111511
1.772634311468673e+18,8.226673095703125,3.673645496368408,-2.8989410400390625,-1.845907926559448,0.2326269149780273,-0.8484823703765869,0.3000048398971557
1.7726343114886656e+18,8.24666552734375,0.6348342895507812,-8.737072944641113,2.1633217334747314,0.1077247709035873,-0.8178560733795166,0.0470047518610954
1.7726343115086584e+18,8.266658447265625,-1.2625079154968262,-3.7524919509887695,4.443870544433594,-0.0432763323187828,-0.8809729218482971,-0.1069258227944374
1.772634311528651e+18,8.286651123046875,-1.9221512079238887,4.657853603363037,3.494076728820801,-0.2414153516292572,-0.7707181572914124,-0.2933469414710998
1.7726343115486438e+18,8.306643798828125,-2.803818941116333,6.060225486755371,1.9916105270385744,-0.4587291181087494,-0.6279728412628174,-0.5697828531265259
1.7726343115686364e+18,8.326636474609375,-0.7312153577804565,-0.0415782928466796,1.3324942588806152,-0.5247754454612732,-0.4964128136634826,-0.6547375917434692
1.772634311588629e+18,8.34662890625,-1.5267291069030762,-8.126323699951172,-0.1007099151611328,-0.4251733124256134,-0.4436822533607483,-0.5109270215034485
1.7726343116086216e+18,8.36662158203125,-1.4362839460372925,-6.785316467285156,-1.24768328666687,-0.2997385263442993,-0.4796349108219147,-0.2323606014251709
1.7726343116286141e+18,8.3866142578125,-0.8482033014297485,1.3334741592407229,1.5421433448791504,-0.116779513657093,-0.4532696306705475,0.1271658390760421
1.7726343116486067e+18,8.406606689453126,-1.441683053970337,4.280887603759766,4.62549352645874,0.2454100847244262,-0.4173169732093811,0.1782984882593155
1.7726343116685993e+18,8.426599365234376,-1.5889272689819336,1.991665363311768,3.874045372009277,0.0667121261358261,-0.207726389169693,0.0267647467553615
1.7726343116885921e+18,8.446592041015625,-1.0763587951660156,-1.4827947616577148,-0.3218651413917541,0.2824279963970184,0.3584611713886261,0.3482080101966858
1.7726343117085847e+18,8.466584716796875,-1.8002346754074097,-1.865248680114746,-3.3252460956573486,0.907205045223236,0.6500770449638367,0.917591392993927
1.7726343117285773e+18,8.486577392578125,-0.9174734354019164,1.129436492919922,-2.4829001426696777,0.8653934597969055,0.5651223063468933,0.5050680637359619
1.7726343117485699e+18,8.50656982421875,-0.2197420597076416,3.244414806365967,0.0254386067390441,0.5364933609962463,0.4540685713291168,0.2627206146717071
1.7726343117685624e+18,8.5265625,-0.6332668662071228,3.1464061737060547,1.406991958618164,0.2376869171857834,0.4069306552410126,0.1724395304918289
1.772634311788555e+18,8.546554931640625,-0.9158692359924316,2.165900707244873,-0.223740816116333,0.0163784269243478,0.3518032729625702,-0.0664458125829696
1.7726343118085476e+18,8.566547607421874,-0.9404988288879396,1.1538219451904297,-2.7231228351593018,0.2866890430450439,-0.1555284708738327,-0.5016059875488281
1.7726343118285402e+18,8.5865400390625,-0.6304442286491394,0.973073959350586,-3.281899690628052,0.1439437270164489,-0.2175800800323486,-0.5703154802322388
1.7726343118485327e+18,8.60653271484375,-0.1150876283645629,1.3542776107788086,-2.343620538711548,0.0962731912732124,0.3467432856559753,-0.1327584683895111
1.7726343118685253e+18,8.626525390625,-0.3757212162017822,1.4995841979980469,-1.698053240776062,0.0150468470528721,0.7547392249107361,0.0147805316373705
1.772634311888518e+18,8.646517822265626,-0.664039134979248,0.6642494201660156,-1.5159814357757568,-0.2472742944955825,0.896152913570404,-0.3231743276119232
1.7726343119085105e+18,8.666510498046875,-0.7950370907783508,-0.5235967636108398,-1.2882754802703855,-0.3711111843585968,0.9392961263656616,-0.752741813659668
1.772634311928503e+18,8.6865029296875,-1.095573663711548,-0.0777502059936523,-2.0947561264038086,-0.2933469414710998,0.9201213717460632,-0.8230492472648621
1.7726343119484956e+18,8.70649560546875,-1.4814882278442385,1.1465425491333008,-3.0999224185943604,-0.2837595641613006,1.0490182638168335,-0.5024049282073975
1.7726343119684882e+18,8.72648828125,-0.1609014272689819,1.2683687210083008,-2.171290159225464,-0.1636511087417602,0.9179908633232116,-0.296809047460556
1.7726343119884808e+18,8.746480712890625,1.1116427183151243,1.1563215255737305,-0.7425875067710876,-0.121839515864849,0.5757749080657959,-0.5732449293136597
1.7726343120084733e+18,8.766473388671875,0.1034493446350097,0.2001829147338867,-2.355552911758423,-0.1263668835163116,0.3414169549942016,-1.0709893703460691
1.772634312028466e+18,8.7864658203125,-2.0768210887908936,-2.150766372680664,-0.9014532566070556,-0.0611194930970668,0.3310306370258331,-1.1647324562072754
1.7726343120484585e+18,8.80645849609375,0.4245058298110962,-3.526033401489258,2.9630374908447266,0.0376836955547332,0.4740422666072845,-0.8387618660926819
1.772634312068451e+18,8.826451171875,3.4380440711975098,-6.030697822570801,4.98507022857666,0.1023984551429748,0.5443496704101562,-0.5604617595672607
1.7726343120884436e+18,8.846443603515626,1.703636884689331,-7.343280792236328,3.752285242080689,0.1482047885656356,0.4942822754383087,-0.4880238473415375
1.7726343121084367e+18,8.866436767578126,0.5992718935012817,-3.931428909301758,0.3500857353210449,0.1633847951889038,0.4639222621917724,-0.4507396221160888
1.7726343121284298e+18,8.886429931640626,1.3079575300216677,-1.5232009887695312,-1.3280993700027466,0.1705753207206726,0.4700475335121155,-0.3886880278587341
1.7726343121484227e+18,8.906422607421876,1.050997972488403,-0.9985637664794922,-1.5395523309707642,0.1149153038859367,0.4143875241279602,-0.2842921912670135
1.7726343121684157e+18,8.926415771484375,1.2264524698257446,-0.2667074203491211,-1.027675986289978,0.0310258008539676,0.1643168926239013,-0.0203731656074523
1.7726343121884088e+18,8.946408935546875,1.488081693649292,0.8741865158081055,-0.4200770854949951,-0.3234406411647796,0.1778990030288696,0.2941458821296692
1.7726343122084017e+18,8.966401611328125,0.7131741046905518,1.2050752639770508,0.3122555017471313,-0.6984133720397949,0.3781685531139374,0.6523407697677612
1.7726343122283948e+18,8.986394775390625,-0.079199194908142,1.1078643798828125,0.6136379837989807,-0.7008102536201477,-0.457530677318573,1.1759177446365356
1.7726343122483878e+18,9.006387939453125,-0.2456433773040771,1.4736452102661133,1.007516622543335,-0.374573290348053,-1.160870909690857,1.5559505224227903
1.772634312268381e+18,9.026380859375,-0.612625002861023,2.9658913612365723,1.3295848369598389,-0.3628553748130798,-0.6452834010124207,1.5301178693771362
1.7726343122883738e+18,9.046373779296877,-1.1786227226257324,4.3830156326293945,1.595566987991333,-0.1271658390760421,0.164583221077919,1.4784525632858276
1.7726343123083668e+18,9.066366943359377,-0.9277150630950928,4.6359477043151855,2.128446102142334,0.0280963256955146,0.1494032144546508,1.2030819654464722
1.77263431232836e+18,9.08635986328125,-0.033679723739624,4.100368499755859,1.6196677684783936,-0.0241015870124101,-0.3113232553005218,0.5026712417602539
1.772634312348353e+18,9.10635302734375,0.2778366804122925,3.5542945861816406,-0.3766159415245056,0.0323573797941207,-0.5579317808151245,0.1724395304918289
1.7726343123683459e+18,9.126345947265625,0.1569122076034546,2.6475462913513184,-2.238846063613892,0.0637826547026634,-0.7145255208015442,0.1668469011783599
1.772634312388339e+18,9.1463388671875,0.3232802152633667,0.9091205596923828,-2.4119269847869877,0.0299605373293161,-0.8341013193130493,0.2113216519355774
1.772634312408332e+18,9.16633203125,1.0776280164718628,-1.008771896362305,-0.7035244703292847,0.1031974032521247,-1.0740519762039185,0.4235754013061523
1.772634312428325e+18,9.1863251953125,1.0067188739776611,-2.492029190063477,1.6308653354644775,0.2741721868515014,-1.3725920915603638,0.6635259985923767
1.772634312448318e+18,9.20631787109375,-0.5596107840538025,-2.335050582885742,1.4487898349761963,0.3210437893867492,-1.4002889394760132,0.5780386328697205
1.772634312468311e+18,9.22631103515625,1.6733386516571045,0.0593032836914062,-1.255741834640503,0.2246374487876892,-1.2362383604049685,0.2432795614004135
1.772634312488304e+18,9.24630419921875,4.409926414489746,-2.6000537872314453,-1.679762363433838,0.1388837248086929,-1.061002492904663,-0.0741689726710319
1.772634312508297e+18,9.266296875,1.1358517408370972,-9.018105506896973,3.330485343933105,0.0565921254456043,-0.9502150416374208,-0.1788311153650283
1.77263431252829e+18,9.2862900390625,-2.514310359954834,-3.06527042388916,4.693063259124756,-0.1346226781606674,-0.8439550399780273,-0.2515353560447693
1.7726343125482831e+18,9.306283203125,-2.503843069076538,4.317295551300049,3.6720709800720215,-0.3780353963375091,-0.7462170720100403,-0.4946817457675934
1.772634312568276e+18,9.32627587890625,-2.0109126567840576,4.701412677764893,2.208634853363037,-0.4888227880001068,-0.6367612481117249,-0.6829670667648315
1.772634312588269e+18,9.34626904296875,-0.9284005165100098,-1.756082534790039,0.7105957269668579,-0.4390217363834381,-0.5731117725372314,-0.6520744562149048
1.7726343126082627e+18,9.3662626953125,-0.9085415601730348,-7.042292594909668,-2.068222522735596,-0.3324953913688659,-0.5725791454315186,-0.4621912240982055
1.7726343126282563e+18,9.38625634765625,-0.441447377204895,-3.4441490173339844,-1.6052069664001465,-0.2113216519355774,-0.4000064432621002,-0.1149153038859367
1.7726343126482499e+18,9.406249755859376,-0.5924999713897705,2.213408946990967,1.2823224067687988,-0.03715106472373,-0.2942790389060974,0.1870869100093841
1.7726343126682435e+18,9.426243408203124,-1.2158972024917605,2.158292293548584,3.3960037231445312,0.1404816210269928,-0.2878874540328979,0.0970721393823623
1.7726343126882368e+18,9.44623681640625,-0.988082766532898,-0.9573402404785156,2.666818618774414,-0.0472710691392421,-0.0229031667113304,0.1018658280372619
1.7726343127082304e+18,9.46623046875,-0.7690521478652954,-3.084109306335449,-0.2986074686050415,0.3591269552707672,0.3752390742301941,0.4672512114048004
1.772634312728224e+18,9.48622412109375,-1.4340946674346924,-0.9689083099365234,-2.869810104370117,0.8166576623916626,0.3789674937725067,0.8683229088783264
1.7726343127482176e+18,9.506217529296874,-0.4246836900711059,2.464846134185791,-2.1467649936676025,0.8113313317298889,0.366716980934143,0.3929490745067596
1.772634312768211e+18,9.5262109375,-0.1579368114471435,3.1171607971191406,0.5971500873565674,0.4475438296794891,0.4940159618854522,0.2004027068614959
1.7726343127882045e+18,9.54620458984375,-0.9276494383811952,2.274632453918457,2.179172992706299,0.2701774537563324,0.4932170212268829,-0.0097205294296145
1.7726343128081981e+18,9.5661982421875,-1.123942494392395,1.9533486366271973,0.4321379661560058,0.1679121702909469,0.304132729768753,-0.2704437673091888
1.7726343128281917e+18,9.586191650390624,-1.068699836730957,1.7219419479370115,-1.853818416595459,0.3234406411647796,-0.0183757953345775,-0.4733764827251434
1.772634312848185e+18,9.60618505859375,-1.1373417377471924,1.6362810134887695,-2.377943754196167,0.2712427377700805,0.0572579130530357,-0.1806953251361847
1.7726343128681787e+18,9.6261787109375,-0.9626324772834778,2.215999126434326,-1.8096263408660889,0.2376869171857834,0.2719085216522217,0.1705753207206726
1.7726343128881723e+18,9.64617236328125,-0.9978874325752258,2.865017890930176,-1.67434561252594,0.0845552906394004,0.4229096174240112,0.1844237446784973
1.772634312908166e+18,9.666165771484376,-0.8765913248062134,2.3150429725646973,-2.1974384784698486,-0.1652490049600601,0.6303696632385254,-0.1735047996044159
1.7726343129281595e+18,9.686159423828125,0.0848722457885742,0.7678241729736328,-2.4570155143737797,-0.2776342928409576,0.709465503692627,-0.6227796673774719
1.772634312948153e+18,9.706153076171876,0.1037763357162475,0.2074871063232422,-2.397924900054932,-0.2006690204143524,0.7534076571464539,-0.7114628553390503
1.7726343129681464e+18,9.726146484375,-0.7175575494766235,1.3465814590454102,-2.712583065032959,-0.170841634273529,0.8873645067214966,-0.3202448487281799
1.77263431298814e+18,9.74614013671875,-1.4591153860092163,2.183739185333252,-2.3789496421813965,-0.0755005553364753,0.7861644625663757,-0.1199753060936927
1.7726343130081336e+18,9.766133544921876,-2.391518831253052,2.014961242675781,-0.8978028297424316,-0.1093226671218872,0.5137233138084412,-0.5050680637359619
1.7726343130281272e+18,9.786127197265625,-0.0523816347122192,1.8283567428588867,-0.0530833303928375,-0.1564605832099914,0.3440801203250885,-1.033438801765442
1.7726343130481206e+18,9.80612060546875,0.0606817007064819,0.9722080230712892,-0.6674172878265381,-0.0893489792943,0.3059969544410705,-1.0595377683639526
1.7726343130681142e+18,9.8261142578125,0.9314903020858764,-2.03335952758789,-0.2438203394412994,0.0549942292273044,0.5134570002555847,-0.6912228465080261
1.7726343130881078e+18,9.846107666015625,-0.6023784875869751,-6.248941421508789,3.166015625,0.1055942475795745,0.6354296803474426,-0.3825627565383911
1.7726343131081021e+18,9.86610205078125,0.3319696187973022,-7.603577613830566,5.219910621643066,0.1641837358474731,0.6330328583717346,-0.2981406152248382
1.7726343131280965e+18,9.886096435546875,1.3401652574539185,-6.212431907653809,4.7409539222717285,0.2416816651821136,0.6343644261360168,-0.2137184888124466
1.772634313148091e+18,9.9060908203125,1.0946885347366333,-2.514812469482422,1.1245348453521729,0.3178479969501495,0.5629917979240417,-0.0653805509209632
1.772634313168085e+18,9.9260849609375,0.8620237112045288,-0.1451301574707031,-2.627548933029175,0.3250385224819183,0.3627222180366516,-0.0688426569104194
1.7726343131880794e+18,9.946079345703126,1.9645721912384035,-0.687286376953125,-3.424499750137329,0.1977395415306091,0.0996021404862403,-0.2134521752595901
1.7726343132080737e+18,9.96607373046875,2.363764762878418,-1.7179174423217771,-2.638678550720215,0.050999492406845,-0.2591253519058227,-0.2304963916540146
1.772634313228068e+18,9.986068115234374,2.124964952468872,-1.541656494140625,-1.818123459815979,-0.1447426825761795,-0.5637907385826111,-0.170841634273529
1.7726343132480625e+18,10.0060625,0.7380229234695435,-0.8848648071289062,-0.5748847723007202,-0.5926859974861145,-0.4474106729030609,-0.0512658059597015
1.7726343132680568e+18,10.026056884765625,-0.4844975471496582,-0.1184101104736328,0.4171980619430542,-0.7114628553390503,-0.3283674716949463,0.4267711937427521
1.7726343132880512e+18,10.04605126953125,-0.6876214146614075,0.4915733337402344,1.339856743812561,-0.5628586411476135,-0.7211834192276001,1.0539450645446775
1.7726343133080453e+18,10.06604541015625,-0.6397894620895386,1.7431640625,1.669360637664795,-0.0954742431640625,-0.8005455136299133,1.3783178329467771
1.7726343133280397e+18,10.086039794921875,-0.7563475966453552,3.4977617263793945,1.4026329517364502,0.0438089631497859,-0.1259674131870269,1.4329125881195068
1.772634313348034e+18,10.106033935546876,-0.7850123047828674,4.098156929016113,1.4060451984405518,-0.0390152782201767,0.4412854015827179,1.5436999797821045
1.7726343133680284e+18,10.1260283203125,-0.944558322429657,4.081153869628906,1.4881157875061035,-0.1604553163051605,0.3190464377403259,0.8747144937515259
1.7726343133880228e+18,10.146022705078124,-1.2463642358779907,3.90216064453125,0.974929928779602,-0.0565921254456043,0.234624296426773,0.1207742542028427
1.7726343134080172e+18,10.16601708984375,-0.5811505913734436,3.7235941886901855,-0.5199122428894043,-0.0376836955547332,0.1392832100391388,0.1245026737451553
1.7726343134280115e+18,10.186011474609376,1.1895605325698853,3.0343027114868164,-1.965447306632996,-0.0976047739386558,-0.4229096174240112,0.4075964689254761
1.7726343134480056e+18,10.206005615234377,1.9492179155349727,1.2059240341186523,-1.7470897436141968,-0.1346226781606674,-1.0934929847717283,0.6440849304199219
1.772634313468e+18,10.226,1.456844925880432,-0.4963636398315429,-0.0601527690887451,-0.0736363381147384,-1.602955341339111,0.7492797374725342
1.7726343134879944e+18,10.245994384765623,0.6512984037399292,-0.7518415451049805,0.3911482691764831,-0.0568584389984607,-1.7699353694915771,0.6896249651908875
1.7726343135079887e+18,10.26598876953125,-0.6061171293258667,-0.082158088684082,-0.8933802247047424,-0.1157142519950866,-1.569133162498474,0.4928175508975982
1.772634313527983e+18,10.285983154296876,0.8703063726425171,-0.0268726348876953,-1.2945266962051392,-0.1340900510549545,-1.2586088180541992,0.1700426936149597
1.7726343135479775e+18,10.3059775390625,3.59059476852417,-2.604501724243164,0.764542281627655,-0.1130510941147804,-1.0442246198654177,-0.0145142152905464
1.7726343135679718e+18,10.325971923828124,0.7905392646789551,-7.321405410766602,3.264471530914306,-0.1221058294177055,-0.9459540247917176,-0.0302268527448177
1.772634313587966e+18,10.345966064453124,-6.161758899688721,-7.488574028015137,5.998961448669434,-0.2171805948019027,-0.8809729218482971,-0.1063931956887245
1.7726343136079583e+18,10.365958251953124,-6.162762641906738,-2.316944122314453,8.363872528076172,-0.3692469596862793,-0.7012097239494324,-0.2781669497489929
1.7726343136279508e+18,10.385950927734376,-2.294662475585937,3.2113900184631348,6.162338733673096,-0.5231775641441345,-0.4482096135616302,-0.46485435962677
1.7726343136479434e+18,10.405943359375,1.7387218475341797,3.5403051376342773,2.081395387649536,-0.601474404335022,-0.4117243587970733,-0.5335638523101807
1.7726343136679357e+18,10.425935791015624,1.1013517379760742,-0.9575862884521484,-2.12549376487732,-0.4789691269397735,-0.6487454771995544,-0.4885564744472503
1.7726343136879283e+18,10.44592822265625,-0.7470282316207886,-7.025476455688477,-3.385016918182373,-0.3950796127319336,-0.8149266242980957,-0.4600606858730316
1.7726343137079206e+18,10.465920654296877,-1.0925068855285645,-8.274439811706543,-0.3451473712921142,-0.2336921840906143,-0.8290413618087769,-0.3748396039009094
1.7726343137279132e+18,10.485913330078125,-1.3579039573669434,-2.6634836196899414,2.550902843475342,0.043010015040636,-0.724112868309021,-0.2209090292453766
1.7726343137479058e+18,10.50590576171875,-0.959991693496704,1.0954580307006836,3.358086347579956,-0.0022636849898844,-0.3201116919517517,0.1790974289178848
1.772634313767898e+18,10.525898193359374,-0.8619580864906311,1.3124656677246094,3.08210563659668,0.257127970457077,0.2005358636379242,0.8006786704063416
1.7726343137878907e+18,10.545890625,-0.9936222434043884,0.8647651672363281,0.7739933729171753,1.023585081100464,0.042610540986061,1.0052093267440796
1.772634313807883e+18,10.565883056640626,-0.7374652624130249,0.0331964492797851,-1.0632905960083008,1.1221219301223757,-0.0412789620459079,0.664324939250946
1.7726343138278756e+18,10.58587548828125,-0.4909405708312988,-0.0775480270385742,-0.5786105990409851,0.345012217760086,0.1424790024757385,-0.1045289859175682
1.7726343138478682e+18,10.6058681640625,-0.6439746022224426,1.281454086303711,-0.1031272411346435,-0.2552637755870819,0.2218411266803741,-0.7364965677261353
1.7726343138678605e+18,10.625860595703124,-0.6480736136436462,2.592733383178711,-0.7984790802001953,-0.0707068666815757,0.5382243990898132,-0.6528733968734741
1.772634313887853e+18,10.64585302734375,-0.1979401111602783,2.7279415130615234,-1.590041160583496,0.2928143143653869,0.5467464923858643,-0.0970721393823623
1.7726343139078454e+18,10.665845458984377,-0.2236953973770141,2.3607349395751958,-1.9276518821716309,0.225702702999115,0.7315697073936462,0.59002286195755
1.772634313927838e+18,10.685837890625,-0.6632600426673889,1.8568687438964844,-0.9700922966003418,-0.0416784361004829,0.7965508103370667,0.6438186168670654
1.7726343139478305e+18,10.70583056640625,-1.0863577127456665,0.9115753173828124,0.4310527443885803,-0.0427436977624893,0.5422191619873047,0.0179763212800025
1.7726343139678228e+18,10.72582275390625,-1.3173253536224363,-0.5598382949829102,0.3805425763130188,-0.0097205294296145,0.5869601964950562,-0.3878890872001648
1.7726343139878154e+18,10.7458154296875,-1.3928741216659546,-1.1199016571044922,-0.7808429598808289,-0.0773647651076316,0.6205160021781921,-0.6352965235710144
1.7726343140078077e+18,10.765807861328126,-0.9361582398414612,0.1920175552368164,-1.6369831562042236,-0.1617868989706039,0.6343644261360168,-0.8795081973075867
1.7726343140278003e+18,10.78580029296875,-0.5723721981048584,2.059011459350586,-2.329599142074585,-0.1319595128297805,0.8820381760597229,-0.8587355613708496
1.7726343140477926e+18,10.805792724609375,-0.601703405380249,2.1159744262695312,-2.7640204429626465,-0.0898816064000129,1.0085382461547852,-0.7010765671730042
1.7726343140677852e+18,10.82578515625,-1.166068196296692,1.0616655349731443,-1.8171039819717407,-0.0464721210300922,0.941959261894226,-0.6526070833206177
1.7726343140877778e+18,10.84577783203125,1.426592230796814,0.4104452133178711,0.8614833354949951,0.0203731656074523,0.8530097603797913,-0.6451502442359924
1.772634314107771e+18,10.86577099609375,1.0119974613189695,-0.3060874938964844,2.656821727752685,0.0978710874915123,0.8327697515487671,-0.5463470220565796
1.772634314127764e+18,10.885763916015623,0.196044921875,-1.537613868713379,1.127561092376709,0.1721732169389724,0.7808381915092468,-0.3711111843585968
1.772634314147757e+18,10.905757080078123,-1.0584640502929688,-2.9772167205810547,0.3971590995788574,0.2280995547771453,0.6990792155265808,-0.1969406008720398
1.7726343141677501e+18,10.925750244140623,-0.2937482595443725,-3.876233100891113,1.7304201126098633,0.3138532638549804,0.7150581479072571,-0.2118542790412902
1.7726343141877432e+18,10.9457431640625,2.1574907302856445,-2.9149389266967773,3.7957959175109854,0.3719101250171661,0.7845665812492371,-0.3479416966438293
1.7726343142077363e+18,10.965736328125,2.87192177772522,-1.6369075775146484,4.016970634460449,0.4020038247108459,0.8085350394248962,-0.4062648713588714
1.7726343142277294e+18,10.9857294921875,2.155037641525269,-0.6249170303344727,1.781074285507202,0.4044006764888763,0.8727171421051025,-0.3428817093372345
1.7726343142477225e+18,11.005722412109376,2.165337562561035,-0.5284614562988281,-0.8260819911956787,0.3644532859325409,0.740091860294342,-0.2004027068614959
1.7726343142677156e+18,11.025715576171876,2.4009079933166504,-2.0818967819213867,-1.4600343704223633,0.2853574752807617,0.5044022798538208,-0.0331563279032707
1.7726343142877087e+18,11.045708740234376,1.045661687850952,-2.5164928436279297,-0.2894448041915893,0.1508679538965225,0.2490053474903106,0.0091878976672887
1.7726343143077018e+18,11.06570166015625,0.5091725587844849,-0.189396858215332,0.5320141315460205,-0.2382195591926574,0.3451453745365143,-0.0688426569104194
1.7726343143276948e+18,11.08569482421875,0.2665431499481201,1.8083953857421875,0.9810856580734252,-0.4174501299858093,0.4253064692020416,-0.0318247489631176
1.7726343143476882e+18,11.105688232421874,-0.0640504360198974,2.1533336639404297,1.2563937902450562,-0.6145238876342773,0.1408811062574386,0.1498026847839355
1.772634314367681e+18,11.125680908203124,0.1490163803100586,1.0292787551879885,1.6576769351959229,-0.3447459042072296,-0.1701758503913879,0.3636543452739715
1.7726343143876744e+18,11.14567431640625,-1.1073262691497805,0.6965103149414062,1.9535908699035645,-0.2163816541433334,-0.1432779431343078,0.4954806864261627
1.7726343144076675e+18,11.16566748046875,-0.5421087741851807,1.5386810302734375,1.4263172149658203,-0.1476721614599228,0.1211737245321273,0.6542049646377563
1.7726343144276605e+18,11.18566064453125,-0.0213375091552734,2.026824474334717,1.3306344747543335,0.0022636849898844,0.3659180104732513,0.7183870673179626
1.7726343144476536e+18,11.205653564453126,0.0540244579315185,1.6991791725158691,1.030667781829834,0.0968058258295059,0.2969422042369842,0.3495396077632904
1.7726343144676467e+18,11.225646728515626,-0.0488796234130859,0.6995010375976562,0.0873928070068359,0.1665805876255035,-0.0045273699797689,-0.1247689872980117
1.7726343144876398e+18,11.245639892578126,-0.0225105285644531,-0.1478614807128906,-0.942405104637146,0.3095922172069549,-0.3059969544410705,-0.2536658644676208
1.772634314507633e+18,11.2656328125,0.1129813194274902,-0.370492935180664,-1.2849537134170532,0.3636543452739715,-0.709465503692627,-0.2099900692701339
1.772634314527626e+18,11.2856259765625,0.0788154602050781,0.2403640747070312,-0.6143406629562378,0.301336407661438,-0.9387634992599488,-0.1591237336397171
1.772634314547619e+18,11.305619140625,0.1569381952285766,0.7197504043579102,0.632169246673584,0.3226417005062103,-0.9813740253448486,0.0174436904489994
1.7726343145676122e+18,11.325612060546876,0.2147126197814941,0.6175403594970703,1.4954100847244265,0.3055974841117859,-0.9707213640213012,0.1729721575975418
1.7726343145876052e+18,11.345605224609375,0.1988097429275512,0.1148700714111328,1.566075563430786,0.2384858727455139,-0.8921582102775574,0.1476721614599228
1.772634314607599e+18,11.36559912109375,0.1253156661987304,-0.4434881210327148,1.0427143573760986,0.2012016475200653,-0.7456844449043274,-0.0571247562766075
1.7726343146275927e+18,11.3855927734375,0.0530462265014648,-0.7293033599853516,0.4922359585762024,0.0728373900055885,-0.503337025642395,-0.2025332301855087
1.7726343146475866e+18,11.405586669921876,0.4251086711883545,-0.6420440673828125,0.7298581600189209,0.022770008072257,-0.2556632459163666,-0.1154479309916496
1.7726343146675802e+18,11.425580078125,0.4583851099014282,-0.175882339477539,1.162238359451294,-0.027830010280013,-0.0628505498170852,-0.040879487991333
1.772634314687574e+18,11.445573974609376,0.242207646369934,0.1387462615966797,1.28784441947937,-0.0659131780266761,0.0766989737749099,-0.0347542241215705
1.7726343147075676e+18,11.465567626953124,0.2649736404418945,0.2688674926757812,0.8531197905540466,-0.1093226671218872,0.0873516052961349,-0.0797616094350814
1.7726343147275615e+18,11.4855615234375,0.2472999095916748,0.4789934158325195,0.1415150463581085,-0.2177132368087768,-0.0474042259156703,-0.1063931956887245
1.7726343147475553e+18,11.505555419921874,0.1571608781814575,0.5828695297241211,-0.1798942983150482,-0.29893958568573,-0.1864211112260818,-0.0984037145972251
1.772634314767549e+18,11.525548828125,0.0832046270370483,0.4030733108520508,-0.0851659774780273,-0.3016027212142944,-0.2625874578952789,-0.0464721210300922
1.7726343147875428e+18,11.545542724609374,-0.0110539197921752,0.0981378555297851,0.2513207793235779,-0.2312953472137451,-0.2380864024162292,-0.0043942118063569
1.7726343148075364e+18,11.565536376953125,0.1095818281173706,-0.0355682373046875,0.5804831385612488,-0.1572595238685608,-0.0950747728347778,0.035020537674427
1.7726343148275302e+18,11.5855302734375,-0.0534863471984863,-0.1876649856567382,0.7928027510643005,-0.0768321305513382,0.1121189892292022,0.1005342453718185
1.7726343148475238e+18,11.60552392578125,-0.2755554914474487,-0.2377500534057617,0.639212429523468,-0.0616521276533603,0.2588590383529663,0.1716405898332595
1.7726343148675177e+18,11.625517578125,-0.1848270893096923,-0.1089076995849609,0.3402759432792663,-0.0904142409563064,0.3067958950996399,0.1844237446784973
1.7726343148875113e+18,11.64551123046875,-0.0427075624465942,0.0525674819946289,0.0435578227043151,-0.0747016072273254,0.2444779723882675,0.0968058258295059
1.7726343149075052e+18,11.665505126953123,-0.0895442962646484,0.1180524826049804,0.128940463066101,-0.0728373900055885,0.147805318236351,-0.0302268527448177
1.7726343149274988e+18,11.685498779296877,-0.1867351531982422,0.0631666183471679,0.4504220485687256,-0.0970721393823623,0.0663126558065414,-0.156194269657135
1.7726343149474926e+18,11.70549267578125,-0.2403416633605957,0.0852088928222656,0.6756420135498047,-0.0920121371746063,-0.006657897029072,-0.1900163739919662
1.7726343149674865e+18,11.725486572265623,-0.1920101642608642,0.236572265625,0.609647810459137,-0.0866858214139938,-0.0343547500669956,-0.1119858250021934
1.77263431498748e+18,11.74547998046875,-0.1420928239822387,0.3790216445922851,0.330209881067276,-0.0747016072273254,-0.0548610724508762,0.0110521093010902
1.772634315007474e+18,11.765473876953124,-0.0691016912460327,0.3582906723022461,0.1838894486427307,-0.0600542314350605,-0.0902810841798782,0.0936100333929061
1.7726343150274675e+18,11.785467529296875,-0.0932494401931762,0.0788326263427734,0.0987866520881652,-0.0584563352167606,-0.1499358415603637,0.1135837212204933
1.7726343150474614e+18,11.80546142578125,-0.1653192043304443,-0.1814594268798828,0.0512493252754211,-0.0304931681603193,-0.1917474269866943,0.0890826657414436
1.772634315067455e+18,11.825455078125,-0.1406112909317016,-0.1880006790161132,0.0297028720378875,-0.0435426458716392,-0.1914811134338379,0.0219710599631071
1.7726343150874488e+18,11.84544873046875,0.012836217880249,-0.0796070098876953,-0.0564939081668853,-0.0882837176322937,-0.1699095368385315,-0.03715106472373
1.772634315107443e+18,11.86544287109375,0.0304255485534667,0.0276575088500976,-0.2592872083187103,-0.1074584573507309,-0.1603221595287323,-0.0552605465054512
1.7726343151274368e+18,11.885436767578126,0.0083909034729003,0.0015430450439453,-0.286809891462326,-0.0944089815020561,-0.1581916362047195,-0.0344879068434238
1.772634315147431e+18,11.905430908203124,-0.015980839729309,0.0983419418334961,-0.1852133572101593,-0.0786963403224945,-0.1629853248596191,-0.0121173728257417
1.772634315167425e+18,11.925425048828124,0.0216071605682373,0.1332588195800781,0.0647518038749694,-0.0664458125829696,-0.163517951965332,-0.0222373753786087
1.7726343151874191e+18,11.945419189453125,-0.0489114522933959,0.0383901596069335,0.2846512794494629,-0.0794952884316444,-0.1427453160285949,-0.0475373864173889
1.7726343152074132e+18,11.965413330078125,-0.2338205575942993,-0.0703163146972656,0.3414051234722137,-0.0850879251956939,-0.0982705578207969,-0.0685763359069824
1.7726343152274074e+18,11.985407470703125,-0.2164276838302612,-0.1272411346435547,0.2618963420391083,-0.0874847695231437,-0.0490021221339702,-0.0645816028118133
1.7726343152474012e+18,12.005401123046877,-0.1886789798736572,-0.0888843536376953,0.0922211110591888,-0.0786963403224945,-0.0343547500669956,-0.043010015040636
1.7726343152673953e+18,12.025395263671877,-0.1182503700256347,0.0253190994262695,-0.15274378657341,-0.0669784471392631,-0.0521979108452796,-0.0336889587342739
1.7726343152873894e+18,12.045389404296875,-0.0895227193832397,0.1115598678588867,-0.3445229828357696,-0.0773647651076316,-0.0833568722009658,-0.0406131707131862
1.7726343153073836e+18,12.065383544921875,-0.0626251697540283,0.1112966537475586,-0.3137658536434173,-0.0850879251956939,-0.1283642500638961,-0.0483363308012485
1.7726343153273777e+18,12.085377685546876,-0.1218081712722778,0.0819721221923828,-0.0253112912178039,-0.0810931846499443,-0.1912147998809814,-0.0416784361004829
1.7726343153473715e+18,12.10537158203125,-0.2079838514328003,-0.0150575637817382,0.2487905621528625,-0.0699079185724258,-0.2468748241662979,-0.0123836882412433
1.7726343153673656e+18,12.12536572265625,-0.2701904773712158,-0.1642580032348632,0.2340137064456939,-0.0619184412062168,-0.3012032508850097,0.0102531611919403
1.7726343153873597e+18,12.14535986328125,-0.2789043188095093,-0.2517004013061523,0.1151307523250579,-0.0589889660477638,-0.3384874761104584,0.0456731729209423
1.7726343154073539e+18,12.165353759765624,-0.366368293762207,-0.2092571258544922,-0.0332603156566619,-0.0525973848998546,-0.3635211884975433,0.062717393040657
1.772634315427348e+18,12.185347900390624,-0.2397142648696899,0.1114110946655273,0.0470895767211914,-0.0398142226040363,-0.3747064471244812,0.0603205487132072
1.772634315447342e+18,12.205342041015625,0.0115617513656616,0.5137100219726562,0.2307203114032745,-0.0347542241215705,-0.3627222180366516,0.0520647540688514
1.772634315467336e+18,12.2253359375,0.1221849918365478,0.570465087890625,0.3092097043991089,-0.0134489517658948,-0.3355579972267151,0.0390152782201767
1.77263431548733e+18,12.245330078125,0.053829550743103,0.2210903167724609,0.3767741322517395,-0.0030626326333731,-0.3137201070785522,0.03795001283288
1.7726343155073242e+18,12.26532421875,-0.143233060836792,-0.0529909133911132,0.453788548707962,-0.0051931599155068,-0.3286337852478027,0.0435426458716392
1.7726343155273183e+18,12.285318359375,-0.1804397106170654,-0.1324882507324218,0.6104515790939331,-0.0118510564789175,-0.375771701335907,0.0573910735547542
1.7726343155473124e+18,12.3053125,-0.04941987991333,-0.1698856353759765,0.7368247509002686,-0.0041278963908553,-0.4191811978816986,0.0826910808682441
1.7726343155673062e+18,12.32530615234375,-0.0100015401840209,-0.0925798416137695,0.5830618143081665,0.0057257916778326,-0.4218443632125854,0.1135837212204933
1.7726343155873004e+18,12.34530029296875,-0.0181280374526977,0.0223493576049804,0.5006054043769836,0.0182426385581493,-0.388022243976593,0.1271658390760421
1.772634315607293e+18,12.36529296875,0.0486688613891601,0.0038862228393554,0.5329476594924927,0.0117178987711668,-0.3488737940788269,0.1396826803684234
1.7726343156272852e+18,12.38528515625,0.1188379526138305,-0.1113471984863281,0.6206669807434082,0.0109189506620168,-0.3206443190574646,0.1170458272099495
1.7726343156472778e+18,12.40527783203125,0.0723137855529785,-0.0879030227661132,0.5028811693191528,-0.0103863198310136,-0.2780337929725647,0.0781637132167816
1.7726343156672704e+18,12.4252705078125,0.0094771385192871,-0.0877065658569336,0.4668547213077545,-0.0274305362254381,-0.2396842986345291,0.0472710691392421
1.772634315687263e+18,12.445262939453125,0.0694795846939086,-0.0478582382202148,0.4484823942184448,-0.0239684283733367,-0.2101232260465622,0.0555268600583076
1.7726343157072553e+18,12.46525537109375,0.0634906291961669,0.2605581283569336,0.3400353789329529,-0.0082557927817106,-0.1880190074443817,0.0893489792943
1.772634315727248e+18,12.485247802734374,0.0969116687774658,0.3824529647827148,0.2019976377487182,0.0026631588116288,-0.1494032144546508,0.1364868879318237
1.7726343157472404e+18,12.505240478515624,0.1844922304153442,0.2412900924682617,0.1903687715530395,0.0125168468803167,-0.081758975982666,0.2182458639144897
1.7726343157672328e+18,12.525232666015626,0.1017305850982666,0.056593894958496,0.2738740444183349,0.0292947478592395,0.013315794058144,0.2701774537563324
1.7726343157872253e+18,12.545225341796876,0.0766794681549072,0.001739501953125,0.2239935398101806,0.0490021221339702,0.0782968699932098,0.248605877161026
1.772634315807218e+18,12.565218017578124,0.0786648988723754,0.1058988571166992,0.0506423115730285,0.0506000183522701,0.1384842544794082,0.2254363894462585
1.7726343158272105e+18,12.58521044921875,0.1255900859832763,0.1386470794677734,-0.1392802000045776,0.0588558092713356,0.1936116516590118,0.2145174443721771
1.7726343158472028e+18,12.605202880859377,0.1882674694061279,-0.0391397476196289,-0.1535066366195678,0.0655137076973915,0.2490053474903106,0.2134521752595901
1.7726343158671954e+18,12.6251953125,0.0957744121551513,-0.1937208175659179,-0.0661718845367431,0.0852210819721221,0.2913495600223541,0.1777658462524414
1.772634315887188e+18,12.64518798828125,-0.0089485645294189,-0.151895523071289,0.0022706985473632,0.0937431901693344,0.3470095992088318,0.1471395194530487
1.7726343159071805e+18,12.6651806640625,-0.0384913682937622,0.0429010391235351,-0.0055437684059143,0.0727042332291603,0.3933485448360443,0.1021321415901184
1.7726343159271729e+18,12.6851728515625,-0.0051552057266235,0.1762847900390625,-0.1399000883102417,0.070041075348854,0.4266380369663238,0.0374173820018768
1.7726343159471654e+18,12.70516552734375,-0.0081957578659057,0.175516128540039,-0.2984036207199096,0.0633831769227981,0.4466117322444916,0.0051931599155068
1.772634315967158e+18,12.725157958984376,0.0868231058120727,0.0931062698364257,-0.3075151443481445,0.0689758136868476,0.4668517410755157,0.0094542140141129
1.7726343159871506e+18,12.745150634765626,0.1011874675750732,0.0587329864501953,-0.2824896574020386,0.0820252895355224,0.4809664785861969,0.0129163200035691
1.772634316007143e+18,12.765142822265624,-0.0384578704833984,0.0824432373046875,-0.2882419228553772,0.0761663392186164,0.4884233176708221,-0.0017310532275587
1.7726343160271355e+18,12.785135498046875,-0.1319688558578491,0.1789741516113281,-0.3298319578170776,0.0681768655776977,0.4862928092479706,-0.0283626411110162
1.772634316047128e+18,12.805128173828123,-0.0666849613189697,0.3228511810302734,-0.2890680432319641,0.0529968589544296,0.4772380590438843,-0.0456731729209423
1.7726343160671206e+18,12.82512060546875,0.0054619312286376,0.2703857421875,-0.198944091796875,0.0487358048558235,0.4404864609241485,-0.0446079112589359
1.772634316087113e+18,12.845113037109376,0.0563071966171264,0.0503473281860351,-0.1517888903617859,0.065247394144535,0.392549604177475,-0.0515321232378482
1.7726343161071066e+18,12.8651064453125,-0.034311294555664,-0.04962158203125,-0.114260196685791,0.0764326602220535,0.3549990653991699,-0.0672447606921196
1.7726343161271e+18,12.885099853515625,-0.1005342006683349,-0.0308055877685546,-0.0578647851943969,0.0873516052961349,0.3374222218990326,-0.0872184485197067
1.7726343161470932e+18,12.90509326171875,-0.1173664331436157,-0.0015602111816406,-0.0205305814743042,0.0836231857538223,0.3182474672794342,-0.1047952994704246
1.7726343161670866e+18,12.925086669921876,-0.0296119451522827,0.0082950592041015,-0.0020650029182434,0.0735031813383102,0.3086601197719574,-0.0989363491535186
1.77263431618708e+18,12.945079833984376,-0.0585081577301025,-0.0013923645019531,0.0083705782890319,0.0591221265494823,0.2878874540328979,-0.0664458125829696
1.7726343162070735e+18,12.965073486328125,-0.1201801300048828,0.0226678848266601,0.0802565217018127,0.0474042259156703,0.255929559469223,-0.0438089631497859
1.772634316227067e+18,12.98506689453125,-0.1317934989929199,0.1573944091796875,0.136681854724884,0.0380831696093082,0.2242379784584045,-0.0411458052694797
1.7726343162470602e+18,13.005060302734377,-0.0851156711578369,0.2725610733032226,0.0870119333267211,0.0181094799190759,0.1922800689935684,-0.050999492406845
1.7726343162670536e+18,13.025053466796876,-0.0677568912506103,0.2162971496582031,0.0043760538101196,0.0005326317623257,0.1629853248596191,-0.0496679134666919
1.7726343162870472e+18,13.045047119140625,-0.0547142028808593,0.1019659042358398,-0.0153332948684692,-0.0007989476434886,0.1288968920707702,-0.0339552760124206
1.7726343163070405e+18,13.06504052734375,-0.0282826423645019,0.0545549392700195,-0.0304943919181823,0.0125168468803167,0.0982705578207969,-0.0233026389032602
1.7726343163270339e+18,13.085033935546877,-0.0554002523422241,-0.0066680908203125,-0.0611810684204101,0.0138484258204698,0.0665789693593978,-0.0179763212800025
1.7726343163470272e+18,13.105027099609377,-0.0614866018295288,0.0022668838500976,-0.089541494846344,0.0023968429304659,0.0428768582642078,-0.0129163200035691
1.7726343163670208e+18,13.125020751953125,-0.0473552942276001,-0.068333625793457,-0.066010296344757,-0.0031957905739545,0.035420011729002,-0.0134489517658948
1.7726343163870141e+18,13.14501416015625,-0.0358855724334716,0.0132970809936523,-0.1908224821090698,-0.0082557927817106,0.0340884327888488,-0.0097205294296145
1.7726343164070075e+18,13.165007568359377,-0.0408387184143066,0.1190710067749023,-0.1952716708183288,0.0023968429304659,0.0383494868874549,-0.0035952643956989
1.7726343164270008e+18,13.185000732421877,0.0095002651214599,0.1246767044067382,-0.1697576642036438,0.0058589493855834,0.0537958070635795,-0.0057257916778326
1.7726343164469942e+18,13.204994140625,-0.001179814338684,0.0877714157104492,-0.1321927905082702,0.0002663158811628,0.0724379196763038,-0.0139815835282206
,,,,,-0.0095873717218637,0.0870852917432785,-0.0211721118539571
,,,,,-0.006657897029072,0.097737930715084,-0.0254331659525632
,,,,,-0.0069242129102349,0.097471609711647,-0.0201068483293056
,,,,,-0.0082557927817106,0.0897484496235847,-0.0193079020828008
,,,,,-0.0029294746927917,0.0830905586481094,-0.0217047445476055
,,,,,0.0282294824719429,0.0894821360707283,-0.0318247489631176
,,,,,0.0074568446725606,0.0719052851200103,-0.0406131707131862
,,,,,-0.0151800047606229,0.0591221265494823,-0.0376836955547332
,,,,,0.0053263176232576,0.0620516017079353,-0.0398142226040363
,,,,,-0.0007989476434886,0.0537958070635795,-0.0326236970722675
,,,,,-0.0247673764824867,0.0370179079473018,-0.0187752693891525
,,,,,-0.0452736988663673,0.0274305362254381,-0.0011984214652329
