time,seconds_elapsed,accel_z,accel_y,accel_x,gyro_x,gyro_y,gyro_z
1772807885448056600,0.091056640625,0.2488666242748498,-0.7010925056248903,-0.700298432637751,0.0345056354999542,0.0756727084517479,-0.2525184750556946
1772807885468105500,0.11110546875,0.2415636077851057,-0.6245994869224727,-0.6950852280341089,0.0376653932034969,0.2063795775175094,-0.245976835489273
1772807885488153300,0.1311533203125,0.0581043984442949,-0.6481956126958132,-0.5885273259356617,0.0763362348079681,0.2038680166006088,-0.2279177755117416
1772807885508202500,0.151202392578125,0.1780009439349174,-0.6752247816577553,-0.5176476536029949,0.1416347324848175,0.1754140853881836,-0.1946278214454651
1772807885528251400,0.17125146484375,0.1961895115762948,-0.7398793323978782,-0.4415453877838328,0.1646113693714141,0.1023760885000228,-0.176002100110054
1772807885548300500,0.191300537109375,0.2982914571791887,-0.7821671530291437,-0.3834324772395193,0.1633029580116272,0.0595945157110691,-0.1667991727590561
1772807885568349700,0.211349609375,0.4256400722414254,-0.6669806849256158,-0.4342723280409351,0.1370888650417328,0.0576305426657199,-0.1818829178810119
1772807885588397600,0.2313974609375,0.3832569745421409,-0.5596038676597178,-0.3894123188341036,0.0584933459758758,0.0278041884303092,-0.2503347098827362
1772807885608446700,0.25144677734375,0.1844587417721748,-0.4424724029682576,-0.1995358628621324,-0.0290973223745822,-0.0336885228753089,-0.3484643697738647
1772807885628495400,0.271495361328125,-0.0535644169270992,-0.2482137133240699,-0.1216201909454539,-0.0456049554049968,0.0047125117853283,-0.4053212106227875
1772807885648544500,0.29154443359375,-0.1224947452902793,-0.0465239968962967,-0.0043627617867663,0.006034905090928,0.1506822854280471,-0.3879896402359009
1772807885668592400,0.31159228515625,-0.1738812336564064,0.1147257187239825,0.2096010740742087,0.0579425804316997,0.2549684941768646,-0.3104012012481689
1772807885688641500,0.3316416015625,-0.2173842752963304,0.0872036516785621,0.3675232892395928,0.1036209017038345,0.2403797209262848,-0.1848530620336532
1772807885708690400,0.3516904296875,-0.1895522655189037,0.1275713179022073,0.4204781229009851,0.1387210488319397,0.1410965025424957,-0.0800927877426147
1772807885728739600,0.371739501953125,-0.1130956333041191,0.3108855658143759,0.4505336539467796,0.1747006475925445,0.0294068790972232,-0.050161276012659
1772807885748787500,0.391787353515625,-0.1516623875856399,0.4975700208120048,0.424427262385562,0.1379747539758682,-0.1119846776127815,-0.0975875556468963
1772807885768836600,0.411836669921875,-0.3346750222027301,0.7270655896626412,0.364028871252574,-0.0096767023205757,-0.2777078151702881,-0.1943534016609192
1772807885788885500,0.431885498046875,-0.3833177648186683,0.8256630342759191,0.4325028341503814,-0.1665272712707519,-0.2982861697673797,-0.280342549085617
1772807885808934400,0.451934326171875,-0.3294236775457859,0.8712398134499788,0.5538099040260538,-0.2278991639614105,-0.0969460755586624,-0.2799948155879974
1772807885828983600,0.471983642578125,-0.1166781679660081,0.8352174829542637,0.6334552127469331,-0.1551358997821808,0.2163916677236557,-0.1654775440692901
1772807885849031400,0.492031494140625,0.1756020660996436,0.7408687818266451,0.6949329600818455,-0.0397242531180381,0.4173301160335541,-0.0018552071414887
1772807885869080600,0.51208056640625,0.2231412313878536,0.4508639453470707,0.9354185633718968,0.0111925201490521,0.3157599866390228,0.093735471367836
1772807885889129500,0.53212939453125,0.3938900122374296,0.0836946206443011,1.0855749303087592,0.0133276721462607,0.1278178244829177,0.1067493855953216
1772807885909177900,0.552177734375,0.6148655900239944,-0.0543117281630635,1.1213197590373456,-0.0205131843686103,0.0159894004464149,0.0719262883067131
1772807885929225700,0.572225830078125,0.4348246646940708,-0.1532655849985778,1.156300033134222,-0.1077099591493606,-0.1191546097397804,0.0485810674726963
1772807885949275000,0.59227490234375,0.2871715127497911,-0.2387880055919289,1.0674889462590218,-0.1796153485774994,-0.1429300010204315,0.0772898867726326
1772807885969323500,0.612323486328125,0.0473801753342151,-0.3362564461752772,1.1030332839794457,-0.1869244426488876,-0.0690205171704292,0.1329908221960067
1772807885989372700,0.63237255859375,-0.1036556047856807,-0.3042117871388793,1.019257341727242,-0.1303872168064117,0.0032768019009381,0.2052990049123764
1772807886009420500,0.652420654296875,-0.1060766944527626,-0.4083956535823643,0.8259753881607205,-0.0579083152115345,0.0415597073733806,0.2642615735530853
1772807886029469700,0.6724697265625,-0.1189414367228746,-0.5208090037107468,0.7399903915569186,0.0091827614232897,0.058239709585905,0.2631817460060119
1772807886049518800,0.692518798828125,0.1125216328084468,-0.5041209037601947,0.5696051102574914,0.0839185416698455,0.1206089630722999,0.2188748866319656
1772807886069567700,0.712567626953125,0.2434212183505296,-0.5460486589074135,0.5162412574037909,0.1150671169161796,0.1593503504991531,0.1782117336988449
1772807886089617000,0.732616943359375,0.3792956696957349,-0.5195581268668175,0.4358596702976152,0.0994602814316749,0.1234890520572662,0.1617695987224578
1772807886109664800,0.752664794921875,0.3387847956091165,-0.4930183488570153,0.4309059568803757,0.0734296739101409,0.0505640879273414,0.1400106251239776
1772807886129713700,0.772713623046875,0.4102928655058145,-0.3821775087423622,0.3331599414646625,0.0818647146224975,0.0309067722409963,0.132857009768486
1772807886149762600,0.792762451171875,0.4528256008088588,-0.3377330945990979,0.142304995849356,0.0816707834601402,0.0349659286439418,0.1465006917715072
1772807886169811700,0.812811767578125,0.612993950933218,-0.376718951075524,0.1071666085813194,0.0466557405889034,0.051083754748106,0.1484663933515548
1772807886189859600,0.832859619140625,0.4649281265348196,-0.3521596793584525,0.1258800768796354,0.0148372799158096,-0.0020307735539972,0.1048108711838722
1772807886209908700,0.85290869140625,0.6772270613908767,-0.3337771965801716,-0.0272178964670747,0.0516988225281238,0.0383332632482051,0.090882122516632
1772807886229958000,0.8729580078125,0.7853133421003818,-0.4207406097620725,0.0623064532440155,0.0880733355879783,0.0740289390087127,0.1103053614497184
1772807886250006800,0.8930068359375,0.8350181609898805,-0.4009009139128029,0.0778836693432182,0.1004761159420013,0.0155834285542368,0.1275657266378402
1772807886270055000,0.913054931640625,1.0155763881921769,-0.4949178988680243,0.0267933874446898,0.0681856721639633,-0.0259334668517112,0.127567782998085
1772807886290103600,0.933103515625,1.0439216081887484,-0.6176438225656747,0.1129481876574456,0.0041942270472645,-0.0567970760166645,0.0787562578916549
1772807886310152700,0.953152587890625,0.944360579240322,-0.5956456335082649,0.0962942457048222,-0.0199472140520811,-0.0782947316765785,0.0234059523791074
1772807886330201600,0.97320166015625,0.893755596640706,-0.5589104785680771,0.0778070969756692,-0.0190557576715946,-0.08136797696352,0.0088700018823146
1772807886350250800,0.993250732421875,0.6462520774126053,-0.6217306534878909,0.1073834662023931,-0.0195967089384794,-0.1298291385173797,0.0101242708042263
1772807886370298600,1.013298583984375,0.4807394436508417,-0.5739623556189238,0.002151515478082,-0.0020815366879105,-0.13587287068367,0.0022878726013004
1772807886390347800,1.03334765625,0.4291033644378185,-0.5723457142025232,-0.0758489851778373,0.0118345450609922,-0.081794187426567,0.0132808685302734
1772807886410397000,1.05339697265625,0.1170060847461223,-0.6860939661964773,-0.1042925144497305,-0.0016659393440932,-0.1157105341553688,-0.0079989461228251
1772807886430445600,1.073445556640625,0.0699175858348608,-0.688995678987354,-0.1872019030004739,0.0225803274661302,-0.1232954636216163,-0.0384156480431556
1772807886450493700,1.09349365234375,-0.183046536886692,-0.6351107979342341,-0.3397508276296779,-0.0031444502528756,-0.2240584194660186,-0.0897207781672477
1772807886470542600,1.11354248046875,-0.583931522578001,-0.736843325702846,-0.4371916495537385,-0.0955573990941047,-0.3873901963233948,-0.1667881608009338
1772807886490591700,1.133591796875,-0.9281377587139606,-0.4934394968785345,-0.6316213483832777,-0.2213534116744995,-0.4352072477340698,-0.3217931389808655
1772807886510640600,1.153640625,-1.182629821655154,-0.0775624014995992,-0.9595101445119828,-0.4052717983722687,-0.3737758100032806,-0.5261452198028564
1772807886530688800,1.173688720703125,-1.516451441898942,0.1843969285823404,-0.9339555781472474,-0.6402303576469421,-0.3122263252735138,-0.7222865223884583
1772807886550737700,1.193737548828125,-1.9326304428339005,0.3755288645081222,-0.6095427510334178,-0.7850661873817444,-0.2818614244461059,-0.8418810367584229
1772807886570786800,1.213786865234375,-2.0567244400143623,0.403307536663115,-0.323975275946781,-0.6827494502067566,-0.1791330724954605,-0.8078979849815369
1772807886590835700,1.233835693359375,-1.673978337603807,0.3594591887168586,-0.2778820351505652,-0.2820736169815063,0.085118182003498,-0.578018307685852
1772807886610884600,1.253884521484375,-0.9792916073679924,0.4473535991385579,-0.414381194265373,0.278557151556015,0.3405969142913818,-0.2489067614078521
1772807886630932700,1.2739326171875,-0.3351414706707,0.3531852230139076,-0.3507963916486128,0.7238879203796387,0.3214194476604461,-0.0365825816988945
1772807886650981600,1.293981689453125,0.1435433785378932,0.3189906924672425,-0.4137470610802993,0.9558383226394652,0.0786647051572799,0.0065046641975641
1772807886671030800,1.31403076171875,0.6696802992731332,0.3757242409497499,-0.5396364903101697,0.9630682468414308,-0.1476441919803619,-0.0819301456212997
1772807886691079700,1.33407958984375,0.6599485943317412,0.4840175885386765,-0.7142180907882749,0.770002543926239,-0.3832647502422333,-0.2332770675420761
1772807886711127800,1.3541279296875,0.4739151505887508,0.651965194362402,-0.7922215871188789,0.5300933718681335,-0.5554310083389282,-0.379092276096344
1772807886731176700,1.3741767578125,0.4265232848167419,0.7276192780226468,-0.7773951893869787,0.3280317783355713,-0.5189942121505737,-0.4675391912460327
1772807886751225600,1.3942255859375,0.4745288985729217,0.7459834944918752,-0.7640478512316942,0.1123730242252349,-0.3081967532634735,-0.5538106560707092
1772807886771274800,1.414274658203125,0.5136246451646089,0.7508749197952449,-0.5678717105936258,-0.081245020031929,-0.017429819330573,-0.6385951638221741
1772807886791322600,1.434322509765625,0.4980336928009987,0.6138673727668822,-0.2492845939585939,-0.1223727464675903,0.2772036790847778,-0.6300578713417053
1772807886811371800,1.454371826171875,0.7992553582131862,0.5073858969055116,0.0270169488011859,-0.0134358536452054,0.4679665863513946,-0.5073797702789307
1772807886831420700,1.474420654296875,1.010104094260931,0.2512783615916967,0.1944675100892782,0.1370990574359893,0.3704037964344024,-0.3103797137737274
1772807886851469800,1.4944697265625,1.1867185522735118,-0.1597838808514177,0.3007381562115624,0.2409685850143432,0.039018876850605,-0.0582554005086422
1772807886871518700,1.514518798828125,1.032547396737337,-0.4912304425269365,0.341416130493395,0.2919538617134094,-0.4356867372989654,0.2136956304311752
1772807886891566800,1.53456689453125,0.9235030846506356,-0.5897580367743969,0.1520435871892608,0.3444675207138061,-0.7649357914924622,0.3588283956050873
1772807886911616800,1.55461669921875,1.0854472122758627,-0.384444723021984,-0.2959808604155667,0.4071678519248962,-0.6226677298545837,0.2382873594760894
1772807886931666000,1.574666015625,1.302010234317183,-0.0990253146365284,-0.6345728186000138,0.4375171661376953,-0.1268807053565979,0.0030716392211616
1772807886951714800,1.59471484375,1.3504086467832326,-0.2930313446938991,-0.5607799257017672,0.2570481300354004,0.3346130549907684,-0.1732397079467773
1772807886971763000,1.614762939453125,1.097651444810629,-0.3353898924738168,-0.4762682895861566,-0.0562625303864479,0.5399015545845032,-0.2791680991649627
1772807886991811800,1.634811767578125,0.8953338057428598,-0.231492003364861,-0.2168906648267991,-0.2622826695442199,0.5754415392875671,-0.3431727588176727
1772807887011860700,1.65486083984375,0.6864952404737472,-0.3077528207466006,-0.0366204425193369,-0.2868985533714294,0.4481204450130462,-0.2849645316600799
1772807887031910000,1.674909912109375,0.4511655586421489,-0.5619625596150756,0.1533387233000248,-0.2087322622537613,0.2324828654527664,-0.147676795721054
1772807887051957800,1.694957763671875,0.0640589229345321,-0.806404353184998,0.2776108535263687,-0.0850529000163078,-0.0051439069211483,0.007085395976901
1772807887072007000,1.7150068359375,-0.2410346154749393,-0.7092085920631885,0.0110751919722184,0.064471997320652,-0.1279900074005127,0.1108154505491256
1772807887092055800,1.735055908203125,-0.3890659530818462,-0.615073387555778,-0.2628747644264251,0.1407367289066314,-0.0738378018140792,0.0897143185138702
1772807887112105000,1.75510498046875,-0.6053127487808465,-0.4821197920933365,-0.393088888454996,0.1174940764904022,0.0307850558310747,-0.0204525478184223
1772807887132153900,1.77515380859375,-0.8662228620707988,-0.3516773026689886,-0.4218577406911179,0.0875478237867355,0.1971597522497177,-0.0875440016388893
1772807887152202000,1.795201904296875,-1.1468886461883785,-0.2079968537479639,-0.2796643519900739,0.1044754832983017,0.3250713050365448,-0.0679211020469665
1772807887172250600,1.815250732421875,-1.172363279184699,-0.3427326564520597,-0.0880573458984494,0.1225484460592269,0.4124191999435425,0.0327187366783618
1772807887192299800,1.8352998046875,-1.1183253995269535,-0.5158128028586506,0.0327283304516226,0.1434931457042694,0.4385043382644653,0.1797984689474105
1772807887212349000,1.855348876953125,-1.3299351830750703,-0.5184276615321636,0.101456706501916,0.1002749130129814,0.2635969817638397,0.2476943731307983
1772807887232396800,1.875396728515625,-1.3833353493511675,-0.5132838689029217,0.1512208543632179,0.0447020679712295,0.0784731805324554,0.2423146665096283
1772807887252446000,1.895446044921875,-1.3274322603434323,-0.4755176173493265,0.2349508385818451,0.0511294603347778,-0.0355986095964908,0.2458688616752624
1772807887272494800,1.915494873046875,-0.9778174431622028,-0.1747872425854206,0.2227229329105466,0.1138818562030792,-0.0361390709877014,0.3563606441020965
1772807887292544000,1.9355439453125,-0.934369931101799,0.224595229588449,0.0692790687356144,0.193359225988388,-0.0420897081494331,0.5047299265861511
1772807887312592000,1.955591796875,-0.5244996749222278,0.8083347367256879,-0.104085118776746,0.3472937345504761,0.0470355525612831,0.4895758032798767
1772807887332640800,1.975640869140625,-0.1132306578606367,1.1431585197493432,-0.2006028345065191,0.5056504607200623,0.131878450512886,0.3383646309375763
1772807887352689700,1.995689697265625,0.3795581200242042,1.4022744430989027,0.0345825800161808,0.5988671779632568,0.1817992478609085,0.2132443934679031
1772807887372738800,2.01573876953125,0.6924719767957925,1.3349889593333004,0.2662831115651876,0.5267422795295715,0.1198689937591552,0.1945067048072815
1772807887392786700,2.03578662109375,0.9052636636048554,1.3055813708022237,0.2641987065065652,0.2913675606250763,-0.0019549201242625,0.1642999202013015
1772807887412835800,2.0558359375,0.6085317108273506,1.3839552348151802,0.0930022914873436,-0.0181455761194229,-0.2040270715951919,0.092398390173912
1772807887432885000,2.075885009765625,0.1615758788347244,1.4453236034914851,-0.3384461017066613,-0.2283248156309127,-0.3467650115489959,0.0017829600255936
1772807887452934000,2.095933837890625,-0.014429507368803,1.28503542637974,-0.5070697801610454,-0.3436470627784729,-0.2352500408887863,-0.1948008984327316
1772807887472982800,2.115982666015625,-0.3890209448963403,1.2843912832573054,-0.4514843422677367,-0.3641329407691955,-0.1097052991390228,-0.4170540273189544
1772807887493031000,2.136031005859375,-0.4335375474929809,1.3952479054629805,-0.2661561607172713,-0.2398443073034286,-0.0165134593844413,-0.4776746332645416
1772807887513079800,2.156079833984375,-0.0240308639287948,1.1768816333919765,0.1526389775328338,-0.0076965913176536,0.1484347283840179,-0.3037513196468353
1772807887533128700,2.176128662109375,0.5041279180228709,0.7290338209956884,0.3519252860806882,0.1681471168994903,0.254230797290802,0.0044431341812014
1772807887553177900,2.196177734375,0.881869928535819,0.2845055084109306,0.517289305151999,0.1698492765426635,0.1976836919784546,0.1675981432199478
1772807887573225700,2.216225830078125,1.1578566149264573,-0.0354562210455536,0.4614155883692205,0.0864464864134788,0.067146435379982,0.183700680732727
1772807887593275000,2.23627490234375,1.2473188591867683,-0.153782740740478,0.4174886222288012,-0.0400185324251651,-0.0556291602551937,0.0793612524867057
1772807887613324000,2.256323974609375,1.0426607944726944,-0.1832166327565908,0.4228298736589029,-0.1555898785591125,-0.1523559689521789,-0.0328012406826019
1772807887633372700,2.27637255859375,0.8159218308538198,-0.0093760233715176,0.240035338771902,-0.2533592879772186,-0.1717668175697326,-0.0986101627349853
1772807887653420800,2.2964208984375,0.4772615384072065,0.1241778760716319,0.1531820714335888,-0.3020968437194824,-0.127307116985321,-0.1252284944057464
1772807887673469700,2.3164697265625,0.0569295094460248,0.0379965531781315,0.1223538024496287,-0.2445214539766311,-0.0900179594755172,-0.0906046032905578
1772807887693518800,2.336518798828125,-0.1208773732215166,0.1848056555137038,-0.0156893712367862,-0.113614484667778,-0.0287838485091924,-0.0953095033764839
1772807887713567700,2.356567626953125,-0.1221142215400934,0.0193126032352447,-0.1248667716512456,-0.002967644482851,0.072565920650959,-0.1403819620609283
1772807887733615900,2.376615966796875,0.1316775841772556,-0.0598261076703667,-0.0125078551238402,0.0498831681907177,0.1462467312812805,-0.1862224787473678
1772807887753665000,2.3966650390625,0.3385468952000141,-0.3891863645911216,0.2683487023254856,0.0673231482505798,0.1369741261005401,-0.1202677115797996
1772807887773714000,2.4167138671875,0.6053723700135946,-0.5060775907859206,0.3550868919167667,0.1100896447896957,0.072351649403572,0.0243207234889268
1772807887793762800,2.4367626953125,0.6821563344866037,-0.580714314097166,0.2820905562236905,0.136166512966156,-0.0654461607336998,0.1477688997983932
1772807887813811700,2.456811767578125,0.3985428064793348,-0.6259335120052099,0.2984373684559017,0.0908150821924209,-0.3205837607383728,0.1733926385641098
1772807887833859800,2.47685986328125,0.1592167484879493,-0.5751131330892443,0.0327149960460141,0.0222012884914875,-0.4710453450679779,0.1106322854757309
1772807887853908700,2.49690869140625,-0.0649321986377239,-0.527494472824037,-0.1749318386878818,-0.0157196801155805,-0.3701319992542267,-0.0061709750443696
1772807887873958000,2.5169580078125,-0.220855750799179,-0.4332587305516004,-0.1229974706480279,0.0407134033739566,-0.1248075291514396,-0.092953123152256
1772807887894007000,2.537007080078125,-0.2849427307844162,-0.4636281498521566,0.1188391088595613,0.1002182289958,0.0159141384065151,-0.1125808432698249
1772807887914054000,2.557053955078125,-0.5629758283108472,-0.3931991073638201,0.4014486109234392,0.0530929863452911,-0.0668490827083587,-0.1197161227464675
1772807887934102800,2.577102783203125,-0.8499789987564086,-0.4402119106903672,0.4792529679527506,-0.008093548938632,-0.1976854652166366,-0.1182307824492454
1772807887954152000,2.59715185546875,-0.9675783732205628,-0.2826242247089743,0.3965024597581476,-0.0221632048487663,-0.1997445821762085,-0.1537981480360031
1772807887974201000,2.617201171875,-1.109348312345147,0.0608534048914909,0.1297436021736823,-0.0621325746178627,-0.2151575535535812,-0.2093217819929123
1772807887994249000,2.6372490234375,-0.9912725525408984,0.2383256487771868,0.0126573831297457,-0.1782884746789932,-0.1893246173858642,-0.2871230840682983
1772807888014297900,2.6572978515625,-1.072794066929817,0.4230278439164161,0.0305018683074973,-0.2789087295532226,-0.1672838479280471,-0.3428000211715698
1772807888034346800,2.6773466796875,-0.9907967517226934,0.6636047787517309,-0.0724275958944112,-0.2954868078231811,-0.1013134345412254,-0.3071347773075104
1772807888054396000,2.69739599609375,-0.8939362139046192,0.6293921280264854,-0.1662916187776252,-0.1927948892116546,-0.0106823844835162,-0.2149114906787872
1772807888074444800,2.71744482421875,-0.9290952055692672,0.7502008199259639,-0.2326465984937734,-0.0210665147751569,-0.0121874678879976,-0.1743513643741607
1772807888094493000,2.737492919921875,-0.6423761127620935,0.7466057180434464,-0.2402154628454707,0.1840666681528091,-0.0220811031758785,-0.1214051470160484
1772807888114541800,2.757541748046875,-0.0167670104056596,0.623816373720765,-0.2123281426842324,0.2605204582214355,0.0358290933072567,-0.0760035291314125
1772807888134591000,2.777591064453125,0.5345803394317626,0.534085541652143,-0.1596490937569178,0.1649396866559982,0.050260130316019,-0.0483773574233055
1772807888154640000,2.797639892578125,0.8643979847311973,0.3322188612222671,-0.1676922062905505,0.0151080219075083,0.0110732521861791,0.0171837992966175
1772807888174687700,2.817687744140625,0.9324597135663032,0.2142176279589533,-0.3640259121105074,-0.0995465517044067,-0.062399573624134,0.0688451454043388
1772807888194737000,2.83773681640625,0.9529559736281632,0.1393462191089987,-0.4658135310672223,-0.0909187197685241,-0.1030948236584663,0.0263459887355566
1772807888214785800,2.857785888671875,0.9551058451384306,0.1005704982519149,-0.3860226033305749,-0.0009632273577153,-0.0937046185135841,-0.0683026164770126
1772807888234835000,2.8778349609375,1.036651909446716,0.2414700842827558,-0.215281823124364,0.0974429696798324,-0.0688940733671188,-0.091319516301155
1772807888254883800,2.8978837890625,1.1748282079935073,0.2440744215622544,-0.0453102371923625,0.0665717050433158,-0.0426187515258789,-0.0465774983167648
1772807888274932000,2.917931884765625,1.2815005302518605,0.1734051405772566,0.0223145797965116,-0.0385345295071601,0.0095821022987365,-0.0056585147976875
1772807888294980900,2.93798095703125,1.1595435451000928,0.0896951762333512,0.1226663755301386,-0.1117916703224182,0.0199504774063825,0.0573996864259243
1772807888315029800,2.95802978515625,0.8131798386693,0.0471560111895203,0.0205590596323832,-0.1447813808917999,-0.067708171904087,0.1902288049459457
1772807888335079000,2.978078857421875,0.6376683734625578,0.0055029813304543,-0.1929523745522834,-0.1417797803878784,-0.1127236038446426,0.2585808038711548
1772807888355126800,2.998126708984375,0.44985798317492,-0.1258387950211763,-0.274047516755294,-0.1496518552303314,-0.1108029633760452,0.2316150069236755
1772807888375176000,3.018176025390625,0.3809679868221283,-0.194184309233725,-0.3786788529716431,-0.147695243358612,-0.0561570227146148,0.1688823848962783
1772807888395224800,3.038224853515625,0.4506055866718292,-0.3050447308316826,-0.3382920071234926,-0.1251806169748306,0.0732877850532531,0.129099816083908
1772807888415274000,3.05827392578125,0.5044295313179493,-0.3850204770833254,-0.0798876021773088,-0.07727562636137,0.1678230911493301,0.1396871209144592
1772807888435321900,3.07832177734375,0.6191659175664186,-0.5345420532479882,0.0900105805917643,-0.0127202151343226,0.2063666880130767,0.2294943183660507
1772807888455371000,3.09837109375,0.6980383787512778,-0.6196048935055732,0.088990863888897,0.0159766040742397,0.11133374273777,0.3266067206859588
1772807888475419600,3.118419677734375,0.6428332088798284,-0.7293748895183205,-0.0230760108893737,-0.0392241813242435,-0.0558223165571689,0.3509078919887543
1772807888495468800,3.13846875,0.5042874924987554,-0.7020657345712185,-0.3199581492599099,-0.1163655743002891,-0.1595983505249023,0.2897270619869232
1772807888515518000,3.15851806640625,0.04886310736835,-0.53393268917799,-0.6715132868539542,-0.2146430015563964,-0.218517780303955,0.128415048122406
1772807888535565800,3.17856591796875,-0.4028004639238119,-0.4229816666871309,-0.6422428417712449,-0.2728225886821747,-0.1598235219717025,-0.0667444691061973
1772807888555615000,3.198614990234375,-0.791325734257698,-0.171283910639584,-0.4627045687338337,-0.2050429582595825,0.0083718933165073,-0.1414287686347961
1772807888575663900,3.218663818359375,-0.9950164152443408,0.0445800232216715,-0.2268672113747336,-0.0336018279194831,0.1942249089479446,-0.0739197582006454
1772807888595713000,3.238713134765625,-0.8285469191491603,0.0278439924761652,0.0261584048762451,0.1363088935613632,0.3336742520332336,0.0968324616551399
1772807888615761000,3.258760986328125,-0.3747223704308271,-0.1425564133271575,0.1720635715088806,0.2314002066850662,0.3974204659461975,0.2455242574214935
1772807888635809800,3.278809814453125,-0.2242190897524356,-0.2346910916671157,0.2930883173118345,0.2141903340816497,0.2506616711616516,0.3059895038604736
1772807888655858700,3.298858642578125,-0.0911152721643447,-0.3186763658210635,0.2617041497444733,0.1489260196685791,0.1073742359876632,0.3300798237323761
1772807888675907800,3.318907958984375,-0.1091571248114108,-0.1814373481243848,0.2563390059821308,0.0235554054379463,0.0040377713739871,0.333491712808609
1772807888695957000,3.33895703125,-0.2779927655160427,-0.1962073394939303,0.3094773064516484,-0.1589448750019073,-0.0942756086587905,0.3523536324501037
1772807888716004900,3.3590048828125,-0.4863537764012813,-0.1326733172163367,0.1907207247763872,-0.3216394782066345,-0.109414592385292,0.3456089794635772
1772807888736054000,3.379053955078125,-0.6730576667517423,0.0890223915383219,0.042005323028611,-0.4051248729228973,-0.063990294933319,0.2784863710403442
1772807888756103000,3.39910302734375,-0.6384703374952078,0.25817279728055,0.0753111428409349,-0.3638106882572174,0.0150290234014391,0.2136211544275283
1772807888776151800,3.41915185546875,-0.8844272118031978,0.2179234967395663,0.2351206421907991,-0.2790136933326721,-0.1043052971363067,0.2301330268383026
1772807888796199700,3.43919970703125,-1.0229343497395516,0.1734561401121318,-0.1082495541129726,-0.0363419279456138,-0.1751657724380493,0.2990806698799133
1772807888816248800,3.459248779296875,-0.4653548275142908,0.4663412082031369,-0.1810157251788303,0.2871665358543396,0.0279284436255693,0.2728287577629089
1772807888836297700,3.479297607421875,-0.1367190854758024,0.197768889722228,0.1311428197134286,0.4052558243274688,0.1252014189958572,0.2226428389549255
1772807888856347000,3.499346923828125,0.1577612889826297,0.199408181361854,0.3830749325061217,0.3371259868144989,0.0669318512082099,0.1993481963872909
1772807888876396000,3.51939599609375,0.4040846585154533,0.2683797185182571,0.4106169828936457,0.1894252151250839,-0.0028762575238943,0.2144483178853988
1772807888896444000,3.53944384765625,0.5724906756311655,0.374051047040522,0.4132378694491461,0.0676972344517707,-0.0415276400744915,0.2538931667804718
1772807888916494300,3.559494384765625,0.531715013128519,0.3197507170543074,0.37076899316255,-0.0306419841945171,-0.1148248016834259,0.2742258608341217
1772807888936543500,3.57954345703125,0.4711462703973054,0.3380255016744136,0.10884977589529,-0.0636525750160217,-0.1433216631412506,0.1823989599943161
1772807888956592400,3.59959228515625,0.4457926334321498,0.503892940223217,-0.039189443623973,-0.0043024159967899,-0.0945382863283157,0.022116158157587
1772807888976641500,3.6196416015625,0.5198930579096078,0.5412544103682041,0.0193525881857611,0.0001671882346272,-0.0306439418345689,-0.058345440775156
1772807888996689400,3.639689453125,0.7248860536664724,0.4239052112728357,0.07858523260816,-0.0613032579421997,0.0780523270368576,-0.0417932197451591
1772807889016738300,3.65973828125,0.6533353136718273,0.2999702040463686,0.3828426946528255,-0.026607247069478,0.1492462903261184,0.0117242624983191
1772807889036787500,3.679787353515625,0.6899713921517133,0.2921443327262997,0.479719599083811,0.0893173217773437,0.1175677552819252,0.0894252955913543
1772807889056836400,3.69983642578125,0.9276642959833143,0.1239969665467739,0.4589012674607336,0.1072025299072265,0.0155212637037038,0.1117161661386489
1772807889076884500,3.719884521484375,1.0706173074126244,-0.0678287968620657,0.4950732355602085,0.0286713726818561,-0.0716546028852462,0.0694627240300178
1772807889096933400,3.739933349609375,0.956628524661064,-0.1532730376526713,0.4449155583366751,-0.110280767083168,-0.1280261874198913,-0.0046758772805333
1772807889116982500,3.759982421875,0.4656733919441699,-0.1676385398745536,0.3929324923168867,-0.1815206855535507,-0.1617959141731262,-0.041099514812231
1772807889137031400,3.780031494140625,0.0765881496399641,-0.0623351678818464,0.2297153490811586,-0.1483248919248581,-0.1386419534683227,-0.0219359621405601
1772807889157080300,3.800080322265625,-0.146910224622488,-0.0613777210265398,0.0344157720819115,-0.108416311442852,-0.0720794275403022,-0.0400555208325386
1772807889177128200,3.820128173828125,-0.3925555487632751,-0.0859334856122732,0.0630787619239185,-0.0488967709243297,-0.0281677599996328,-0.0874189659953117
1772807889197177300,3.84017724609375,-0.2591337512671947,-0.0615641835093498,0.060353675208427,0.0916492789983749,0.07924285531044,-0.0878992825746536
1772807889217226500,3.8602265625,-0.059870239073038,-0.0057414662614464,0.0647099707217887,0.2062303274869918,0.109627366065979,-0.0680539458990097
1772807889237275400,3.880275390625,0.0707516985714435,-0.149944477751851,0.1249956039289943,0.2121049910783767,0.0112651092931628,-0.0444183945655822
1772807889257324500,3.900324462890625,-0.0077507602572441,-0.0890814282491803,0.0839367588371038,0.168528750538826,-0.1479194909334182,-0.0433603189885616
1772807889277372400,3.920372314453125,-0.2065893250375986,0.0247553788110613,-0.127913455003919,0.1232149004936218,-0.2455999106168747,-0.0773153454065322
1772807889297421600,3.940421630859375,-0.4973240832269191,0.1582522873699665,-0.2067780708090402,0.140936940908432,-0.2280419468879699,-0.1214104741811752
1772807889317470200,3.96047021484375,-0.5921463932156562,0.205223297381401,-0.2983262910305522,0.2562938332557678,-0.0820309743285179,-0.079830065369606
1772807889337519400,3.980519287109375,-0.4795949497908353,0.2067465614259243,-0.2841735730428248,0.3314726948738098,0.0071380557492375,-0.0437675639986991
1772807889357567200,4.000567138671875,-0.3547545181572437,0.1406397660508752,-0.1607684714419767,0.2743553221225738,-0.0638838782906532,-0.0523251332342624
1772807889377616400,4.020616455078125,-0.127336924624443,0.1523547537639737,-0.2423282172157429,0.0641021206974983,-0.1759657859802246,-0.1149127483367919
1772807889397665500,4.04066552734375,-0.2429004093468189,0.325768077647686,-0.4295743794830515,-0.3265910744667053,-0.3761058151721954,-0.2973233163356781
1772807889417714400,4.06071435546875,-0.5377858574748039,0.2725914909943938,-0.534574932604283,-0.7172815799713135,-0.4284670054912567,-0.5180503129959106
1772807889437763300,4.080763427734375,-0.964756301537156,0.5152773808076977,-0.5415179201425984,-0.8584245443344116,-0.2497546225786209,-0.6475545763969421
1772807889457811500,4.1008115234375,-1.181658346274495,0.5492027390241623,-0.4994260970074683,-0.6592344641685486,0.0777900740504264,-0.5811581611633301
1772807889477860400,4.1208603515625,-1.2561422171115877,0.6391662108048797,-0.4376410007564351,-0.2372716218233108,0.2696385383605957,-0.3925945162773132
1772807889497909200,4.1409091796875,-1.0715694935709237,0.4957730543926358,-0.1073350604834035,0.218277707695961,0.1451291888952255,-0.1965018808841705
1772807889517958400,4.16095849609375,-0.6131091017454863,0.4011912751615047,-0.1136526095997542,0.4765114188194275,-0.1407076120376587,-0.0852139145135879
1772807889538007600,4.181007568359375,0.0928209070384502,0.3021408260837197,-0.4265403820820152,0.4548155665397644,-0.2419608831405639,-0.0885661244392395
1772807889558055400,4.201055419921875,0.527828527083993,0.3969353712826967,-0.7565312650565058,0.2417297065258026,-0.1496027112007141,-0.2180212587118148
1772807889578104600,4.2211044921875,0.705673403674364,0.4933250767186283,-0.9335331149514764,-0.0258847866207361,0.033532690256834,-0.3496458828449249
1772807889598153500,4.241153564453125,0.4950853643894195,0.504528900039196,-1.049160312559828,-0.1820303797721862,0.146024003624916,-0.39731565117836
1772807889618202400,4.261202392578125,0.407276148033142,0.472967348344624,-0.9480740468055008,-0.165167823433876,0.2105363756418228,-0.4531097114086151
1772807889638251300,4.281251220703125,0.4010474827766418,0.4047822853907942,-0.5810500853901729,-0.0069016255438327,0.1924508512020111,-0.4661827683448791
1772807889658299400,4.30129931640625,0.873798265761137,0.4105018320813774,-0.3501770907064899,0.1601747870445251,0.1844558715820312,-0.360160619020462
1772807889678348300,4.321348388671875,1.332324708560109,0.2800070279479026,-0.1854002238733693,0.1779819726943969,0.1652946770191192,-0.2405709028244018
1772807889698397400,4.3413974609375,1.6933692667722702,0.0907759572073817,-0.1065265023131854,0.0933317318558693,0.1151315867900848,-0.1547600924968719
1772807889718446600,4.361446533203125,1.5022984133839603,-0.1784215074345469,-0.0114108491007937,-0.002350757131353,-0.0554057545959949,-0.0784779787063598
1772807889738494500,4.381494384765625,1.3824591510385271,-0.1181511631280183,-0.1935380837520584,-0.0286023523658514,-0.1696733236312866,-0.0130777470767498
1772807889758543600,4.401543701171875,1.2347487159490584,-0.2456017772600054,-0.4988812130084261,-0.1017904877662658,-0.1659802794456482,0.0079870130866765
1772807889778592300,4.42159228515625,0.9199024298101665,-0.3973606109574437,-0.6118740800578146,-0.1792966723442077,-0.0939972847700119,-0.0427503287792205
1772807889798641400,4.441641357421875,0.6281617094486951,-0.4397378634378314,-0.5159631711147725,-0.1477311998605728,-0.005365670658648,-0.0904827415943145
1772807889818690300,4.461690185546875,0.4881050039827823,-0.4963105222702026,-0.4150251547247171,-0.0829450041055679,0.0733078643679618,-0.0633947700262069
1772807889838738400,4.481738525390625,0.4951601831912994,-0.626170243370533,-0.2172758464857935,-0.0487658195197582,0.1096972525119781,-0.007927899248898
1772807889858787300,4.501787353515625,0.2923568064332008,-0.7534300111055374,0.0605594132138649,-0.0028018965385854,0.0227921120822429,0.0661074370145797
1772807889878836500,4.52183642578125,0.1842816316395998,-0.7115078089162707,-0.0123140884006978,0.0186839643865823,-0.0803140103816986,0.1341641396284103
1772807889898885400,4.541885498046875,0.01154430732131,-0.7677712556689977,-0.1570302712943405,-0.0338919647037982,-0.1429931819438934,0.1446568816900253
1772807889918933500,4.56193359375,-0.3805442084521055,-0.7291019177958369,-0.2356992823289707,-0.1222446411848068,-0.1829923093318939,0.0931456834077835
1772807889938981400,4.5819814453125,-0.7500257556200027,-0.5848851700410247,-0.3268817014453932,-0.1463470458984375,-0.1372164189815521,0.0521125830709934
1772807889959030300,4.6020302734375,-0.9187702109098432,-0.3638502632826566,-0.4328575293395668,-0.043193582445383,0.030996648594737,0.0418686978518962
1772807889979079200,4.6220791015625,-0.9379957203835247,-0.2124143779292702,-0.4075706740003079,0.1376992762088775,0.2117497026920318,0.0457781329751014
1772807889999128300,4.64212841796875,-0.6974088486760854,-0.2766229384675622,-0.1245526642007753,0.3041459321975708,0.3447026312351227,0.1025654375553131
1772807890019177500,4.662177490234375,-0.2462771923035383,-0.3001639730527997,0.0144990723235416,0.3970246016979217,0.3710481226444244,0.2235874980688095
1772807890039225300,4.682225341796875,0.0865595085561275,-0.4021525214090943,0.112865824869927,0.3745014369487762,0.2930155992507934,0.3322746753692627
1772807890059274500,4.7022744140625,0.1893541125982999,-0.3825096633061766,0.2327750654453411,0.306446373462677,0.1754260957241058,0.3778485357761383
1772807890079323400,4.722323486328125,0.3632148879885673,-0.3336211292356252,0.2681878857405856,0.1791634857654571,0.127155601978302,0.3861269950866699
1772807890099372300,4.742372314453125,0.1987847887665033,-0.1932151719406247,0.0925396332785021,-0.1334788799285888,-0.0152179719880223,0.3673970997333526
1772807890119420400,4.76242041015625,-0.3625941257417202,-0.1965247348800301,-0.1489139291277155,-0.5540006160736084,-0.280670553445816,0.2848637700080871
1772807890139469300,4.78246923828125,-1.3217448623567818,0.1070779804497957,-0.3684122374359518,-0.8526427745819092,-0.504689633846283,0.1078387796878814
1772807890159518200,4.802518310546875,-1.9370780698925256,0.4896726916909217,-0.4565073945941403,-0.8421168923377991,-0.3844959139823913,-0.030035376548767
1772807890179567400,4.8225673828125,-2.0465210259079933,0.9325599590703844,-0.3733720152677968,-0.4044781923294067,0.0816096439957618,0.0304773245006799
1772807890199616500,4.842616455078125,-1.4697592488288878,1.1602071235753595,-0.0302387603919021,0.2280056178569793,0.5191068649291992,0.2710756659507751
1772807890219664400,4.862664306640625,-0.6225935539275408,0.9311237887874244,0.4088405112730339,0.5858979821205139,0.4406560063362121,0.5107202529907227
1772807890239713500,4.882713623046875,0.3861445126771927,0.571044276215136,0.6935762117106468,0.6338417530059814,0.1123924851417541,0.6157857775688171
1772807890259762200,4.90276220703125,1.107123622033,0.5022954418987036,0.5821825965514407,0.4508512020111084,-0.1845146715641021,0.5761498212814331
1772807890279811300,4.922811279296875,1.292034783747792,0.5140910936325788,0.1940878996545448,0.123512253165245,-0.2996121942996979,0.4233214557170868
1772807890299860200,4.942860107421875,0.9964940865814684,0.5523220400884747,-0.1014569622302427,-0.1619221270084381,-0.2141834646463394,0.2206649333238601
1772807890319908400,4.962908447265625,0.527418192717433,0.6795300776362418,-0.1121782992634922,-0.2622686326503753,-0.027517108246684,0.0377245284616947
1772807890339957200,4.982957275390625,0.1808428893625736,0.7609457935631275,-0.0695616485366597,-0.1981976777315139,0.1148681789636612,-0.0205929074436426
1772807890360006400,5.00300634765625,0.2562736856609582,0.7479471957802772,0.0549628490155562,-0.0425286404788494,0.2208182215690612,-0.0080488519743084
1772807890380055600,5.0230556640625,0.4445031781435012,0.6802458246901631,0.2104822408229112,0.0519094094634056,0.1824229955673217,-0.0165918804705142
1772807890400103400,5.043103515625,0.7662970914632081,0.5057260008692741,0.3348484060082584,0.0282409228384494,0.0773764103651046,-0.0362975783646106
1772807890420152300,5.06315234375,0.8510679630368948,0.3948305079579353,0.4355374891385435,-0.0459033474326133,0.0023325262591242,-0.0606114417314529
1772807890440201200,5.083201171875,0.8835492599248885,0.3361293126642704,0.3745577909862622,-0.112660989165306,0.0458419285714626,-0.069189429283142
1772807890460250400,5.10325048828125,0.7541536492049694,0.2267085684806108,0.3847401988372206,-0.1416188031435012,0.1268520057201385,-0.0633381605148315
1772807890480299300,5.12329931640625,0.448517089959979,0.0977986954510211,0.4638811382325365,-0.1203245148062706,0.0709757506847381,-0.0408735312521457
1772807890500347400,5.143347412109375,0.2411673019438981,0.0690083620354533,0.3433918144805357,-0.0512862093746662,-0.0449211932718753,-0.0082261953502893
1772807890520396500,5.163396484375,0.2022761380136012,0.009393851289153,0.129566574239498,-0.0147488079965114,-0.0968073606491088,-0.0006324709393084
1772807890540445400,5.183445556640625,0.2450841831266879,-0.0880786809474229,0.0274573769119102,-0.0115309692919254,-0.0688128843903541,-0.0293844677507877
1772807890560494300,5.203494384765625,0.2335077271014451,-0.1279910046190023,-0.0880785074174869,-0.0458205491304397,-0.0299517065286636,-0.0799091979861259
1772807890580543200,5.223543212890625,0.2197176866799592,-0.1896203623190522,-0.044478992266301,-0.0678499191999435,0.0223372224718332,-0.1170493960380554
1772807890600591400,5.24359130859375,0.2663502585172653,-0.2396826163440942,0.0148482442375272,-0.0244817323982715,0.0728109180927276,-0.1093733385205268
1772807890620640300,5.26364013671875,0.2506102530717849,-0.3195218767344951,0.1163266419814433,0.0208614412695169,0.0441162474453449,-0.0906787812709808
1772807890640689400,5.283689453125,0.1649357106566429,-0.3328182884201407,0.127789043172961,0.03374844789505,-0.0589229390025138,-0.0634348839521408
1772807890660738600,5.303738525390625,0.1009738183557987,-0.3841816881716251,0.0642510205736849,-0.0017995341913774,-0.1247018575668335,-0.0571282915771007
1772807890680787200,5.323787109375,-0.0124818804323673,-0.362917074085772,0.0172104433242231,-0.0261748544871807,-0.0961204022169113,-0.0941553115844726
1772807890700835600,5.343835693359375,-0.2078887171983718,-0.2233414301350712,0.1052394581773318,0.0296784359961748,-0.0301817972213029,-0.1119897961616516
1772807890720884200,5.36388427734375,-0.2346066282540559,-0.0759910605296492,0.2703326426843181,0.1285655945539474,0.022628303617239,-0.0787606537342071
1772807890740933400,5.383933349609375,-0.0717313572585582,0.0409127328857779,0.4418356394346803,0.1516865640878677,0.0372919663786888,-0.0498967133462429
1772807890760982300,5.403982177734375,-0.1009264720827341,0.2312511803463101,0.5536930361807346,0.0470992252230644,-0.0488083325326442,-0.051647275686264
1772807890781030400,5.424030517578125,-0.0913438202232122,0.1525964535653591,0.601942833956331,-0.1331399828195572,-0.1135866194963455,-0.0518504418432712
1772807890801079300,5.444079345703125,-0.3854255507528781,0.03501549154073,0.4559466919714585,-0.37298783659935,-0.2075717598199844,0.0076866438612341
1772807890821128400,5.46412841796875,-0.8943646684497595,0.2418899171300232,-0.0046985330797731,-0.5196332335472107,-0.2889902293682098,0.0248486325144767
1772807890841177300,5.48417724609375,-1.3025830657690762,0.3033491789601743,-0.3411328565726056,-0.511193573474884,-0.2622628211975097,-0.0320932865142822
1772807890861226200,5.504226318359375,-1.2663900548815727,0.4522922245845198,-0.5770647786136717,-0.3054724633693695,0.0016156730707734,-0.1028591245412826
1772807890881274400,5.5242744140625,-0.8148942413717508,0.6309275209002196,-0.6236906284492463,0.0313319824635982,0.3279398381710052,-0.1148379445075988
1772807890901323300,5.5443232421875,-0.4877221421450376,0.5865792606078087,-0.4644393201045692,0.2525529265403747,0.2985729575157165,-0.076922982931137
1772807890921376500,5.56437646484375,-0.0758311937928199,0.3888783215552568,-0.3245671774253248,0.2793291807174682,0.0086754085496068,-0.0414961166679859
1772807890941425400,5.58442529296875,0.1670832440793514,0.261121417953074,-0.3203234389083459,0.2000704556703567,-0.2317705303430557,-0.0677060037851333
1772807890961474300,5.604474365234375,0.212756030973792,0.4227401130162179,-0.6780836051549762,0.0537251941859722,-0.2501942813396454,-0.155348926782608
1772807890981522400,5.6245224609375,0.0387602310270071,0.5276201450303196,-1.0044543979361653,-0.0979865491390228,-0.1126669347286224,-0.2682231068611145
1772807891001571300,5.6445712890625,-0.3547667931169271,0.5852573643542825,-0.9527974220655858,-0.1657766103744506,-0.0001585401478223,-0.3769979178905487
1772807891021620500,5.664620361328125,-0.5147457581490278,0.5924458145536482,-0.9334378378834576,-0.1118515506386756,0.0994013622403144,-0.4217384159564972
1772807891041669400,5.68466943359375,-0.1493681391686201,0.5472121497288346,-0.7345283998239786,0.0238035377115011,0.2450976073741912,-0.4248245358467102
1772807891061717500,5.704717529296875,0.2223410209208726,0.4407957019276917,-0.4001416199781,0.1468338966369629,0.2405920624732971,-0.3818911612033844
1772807891081766400,5.724766357421875,0.9049375003904104,0.3849219851449131,-0.1842499395933933,0.2413628250360489,0.2048907130956649,-0.2975496351718902
1772807891101815600,5.744815673828125,1.394515499535203,0.3148796038866043,-0.0148482670704135,0.2530498504638672,0.117228090763092,-0.2401279658079147
1772807891121864200,5.7648642578125,1.7249655975192784,0.2053587603293359,0.03183371513288,0.1547568291425705,0.025290597230196,-0.1903877556324005
1772807891141913300,5.784913330078125,1.760899665209651,0.105648824429512,0.0394077945158118,-0.006453919224441,-0.073319487273693,-0.1279784142971038
1772807891161961200,5.804961181640625,1.5203057792395351,0.0312361191324889,-0.0058287883518729,-0.2134581804275512,-0.1748853921890258,-0.0707034394145011
1772807891182010400,5.82501025390625,0.9794278009682892,-0.0985886767849326,-0.08787144967122,-0.3546101450920105,-0.2178969532251358,-0.0473934113979339
1772807891202059500,5.8450595703125,0.5095405907213688,-0.2048645470716059,-0.1571934807657264,-0.3751082122325897,-0.1612168997526168,-0.0706252306699752
1772807891222108400,5.8651083984375,0.1607850207179784,-0.2681177065812051,-0.1638246806748211,-0.3148730099201202,-0.0572426691651344,-0.0836873650550842
1772807891242157600,5.885157470703125,0.0020838205367326,-0.3569973286479711,-0.065430786676472,-0.1984226703643798,0.0420390032231807,-0.0396959707140922
1772807891262205400,5.905205322265625,0.094801851722598,-0.4656912198618054,0.1087321408649906,-0.0565496422350406,0.1140418201684951,0.0283884350210428
1772807891282254300,5.92525439453125,0.215327927288413,-0.615516309017688,0.3277160333776846,0.0427996292710304,0.0988044738769531,0.1233417838811874
1772807891302303200,5.94530322265625,0.4650806867480277,-0.7439975813716649,0.4006455874448641,0.1056488007307052,0.0866132751107215,0.2205777764320373
1772807891322352400,5.965352294921875,0.5441407794594765,-0.7913422470010817,0.3550217542586848,0.1238800734281539,0.0619419105350971,0.2658497989177704
1772807891342400300,5.985400146484375,0.4697475095152855,-0.9330192471452056,0.2968717996396124,0.1031552776694297,0.0147220259532332,0.2796111106872558
1772807891362449400,6.005449462890625,0.2657628140181303,-0.9082787736423312,0.2106188910809345,0.0929959937930107,-0.0259539633989334,0.2538768947124481
1772807891382498600,6.02549853515625,0.002457914546132,-0.7798781653091311,0.0908160517557524,0.0662630572915077,-0.0270700268447399,0.1972018033266067
1772807891402547500,6.04554736328125,-0.2863812391549348,-0.6272716287411749,-0.0343887516442453,0.051439132541418,0.0104961451143026,0.1438794285058975
1772807891422596400,6.065596435546875,-0.4811281507074832,-0.4974535548254847,0.0478323578148148,0.0515150055289268,0.1106667965650558,0.1165050864219665
1772807891442644500,6.08564453125,-0.5733914238631725,-0.5855507943429052,0.2067221576370298,0.093925729393959,0.2605570554733276,0.1678570359945297
1772807891462693400,6.105693359375,-0.7136234858959913,-0.4375130269952118,0.2903800630001351,0.19254170358181,0.2885069847106933,0.2524327039718628
1772807891482742300,6.1257421875,-0.5145628027975558,-0.6801888338059187,0.4006071551306173,0.2175525724887848,0.2647601664066314,0.339845061302185
1772807891502791400,6.14579150390625,-0.3982832787603139,-0.7872679832994938,0.461086867871508,0.1344173103570938,0.1690037250518798,0.3827426433563232
1772807891522839300,6.16583935546875,-0.5582184046506882,-0.7133321017339825,0.3503151109376922,-0.0607718639075756,-0.0449555739760398,0.3805949091911316
1772807891542888400,6.185888427734375,-1.0880348906815052,-0.5798815165348351,0.0538200082565192,-0.2860960364341736,-0.2282109558582306,0.2906005680561065
1772807891562937600,6.2059375,-1.7541484373837708,-0.0103581662766635,-0.2504491807585582,-0.3702012896537781,-0.2616875469684601,0.0998501628637313
1772807891582986200,6.225986328125,-2.103190423113108,0.4702990059182048,-0.2100302958043292,-0.3166936039924621,-0.1232489794492721,-0.0127914315089583
1772807891603035400,6.246035400390625,-2.0960089871764183,0.7285470603920519,0.0727431372501421,-0.1266568452119827,0.1377289146184921,0.0801516845822334
1772807891623083300,6.266083251953125,-1.4799638319790362,0.9366066041126848,0.4170782513296231,0.2275245487689972,0.3972355425357818,0.3315040171146393
1772807891643132400,6.28613232421875,-0.5016296714663505,0.9999031643725932,0.6093111707672476,0.5040119290351868,0.4156627953052521,0.5664147138595581
1772807891663181300,6.306181396484375,0.4263093498051166,0.7373997905418276,0.6704119745485484,0.5807526707649231,0.2221537381410598,0.6814542412757874
1772807891683230500,6.32623046875,1.0621166055709124,0.6205179166972636,0.7203658728282898,0.4790120124816894,-0.0286407433450222,0.6297083497047424
1772807891703278300,6.3462783203125,1.3217606444478034,0.6836337135627866,0.6696612292464822,0.2312729805707931,-0.2020904868841171,0.4643298685550689
1772807891723327500,6.366327392578125,1.230949908187985,0.7805293226942419,0.6335073082603514,-0.0158479530364274,-0.2055190652608871,0.3485154211521148
1772807891743376400,6.38637646484375,0.7332482238203286,1.0531064929023384,0.6118436483869328,-0.1352682560682296,-0.1401975303888321,0.2958194613456726
1772807891763425300,6.40642529296875,0.2917529953211545,1.2056973935097457,0.7075938503429293,-0.1202282011508941,-0.051550019532442,0.2715997099876404
1772807891783474400,6.426474365234375,0.2243155358642339,1.1506386463716625,0.7180708206936717,-0.0404907427728176,0.0710271522402763,0.2939813733100891
1772807891803522300,6.446522216796875,0.5697159502208232,1.1606927151352169,0.6312151056699454,0.0203119814395904,0.2003092914819717,0.312940239906311
1772807891823571500,6.466571533203125,0.9769488436341284,0.9764975927352904,0.4523021249240264,0.0145270749926567,0.2479468584060669,0.3000437021255493
1772807891843620400,6.486620361328125,1.2908698316216467,0.7131541148185729,0.4808426117643714,-0.0235909931361675,0.2207510769367218,0.2278625220060348
1772807891863669500,6.50666943359375,1.294957393196225,0.479550818388164,0.5447216846199706,-0.0618046708405017,0.1085895299911499,0.152681827545166
1772807891883717400,6.52671728515625,1.2975082467228174,0.4006707584187388,0.4884584935955703,-0.1000616699457168,0.0243927873671054,0.1039444208145141
1772807891903766300,6.546766357421875,1.1859756249517202,0.2781600849069655,0.5568586606048047,-0.1509153991937637,0.0009566559456288,0.0538375675678253
1772807891923811000,6.56681103515625,0.8750894746154546,0.2212919502593577,0.6180953657254576,-0.222056970000267,-0.0236034356057643,0.0324747785925865
1772807891943860000,6.58685986328125,0.5091939692407846,0.2000689833581447,0.545185210478492,-0.2963601350784302,-0.0331218168139457,0.0443223342299461
1772807891963909000,6.6069091796875,0.1209936930775642,0.08331438915506,0.4107234389428049,-0.3122166395187378,-0.0272744260728359,0.0663859099149704
1772807891983957000,6.62695703125,-0.3109779202729463,0.0332264161668717,0.3140008117580786,-0.2285718023777008,-0.0483046323060989,0.0573312640190124
1772807892004006100,6.647006103515625,-0.6205255154818297,0.017872341299057,0.1680079759751446,-0.0584554299712181,-0.0963241830468177,0.0471839606761932
1772807892024055000,6.667054931640625,-0.4718991345912218,-0.0524313212439417,0.1332487607504241,0.1008570417761802,-0.0415059179067611,0.0238355547189712
1772807892044104200,6.687104248046875,-0.4170119446277618,-0.1130054708026349,0.1237533487829379,0.1329385489225387,-0.0407969765365123,-0.0107178352773189
1772807892064152000,6.707152099609375,-0.4031465008825063,-0.1011973979786038,-0.0338494251697324,0.0973279699683189,-0.0784326940774917,-0.022627480328083
1772807892084201200,6.727201171875,-0.55601417260468,-0.022614128998667,-0.1960322021227329,0.1040896773338317,-0.0856741517782211,-0.0633252263069152
1772807892104250000,6.74725,-0.58730889005661,-0.0844964385464787,-0.2350424075891263,0.1898400485515594,-0.0073811579495668,-0.111894242465496
1772807892124299000,6.767299072265625,-0.372900415700674,-0.1449310335040092,-0.2580746706683188,0.2897723913192749,0.099947765469551,-0.1338345110416412
1772807892144347100,6.78734716796875,-0.2753010422140359,-0.2716505568824708,-0.1291425858069211,0.2772244215011596,0.0656639710068702,-0.1534994840621948
1772807892164396000,6.80739599609375,-0.3271189077347516,-0.3646206631332636,-0.0870291536281816,0.1123675853013992,-0.0930945202708244,-0.2013603299856186
1772807892184445200,6.827445068359375,-0.6535948413908481,-0.2426891046836972,-0.2804256917513907,-0.1879280060529709,-0.267953097820282,-0.3629524707794189
1772807892204494000,6.847494140625,-1.1886767006039618,0.140629683048278,-0.4906178635865449,-0.428780734539032,-0.2660107910633087,-0.5650866627693176
1772807892224543000,6.86754296875,-1.53566467641294,0.4213545038767158,-0.5382745908398181,-0.4210435152053833,-0.0253670699894428,-0.6260032057762146
1772807892244591000,6.887591064453125,-1.3499053734362123,0.7847529317386448,-0.5808159843733534,-0.1159506291151046,0.3255147039890289,-0.4999918043613434
1772807892264640000,6.907639892578125,-0.9124193805783988,0.789291013559699,-0.5685559299981221,0.2166658639907837,0.4493762552738189,-0.2866770625114441
1772807892284689200,6.927689208984375,-0.245749953559041,0.4584754432640969,-0.4271638477426022,0.3973248302936554,0.2821722328662872,-0.1712421774864196
1772807892304738000,6.947738037109375,0.3571832066088914,0.4236594198182224,-0.565170927202329,0.4672030508518219,0.0162890534847974,-0.2054516822099685
1772807892324786200,6.9677861328125,0.5980845510929823,0.5110922040775417,-0.8273658196058123,0.4511491954326629,-0.1941302418708801,-0.3229703903198242
1772807892344835000,6.9878349609375,0.7433797417342662,0.6234884569406509,-1.1135210679851473,0.4073405861854553,-0.202330470085144,-0.4305160939693451
1772807892364884200,7.00788427734375,0.8078799786955118,0.706113548657298,-1.3214279053620994,0.288154274225235,-0.0888675451278686,-0.5120782852172852
1772807892384933000,7.02793310546875,0.7866139033049344,0.8970435322701931,-1.5491118947461249,0.1140260770916938,0.0067775519564747,-0.6112786531448364
1772807892404982000,7.04798193359375,0.6428343779236078,0.994227310693264,-1.7311530539825557,-0.1139681786298751,0.0418425127863884,-0.744454562664032
1772807892425030000,7.06802978515625,0.4808142624527216,1.0085998271778225,-1.7715500924311578,-0.3025279641151428,0.0414433032274246,-0.8859275579452515
1772807892445079000,7.0880791015625,0.2194558208733797,1.049957381221652,-1.6507557213179769,-0.3933999240398407,0.0241998117417097,-0.9827404022216796
1772807892465128200,7.108128173828125,0.0775765761554241,0.8562319216713309,-1.2863957549475131,-0.3575738370418548,0.0583265833556652,-0.9509619474411012
1772807892485177000,7.128177001953125,0.0915039792209863,0.6943975380308925,-0.9230201965045184,-0.1287936866283416,0.1002418994903564,-0.791231632232666
1772807892505225200,7.14822509765625,0.4518739991724491,0.5228266271434724,-0.6694210638150573,0.1171061098575592,0.1043796762824058,-0.6070860028266907
1772807892525274000,7.168274169921875,0.8898159191042184,0.1478124341592192,-0.5746233402783051,0.1919289529323578,-0.0279546566307544,-0.46610888838768
1772807892545323000,7.188322998046875,1.108238889798522,-0.0331733708053827,-0.6409871426217257,0.1327245980501175,-0.2283264398574829,-0.4302767515182495
1772807892565372000,7.208371826171875,1.1208978803634644,-0.127420803515613,-0.8750931278772651,0.0128531102091073,-0.3619377315044403,-0.4693863987922668
1772807892585420000,7.228419921875,0.9494646243810652,-0.1770569410830736,-1.0856065675560385,-0.0937929227948188,-0.3588804602622986,-0.5350212454795837
1772807892605469000,7.248468994140625,0.5464017101287841,-0.1290725162453949,-1.1368810469150543,-0.1596868187189102,-0.2962161898612976,-0.6377994418144226
1772807892625518000,7.26851806640625,0.1551736105769872,-0.0673819298774004,-1.216168226380646,-0.1789033710956573,-0.1610339879989624,-0.711010217666626
1772807892645567200,7.288567138671875,-0.0547223547905683,-0.0206648946270346,-1.094023609702289,-0.1039292216300964,0.0375920496881008,-0.7235040068626404
1772807892665616100,7.3086162109375,-0.1168804125398397,-0.0745480221144855,-0.7141049858026206,0.1044182032346725,0.1598283797502517,-0.6497336030006409
1772807892685664300,7.328664306640625,-0.065620180901885,-0.2220956678576767,-0.3950815966421738,0.2642754912376404,0.1144987195730209,-0.5246566534042358
1772807892705713200,7.348713134765625,-0.0036187750190496,-0.3456032434523105,-0.3659126026399433,0.1739949584007263,-0.0259013604372739,-0.4571907520294189
1772807892725762000,7.368761962890625,-0.4523971462637186,-0.2213601931899786,-0.4377710568768903,-0.0588124878704547,-0.2535205483436584,-0.4713627696037292
1772807892745811000,7.38881103515625,-0.968922773566842,-0.1122678041778504,-0.4920723732437938,-0.1710155457258224,-0.2771569490432739,-0.491222083568573
1772807892765859000,7.408859130859375,-1.2092840198248624,0.180997933793813,-0.5171556323023513,-0.1238744556903839,-0.0982021540403366,-0.5136383771896362
1772807892785908000,7.428907958984375,-1.4827239443421365,0.2563378369383514,-0.4350263978112488,-0.1399838626384735,-0.0520833581686019,-0.5575321316719055
1772807892805957000,7.44895703125,-1.602713428813219,0.3975187241286039,-0.3558468434385955,-0.1830140948295593,-0.1062381789088249,-0.6239128708839417
1772807892826006300,7.46900634765625,-1.539139659047127,0.7299860071539879,-0.3970189579129218,-0.1284145712852478,-0.0917479619383812,-0.668409526348114
1772807892846054100,7.48905419921875,-1.3034995960921048,0.8295867835909128,-0.3814332297137007,-0.0070549743250012,0.0059182154946029,-0.6499203443527222
1772807892866103300,7.509103271484375,-1.0260317312330007,0.9655997666239738,-0.4829050972521305,0.118010900914669,0.0150776924565434,-0.6247824430465698
1772807892886152000,7.52915185546875,-0.5873018757939338,1.010836354058236,-0.4860082874318585,0.2374019175767898,-0.0061267293058335,-0.6461793780326843
1772807892906201000,7.549201171875,-0.2084399213403463,1.0923417940951885,-0.5357000641766936,0.3075604736804962,-0.0398659072816371,-0.6703747510910034
1772807892926249200,7.569249267578125,0.2348889523267746,1.0940497670568523,-0.7081527263347059,0.3258063197135925,-0.0169083960354328,-0.6787855625152588
1772807892946298000,7.589298095703125,0.3595651333093643,1.0973365336425602,-0.7462693256959319,0.3121168315410614,-0.0699639245867729,-0.7341722846031189
1772807892966347300,7.60934716796875,0.3922989436537027,1.0850389237359166,-0.6636406537827104,0.3400943577289581,-0.2064975500106811,-0.8006510734558105
1772807892986396400,7.629396484375,0.3866729204654693,1.1407079117268324,-0.6628097559165209,0.3562065362930298,-0.3479402363300323,-0.86054527759552
1772807893006445000,7.649445068359375,0.4146376167118549,1.1709840997859835,-0.6474657640513032,0.2390139698982238,-0.4837241470813751,-0.9547845721244812
1772807893026493200,7.6694931640625,0.0568260490715503,1.1893886482656002,-0.7141377920936792,0.0172249767929315,-0.6135844588279724,-1.1138190031051636
1772807893046542000,7.6895419921875,-0.2831967638999224,1.2909078255444764,-0.7538806774824858,-0.0888950452208519,-0.5937573909759521,-1.2809101343154907
1772807893066591200,7.70959130859375,-0.5336684852838516,1.4989251375585793,-0.8021056330777704,-0.0468155518174171,-0.4496210217475891,-1.4074596166610718
1772807893086640000,7.72964013671875,-0.4590694636344909,1.503563903275132,-0.6503229070480913,0.0980056971311569,-0.2279404550790786,-1.4629971981048584
1772807893106688300,7.749688232421875,-0.3548784367978572,1.3609165967941284,-0.2864007841056212,0.2012340575456619,-0.2119885236024856,-1.471011519432068
1772807893126737200,7.769737060546875,-0.0538987634479999,1.155335864277184,-0.1262258581100031,0.2078707069158554,-0.3390679061412811,-1.479875564575195
1772807893146786300,7.789786376953125,0.1603261710345745,1.0879986503243446,-0.1085533502319827,0.1318061500787735,-0.4982059299945831,-1.5587761402130127
1772807893166835200,7.809835205078125,0.1830143881827592,1.1059510711222886,-0.0945853594277054,0.0548829212784767,-0.5738399624824524,-1.6728378534317017
1772807893186883300,7.82988330078125,0.2076514013111591,1.2783505417883396,-0.2332994546456262,0.007657638285309,-0.4876554012298584,-1.7804440259933472
1772807893206932200,7.84993212890625,0.1202209551393985,1.3622586590528487,-0.1206222294166684,-0.0413267984986305,-0.3857931494712829,-1.8466342687606807
1772807893226981000,7.869981201171875,-0.1585556542307138,1.351489427757263,0.0716215036759153,-0.0570135191082954,-0.4326279759407043,-1.8551684617996216
1772807893247030300,7.8900302734375,-0.360634223845601,1.4275973926648498,0.0767893713004887,0.0156913604587316,-0.5328022241592407,-1.855183720588684
1772807893267078100,7.910078125,-0.3927203839361667,1.4726096698239446,0.1019178942728787,0.1174956560134887,-0.6160100698471069,-1.8705675601959229
1772807893287127300,7.930127197265625,-0.2688631181210279,1.4845423919409513,0.0818326992299407,0.1569121778011322,-0.6396766901016235,-1.8862724304199217
1772807893307176200,7.95017626953125,-0.2176478946685791,1.5156296041220425,0.0918200229002162,0.1661924719810485,-0.6728172302246094,-1.884811758995056
1772807893327225000,7.97022509765625,-0.1357721600145101,1.4321011338248848,0.1663068163467571,0.1598394811153412,-0.7288886308670044,-1.8533101081848145
1772807893347274200,7.990274169921875,-0.2513783148348331,1.3785916619554162,0.0124545905666425,0.0908852517604827,-0.8457576036453247,-1.8496403694152832
1772807893367322000,8.010322021484376,-0.1978244193017482,1.2723024937957526,-0.1829617081474512,-0.0003344039432704,-0.8594073057174683,-1.9423928260803225
1772807893387371300,8.030371337890625,-0.4757955575078725,1.1942308275997635,-0.0858607674359343,-0.1038334369659423,-0.8936134576797485,-2.0910654067993164
1772807893407420200,8.050420166015625,-0.7368950558900833,1.245915714390576,-0.2284980274469591,-0.2056262642145156,-0.924109935760498,-2.1760077476501465
1772807893427469300,8.07046923828125,-0.9039800535351038,1.428960936103016,-0.4814151509553194,-0.2858335673809051,-0.85201096534729,-2.238196611404419
1772807893447517200,8.09051708984375,-0.7277525490134954,1.423356540224701,-0.667165832234174,-0.2798487246036529,-0.576638400554657,-2.2487330436706543
1772807893467566300,8.11056640625,-0.4242307899653911,1.488471401952952,-0.7572222429953515,-0.1765274256467819,-0.3206470310688019,-2.2272908687591557
1772807893487615200,8.130615234375,-0.5953127482920885,1.2135853702805937,-0.6810919201254845,-0.1110634878277778,-0.444414347410202,-2.168888092041016
1772807893507664100,8.1506640625,-0.6212403857529163,1.0898648825876414,-0.7085271856702864,-0.0645546168088913,-0.6769986152648926,-2.1063389778137207
1772807893527712300,8.170712158203125,-0.4407546392649412,1.1677020093753934,-0.8926623945765196,0.0224970206618309,-0.7108404040336609,-2.0465686321258545
1772807893547761200,8.19076123046875,0.023998715224862,1.2409585303746162,-1.0921470021754502,0.1039850488305091,-0.5146991014480591,-1.9828161001205444
1772807893567810300,8.210810302734375,0.2331915007591247,1.243468905760348,-1.2251702288080006,0.0830055177211761,-0.4240381419658661,-1.9278106689453125
1772807893587859200,8.230859130859375,0.3690852413266897,1.043262267497182,-1.1592162128418684,0.026617269963026,-0.4726988077163696,-1.868355393409729
1772807893607907300,8.2509072265625,0.3163438312202692,0.828579360114038,-1.1738286755621432,-0.0562621876597404,-0.6134408712387085,-1.8489247560501096
1772807893627956200,8.270956298828125,0.0924812998205423,0.6915289968572557,-1.1716939285557717,-0.15363110601902,-0.777513325214386,-1.9035907983779907
1772807893648005000,8.291005126953126,-0.2282195575654506,0.7286294779784978,-1.2052384707611052,-0.2522131502628326,-0.8479916453361511,-2.0108773708343506
1772807893668054300,8.31105419921875,-0.2476040569931268,0.7151676465980709,-1.1049508080385624,-0.2653531432151794,-0.6421431303024292,-2.082033634185791
1772807893688102100,8.33110205078125,-0.2621072141200304,0.8204200190559029,-1.022377227313444,-0.1552653759717941,-0.3067221641540527,-2.0281262397766118
1772807893708151300,8.3511513671875,-0.1468278070360422,0.5872632973492146,-0.7666027964115142,-0.0241563785821199,-0.1501217931509018,-1.860361933708191
1772807893728200200,8.3712001953125,-0.040823008775711,0.21715192784518,-0.6256347482543438,0.0498841702938079,-0.2867264151573181,-1.708021879196167
1772807893748249300,8.391249267578125,0.0912871215999126,0.0482455599918961,-0.6550595071159303,0.1252593249082565,-0.5087833404541016,-1.6460658311843872
1772807893768297200,8.411297119140626,0.4158160128414631,0.0078662033304572,-0.885660699120909,0.1896285116672516,-0.5826482176780701,-1.6555330753326416
1772807893788346400,8.431346435546875,0.6104354986220598,-0.0937022199176251,-1.0102093812663109,0.148166686296463,-0.5633403658866882,-1.706360101699829
1772807893808395300,8.451395263671875,0.6666051296114921,-0.1721592321693897,-0.9756713710442184,0.0678324922919273,-0.4734899401664734,-1.73491632938385
1772807893828444200,8.471444091796876,0.820272427278757,-0.1972644473314285,-1.0466732449844478,-0.0044304421171545,-0.341863602399826,-1.7297512292861938
1772807893848492000,8.491491943359375,0.7445785961300134,-0.2127336730115115,-0.917832272472605,-0.0654729604721069,-0.300965279340744,-1.718993067741394
1772807893868541200,8.511541259765625,0.7783084317743778,-0.3149361563794314,-0.5766455668209121,-0.1132233813405036,-0.2909711897373199,-1.7218855619430542
1772807893888590300,8.53159033203125,0.5021364519447088,-0.3637485564738512,-0.3840265706751495,-0.1156788095831871,-0.3758559823036194,-1.688876748085022
1772807893908639200,8.55163916015625,0.6585264525741338,-0.3057224839627742,-0.351306240866892,-0.0823791101574897,-0.2949540317058563,-1.6522101163864136
1772807893928687000,8.57168701171875,0.5108563494950532,-0.4287994130551815,-0.1747732871253043,-0.0559442341327667,-0.1737576574087143,-1.5799415111541748
1772807893948736000,8.591736083984374,0.4729956976562738,-0.5556276575051248,-0.0433999283253215,-0.0571673773229122,-0.0389995612204074,-1.429181456565857
1772807893968785200,8.61178515625,0.2727706469535828,-0.6911169089250266,0.0739537277494557,-0.0230600796639919,-0.0112157827243208,-1.232005000114441
1772807893988833800,8.631833740234375,0.0544078820139169,-0.8014575444325804,0.2228311425253748,0.0543553978204727,-0.0929401740431785,-1.049884796142578
1772807894008883000,8.651883056640624,-0.2890127567023038,-0.8328660975225269,0.2141095644745975,0.1409789472818374,-0.3345707952976227,-0.9073920845985411
1772807894028930800,8.671930908203125,-0.3138034990876913,-0.821855897077918,-0.1820845599867403,0.1533593833446502,-0.434738278388977,-0.8600683212280273
1772807894048980000,8.69197998046875,-0.5100613997250795,-0.7225479661077261,-0.3089103567512706,0.121165856719017,-0.410051017999649,-0.8803243041038513
1772807894069029000,8.712029052734374,-0.6782464675664901,-0.5043687410414218,-0.413603853217326,0.1048776730895042,-0.3591515123844147,-0.8955008387565613
1772807894089077000,8.732076904296875,-0.6605155805647372,-0.3479430845767259,-0.5053698443753645,0.1237178444862365,-0.28805872797966,-0.9084914326667786
1772807894109126100,8.752126220703126,-0.7222317397654057,-0.1661572152756154,-0.3810398099493235,0.2094322144985199,-0.2392278164625167,-0.9345006346702576
1772807894129175000,8.772175048828124,-0.7458832489877939,-0.0343507440216839,-0.1717076524769887,0.3217910528182983,-0.3221302330493927,-0.9459205865859984
1772807894149224000,8.792223876953125,-0.6480833844929933,0.0883579362802207,0.1450969098565168,0.3263156116008758,-0.4855252504348755,-0.967138409614563
1772807894169272800,8.81227294921875,-0.3306155176788568,0.2875862310305238,0.3007763327974826,0.2188424468040466,-0.4935306906700134,-0.9666240215301514
1772807894189321000,8.832321044921875,-0.1238917526066303,0.3280374838843941,0.5618156254250556,0.0526641719043254,-0.4161487817764282,-0.8882980346679688
1772807894209369900,8.852369873046875,-0.2498877840161323,0.3396142321705818,0.4585511388488114,-0.0320077650249004,-0.2651963531970978,-0.8048352003097534
1772807894229419000,8.8724189453125,-0.2740279535382985,0.5297291000083089,0.232729271808546,0.0540403239428997,-0.0640330389142036,-0.8022567629814148
1772807894249467000,8.892466796875,-0.1788514232844114,0.5479819650575518,0.4246822600599378,0.224118560552597,0.0161799043416976,-0.8477602005004883
1772807894269516000,8.91251611328125,-0.1359673903256654,0.4120870554462075,0.6897970584981143,0.2679470479488373,-0.1450984477996826,-0.8352601528167725
1772807894289565200,8.932565185546874,0.1228209085047244,0.3967544617578387,0.8275055203374475,0.1986419856548309,-0.3273725509643554,-0.8038524985313416
1772807894309613800,8.95261376953125,0.0838707078635692,0.4375251558244228,1.0730657965432853,0.1321765035390854,-0.4549126029014587,-0.7740552425384521
1772807894329662200,8.972662109375,0.0551063856720924,0.6277995981380343,1.24918114592731,0.0909611508250236,-0.5734528303146362,-0.7701082825660706
1772807894349710800,8.9927109375,-0.245113993743062,0.5935667814075947,0.7623888319782912,0.0638606026768684,-0.6606034636497498,-0.7413333058357239
1772807894369760000,9.012760009765625,-0.0995183588504791,0.7799167437538504,0.5614054371889681,0.0402903258800506,-0.4562711715698242,-0.8358129858970642
1772807894389809000,9.032808837890624,-0.0072673606544733,0.6067562255874276,0.7062042956806719,-0.0214686226099729,-0.1275245696306228,-0.9584497213363647
1772807894409858000,9.052858154296874,-0.0633493133604526,0.5264183680251241,0.9254012464221566,-0.0040839901193976,0.0773132964968681,-0.936753749847412
1772807894429906000,9.072906005859377,-0.1415367148905992,0.7021987133011222,0.9909198666457086,0.1286231130361557,0.1001153513789177,-0.8413671255111694
1772807894449955000,9.092955078125,0.2467062313705682,0.5709028219178318,0.9493274809326976,0.2414406239986419,0.0988688245415687,-0.7362415790557861
1772807894470004000,9.11300390625,0.3396984033226967,0.3526964165836572,0.9747513335898518,0.2359095513820648,-0.0767876654863357,-0.6711653470993042
1772807894490052000,9.133052001953123,0.4455500568479299,0.3504506834834814,0.8566029469408094,0.2056038826704025,-0.2288438975811004,-0.6881680488586426
1772807894510101000,9.15310107421875,0.5902355911582708,0.3384241456031799,0.5725709743257612,0.1467137932777404,-0.1778804957866668,-0.7436566948890686
1772807894530150000,9.17314990234375,0.7164040565252303,0.363866337634623,0.4339093764800578,0.0407069884240627,-0.0233830492943525,-0.8035215735435486
1772807894550199000,9.193198974609375,0.4949783968836069,0.2958917025610804,0.5177259795362129,-0.0331913083791732,0.0057473094202578,-0.8120864629745483
1772807894570247000,9.213246826171876,0.3447708842813968,0.2684364171415567,0.5558846279408782,-0.0175799466669559,-0.0385530553758144,-0.7620037794113159
1772807894590296000,9.233296142578125,0.2192261037707328,0.2324362984776496,0.5424862902507186,0.0253753643482923,-0.1056136414408683,-0.7103011608123779
1772807894610345000,9.253344970703123,0.299396788072586,0.1633326593741774,0.520400495975092,0.0012149242684245,-0.1716681718826294,-0.6798194050788879
1772807894630393900,9.273393798828126,0.2950853546142578,0.0360594476357102,0.341668095960468,-0.0741956979036331,-0.2005665451288223,-0.6715113520622253
1772807894650442000,9.29344189453125,0.3431336384683847,0.0453729271650314,0.309928740013577,-0.0947839394211769,-0.1240241527557373,-0.7134358286857605
1772807894670491000,9.313490966796875,0.3574930032104254,-0.0388175141721963,0.3825994239488616,-0.0544097945094108,-0.0462805815041065,-0.7193063497543335
1772807894690540000,9.3335400390625,0.4192530015528202,-0.0910211641401052,0.4075516405062749,0.0023573001381009,-0.048707015812397,-0.6687625646591187
1772807894710589000,9.3535888671875,0.7077537170797586,-0.2966454435378313,0.4641388393206521,0.0295623149722814,-0.0495412200689315,-0.5991851091384888
1772807894730637000,9.373636962890624,0.918446385782957,-0.458254347859323,0.4592090547682717,0.0007440072949975,-0.1102105528116226,-0.5694631934165955
1772807894750686000,9.39368603515625,0.8927759379535913,-0.5271732780456543,0.4446272429145872,-0.0671261399984359,-0.2356226742267608,-0.5863353610038757
1772807894770735000,9.413735107421877,0.8210217843413352,-0.6556038431257009,0.5160832903631031,-0.1107770279049873,-0.3204940557479858,-0.5752045512199402
1772807894790784000,9.433783935546876,0.8479390173614024,-0.7154694060236215,0.4506722221672534,-0.1382778882980346,-0.311175674200058,-0.535426676273346
1772807894810832100,9.45383203125,0.7745283287137746,-0.7774915624335408,0.2283400056073442,-0.2091917395591735,-0.2500430643558502,-0.5319497585296631
1772807894830880800,9.473880859375,0.3773936354666948,-0.8369391921803355,0.3582237651703879,-0.219207152724266,-0.236876979470253,-0.585181474685669
1772807894850930000,9.493929931640626,0.4080260896176099,-0.9125628807023168,0.3831947594935074,-0.1452809423208236,-0.1489244401454925,-0.5733262300491333
1772807894870979000,9.51397900390625,0.3773462891936301,-0.9446186456546188,0.3990237218640744,-0.099919706583023,-0.1693899929523468,-0.4911256730556488
1772807894891027000,9.53402685546875,0.5172913509786129,-1.0866425595402718,0.4987395395154133,-0.116440549492836,-0.2322004586458206,-0.4540904462337494
1772807894911076000,9.554076171875,0.6074059216678143,-1.1309569175630807,0.4046273870900273,-0.1185798496007919,-0.2143858969211578,-0.4523653090000152
1772807894931125200,9.574125244140625,0.559945666834712,-1.097671318554878,0.4041176109369844,-0.0844997614622116,-0.2086355090141296,-0.4564392566680908
1772807894951174100,9.594174072265623,0.4406254599273204,-1.1758332933828235,0.383299644640088,-0.0671884641051292,-0.2562136948108673,-0.4639821648597717
1772807894971222300,9.61422216796875,0.4311807552337646,-1.1359256458863616,0.3013428075738251,-0.0651384815573692,-0.3093634247779846,-0.4449683427810669
1772807894991271200,9.634271240234376,0.4190811521172523,-1.11145931314975,0.2289037404373288,-0.0723885744810104,-0.2868551611900329,-0.41007000207901
1772807895011320300,9.6543203125,0.1969049663692712,-0.9547145077332854,0.1364723624394275,-0.1159939169883728,-0.2939385175704956,-0.4056569039821625
1772807895031369200,9.674369140625,-0.01014554643929,-0.9071858638390898,0.169901790365111,-0.2074005305767059,-0.2883426547050476,-0.4058391153812408
1772807895051417300,9.694417236328125,-0.4478296922177076,-0.6022820027828216,-0.2746300110846758,-0.4172477424144745,-0.2302154302597046,-0.4314745962619781
1772807895071466200,9.71446630859375,-0.8754378496617078,-0.2352329434588551,-0.6957027754105627,-0.6848302483558655,0.079385407269001,-0.4696103036403656
1772807895091515400,9.734515380859374,0.6880161664307117,0.366670435269922,-0.5049255346739664,-0.4427207708358764,0.7948222756385803,-0.604728102684021
1772807895111564000,9.75456396484375,-1.99792504504323,-0.1766866464659571,0.3469478264616802,-0.092416763305664,0.2445966899394989,-0.7140012979507446
1772807895131612400,9.7746123046875,-1.2252899827301502,-0.2526917355209588,0.089631509013148,0.12117400765419,-0.224826380610466,-0.6058204174041748
1772807895151661000,9.7946611328125,-0.3026934915304183,0.3564100302793085,-0.0468549093510955,0.1689511686563491,-0.2839280068874359,-0.5261879563331604
1772807895171710200,9.814710205078123,-0.2912292637079954,0.3429867773436009,0.2136384763641282,0.0600369647145271,-0.2824945449829101,-0.4134682714939117
1772807895191759400,9.83475927734375,-0.110287005624175,0.5238349274031817,0.3404579164531082,0.101619929075241,-0.3155294060707092,-0.3485817313194275
