time,seconds_elapsed,accel_z,accel_y,accel_x,gyro_x,gyro_y,gyro_z
1.7726343654113838e+18,0.2843837890625,0.0234098434448242,0.0353899002075195,-0.1280510425567627,0.0015978952869772,0.002130527049303,-0.0254331659525632
1.7726343654313748e+18,0.304374755859375,0.0040205717086791,0.0645294189453125,-0.0996990203857421,0.0002663158811628,0.0002663158811628,-0.0230363234877586
1.7726343654513661e+18,0.3243662109375,-0.0484430789947509,0.1079397201538086,-0.0800145268440246,0.0013315794058144,-0.0026631588116288,-0.0243679024279117
1.7726343654713574e+18,0.344357421875,-0.039303183555603,0.1322183609008789,-0.0979529619216919,-0.0010652635246515,-0.0149136893451213,-0.0264984294772148
1.7726343654913485e+18,0.364348388671875,-0.0158749818801879,0.0941104888916015,-0.1257067322731018,0.002130527049303,-0.035420011729002,-0.0259657986462116
1.7726343655113398e+18,0.38433984375,-0.0315256118774414,0.0271759033203125,-0.1780514121055603,-0.0018642111681401,-0.0540621243417263,-0.0171773750334978
1.772634365531331e+18,0.4043310546875,-0.0645034313201904,0.0083703994750976,-0.1585779190063476,-0.0042610540986061,-0.07590002566576,-0.0129163200035691
1.772634365551322e+18,0.424322021484375,-0.0484956502914428,0.0712413787841796,-0.0760238766670227,-0.0063915811479091,-0.0849547684192657,-0.0057257916778326
1.7726343655713134e+18,0.4443134765625,-0.0316325426101684,0.1103191375732421,0.0741937756538391,-0.0079894764348864,-0.0940095037221908,-0.0017310532275587
1.7726343655913052e+18,0.46430517578125,-0.0165525674819946,0.1400556564331054,0.236853539943695,-0.0047936858609318,-0.1081242486834526,-0.0011984214652329
1.772634365611299e+18,0.484299072265625,-0.0425869226455688,0.1123514175415039,0.2910882830619812,-0.0042610540986061,-0.1243695169687271,-0.0022636849898844
1.772634365631293e+18,0.50429296875,-0.0543287992477417,0.0701408386230468,0.3198977410793304,-0.0130494777113199,-0.1355547904968261,0.0019973691087216
1.7726343656512868e+18,0.524286865234375,-0.1217113733291626,0.1333551406860351,0.2755701541900635,-0.0213052704930305,-0.1398158371448516,0.0065247388556599
1.7726343656712806e+18,0.54428076171875,-0.1633414030075073,0.1151075363159179,0.2720690369606018,-0.0303600095212459,-0.1414137333631515,0.0150468470528721
1.7726343656912748e+18,0.564274658203125,-0.0729206800460815,0.0393199920654296,0.3885868191719055,-0.0420779101550579,-0.1350221484899521,0.0254331659525632
1.7726343657112686e+18,0.5842685546875,0.0538101196289062,-0.0409307479858398,0.477206140756607,-0.0458063334226608,-0.1097221449017524,0.0344879068434238
1.7726343657312625e+18,0.604262451171875,0.0075421333312988,-0.0491857528686523,0.3936259746551513,-0.0460726469755172,-0.0814926624298095,0.0424773842096328
1.7726343657512563e+18,0.62425634765625,-0.0353492498397827,-0.0582551956176757,0.2198599576950073,-0.0564589649438858,-0.0609863363206386,0.0600542314350605
1.7726343657712502e+18,0.644250244140625,-0.0128118991851806,-0.1149625778198242,0.1664247512817382,-0.0561926513910293,-0.0466052778065204,0.0653805509209632
1.7726343657912443e+18,0.664244384765625,-0.0164179801940917,-0.1526908874511718,0.1532642841339111,-0.0519315972924232,-0.0399473831057548,0.0470047518610954
1.7726343658112381e+18,0.684238037109375,-0.0273541212081909,-0.0330524444580078,0.1514731049537658,-0.0383494868874549,-0.031691588461399,0.0017310532275587
1.772634365831232e+18,0.70423193359375,-0.0436956882476806,0.1057157516479492,0.1193467378616333,-0.0315584316849708,-0.0175768472254276,-0.0179763212800025
1.7726343658512259e+18,0.724225830078125,-0.0733784437179565,0.1205930709838867,0.1272979974746704,-0.02569948323071,-0.0250336937606334,-0.0099868457764387
1.7726343658712197e+18,0.7442197265625,-0.1144646406173706,0.0975275039672851,0.158709168434143,-0.0185089539736509,-0.0343547500669956,-0.0083889504894614
1.7726343658912138e+18,0.7642138671875,-0.1154214143753051,0.0480289459228515,0.154545247554779,-0.0058589493855834,-0.0458063334226608,-0.0211721118539571
1.7726343659112077e+18,0.784207763671875,-0.0952558517456054,-0.0555448532104492,0.1579914093017578,0.0034621064551174,-0.0604537054896354,-0.0374173820018768
1.7726343659312015e+18,0.804201416015625,-0.1358544826507568,-0.1007146835327148,0.2610949277877807,0.0053263176232576,-0.0625842288136482,-0.0360858030617237
1.7726343659511954e+18,0.8241953125,-0.2039148807525634,-0.017552375793457,0.4199733138084411,-0.0018642111681401,-0.0506000183522701,-0.0332894846796989
1.7726343659711892e+18,0.844189208984375,-0.2637467384338379,0.1188182830810546,0.4828730821609497,-0.0121173728257417,-0.0218379013240337,-0.0394147485494613
1.7726343659911834e+18,0.864183349609375,-0.2165790796279907,0.0927228927612304,0.3850253224372864,-0.0222373753786087,0.0129163200035691,-0.0537958070635795
1.7726343660111772e+18,0.88417724609375,-0.0603358745574951,-0.0577096939086914,0.1965121030807495,-0.0267647467553615,0.0491352789103984,-0.0664458125829696
1.772634366031171e+18,0.904171142578125,0.0026068687438964,-0.1213703155517578,0.0307116508483886,-0.0339552760124206,0.0853542387485504,-0.0765658169984817
1.772634366051165e+18,0.9241650390625,0.0390069484710693,0.0433502197265625,-0.0372381806373596,-0.0307594835758209,0.1255679428577423,-0.0888163447380065
1.7726343660711588e+18,0.94415869140625,0.081854224205017,0.255319595336914,-0.1383842229843139,-0.0251668505370616,0.1817605942487716,-0.1026647686958313
1.7726343660911526e+18,0.964152587890625,0.0278880596160888,0.1757516860961914,-0.3558386564254761,-0.0294279046356678,0.2323606014251709,-0.1290300488471985
1.772634366131139e+18,1.00413916015625,0.2580194473266601,-0.2874832153320312,-0.6020902991294861,-0.0238352715969085,0.2451437711715698,-0.1580584794282913
1.7726343661511324e+18,1.02413232421875,0.2189167737960815,-0.0099458694458007,-0.4622818231582641,-0.011584741063416,0.231827974319458,-0.182559534907341
1.7726343661711258e+18,1.044125732421875,0.1608990430831909,0.3775739669799804,-0.3486579358577728,0.003328948514536,0.2249037623405456,-0.1940111219882965
1.7726343661911188e+18,1.064118896484375,0.002174973487854,0.5584774017333984,-0.2619694769382477,0.0174436904489994,0.2155826985836029,-0.1830921620130539
1.7726343662111122e+18,1.0841123046875,-0.0969623327255249,0.3283672332763672,-0.2271240055561065,0.0182426385581493,0.1974732279777526,-0.1567268967628479
1.7726343662311055e+18,1.10410546875,-0.0499982833862304,0.0218982696533203,-0.3191160559654236,0.0318247489631176,0.0643152818083763,-0.1154479309916496
1.7726343662510986e+18,1.1240986328125,-0.0225967168807983,-0.1313409805297851,-0.3704852163791656,0.0288952738046646,-0.0038615802768617,-0.1183774098753929
1.772634366271092e+18,1.144092041015625,-0.1019239425659179,-0.0694732666015625,-0.3826700150966644,0.0280963256955146,-0.0496679134666919,-0.0872184485197067
1.7726343662910853e+18,1.164085205078125,-0.0787986516952514,0.0255050659179687,-0.3012175261974334,0.02569948323071,-0.0829573944211006,-0.0179763212800025
1.7726343663310717e+18,1.20407177734375,-0.1736923456192016,0.0990428924560546,-0.1655839085578918,0.0091878976672887,-0.1133174076676368,0.0395479090511798
1.772634366351065e+18,1.224065185546875,-0.1634671688079834,0.1192798614501953,-0.0984516441822052,-0.0057257916778326,-0.1450089961290359,0.0672447606921196
1.7726343663710582e+18,1.24405810546875,-0.1189955472946167,0.0243902206420898,0.0226699411869049,0.0003994738217443,-0.1958753317594528,0.053928967565298
1.7726343663910515e+18,1.264051513671875,-0.1111050844192504,0.0638027191162109,0.1130526959896087,0.0081226341426372,-0.2419479787349701,0.0129163200035691
1.7726343664110449e+18,1.284044921875,-0.1780741214752197,0.1656293869018554,0.2834943532943725,0.0161121115088462,-0.2840258777141571,-0.0411458052694797
1.772634366431038e+18,1.304037841796875,-0.1296895742416381,0.1907243728637695,0.2856663763523102,0.0001331579405814,-0.3146522045135498,-0.0778973922133445
1.7726343664510313e+18,1.32403125,-0.0604263544082641,0.0043344497680664,0.0966475009918212,-0.0158457942306995,-0.3394196033477783,-0.0850879251956939
1.7726343664710246e+18,1.344024658203125,-0.0461831092834472,-0.0326271057128906,0.0565899014472961,-0.0179763212800025,-0.3519364297389984,-0.0533963330090045
1.7726343664910177e+18,1.364017822265625,0.0086477994918823,0.1113862991333007,0.1118310093879699,-0.0238352715969085,-0.3609911799430847,-0.027830010280013
1.772634366511011e+18,1.384010986328125,-0.028854489326477,0.2599306106567383,0.2398319542407989,-0.0294279046356678,-0.3407511711120605,-0.0142478998750448
1.7726343665310044e+18,1.40400439453125,-0.0532559156417846,0.1218652725219726,0.2395112216472625,-0.0392815917730331,-0.2920153737068176,-0.0035952643956989
1.7726343665509975e+18,1.42399755859375,-0.0974522829055786,-0.0497961044311523,0.3258306682109833,-0.0299605373293161,-0.2483395636081695,0.0094542140141129
1.7726343665709908e+18,1.443990966796875,-0.075330376625061,-0.0830965042114257,0.5190289616584778,-0.0211721118539571,-0.2203763872385025,0.0291615892201662
1.7726343665909842e+18,1.463984130859375,-0.0598605871200561,-0.0309123992919921,0.5358754992485046,-0.0382163301110267,-0.2185121774673462,0.0595216006040573
1.7726343666109783e+18,1.483978271484375,-0.0744445323944091,0.0073423385620117,0.5560088157653809,-0.0440752767026424,-0.2342248111963272,0.0786963403224945
1.7726343666309724e+18,1.503972412109375,-0.0834168195724487,-0.0398197174072265,0.6026281118392944,-0.0336889587342739,-0.2219742834568023,0.0797616094350814
1.7726343666509665e+18,1.523966552734375,-0.0751909017562866,-0.0973567962646484,0.6029518842697144,-0.0264984294772148,-0.2027995437383651,0.0848216116428375
1.7726343666709606e+18,1.543960693359375,-0.1338448524475097,-0.0876331329345703,0.4698321521282196,-0.0259657986462116,-0.1716405898332595,0.0789626613259315
1.7726343666909545e+18,1.56395458984375,-0.1344354152679443,-0.0538034439086914,0.2252877652645111,-0.0179763212800025,-0.1519332081079483,0.0533963330090045
1.7726343667109486e+18,1.583948486328125,-0.0824941396713256,-0.0014553070068359,0.0714658498764038,-0.0081226341426372,-0.1268995106220245,0.032091062515974
1.7726343667309427e+18,1.603942626953125,-0.03867769241333,0.0852794647216796,0.0564318299293518,-0.0035952643956989,-0.0965395048260688,0.019840532913804
1.7726343667509368e+18,1.623936767578125,-0.0582504272460937,0.1478204727172851,0.0661012828350067,-0.0041278963908553,-0.0720384493470192,0.0027963167522102
1.772634366770931e+18,1.643930908203125,-0.1061077117919921,0.1000995635986328,0.0793420374393463,0.0078563187271356,-0.0355531685054302,-0.0206394810229539
1.7726343668109192e+18,1.683919189453125,-0.1519899368286132,-0.0097026824951171,0.2231772243976593,0.0041278963908553,-0.0051931599155068,-0.0467384383082389
1.7726343668309133e+18,1.703913330078125,-0.1812503337860107,0.0477380752563476,0.2316870689392089,0.0043942118063569,0.0019973691087216,-0.0531300194561481
1.7726343668509071e+18,1.7239072265625,-0.1685762405395507,0.0330562591552734,0.2422603964805603,0.0025300008710473,-0.0126500045880675,-0.0504668578505516
1.7726343668709012e+18,1.7439013671875,-0.1234152317047119,0.0422515869140625,0.2577193975448608,-0.0049268435686826,-0.0403468571603298,-0.0491352789103984
1.7726343668908954e+18,1.763895263671875,-0.1065649986267089,0.0179328918457031,0.2087694704532623,0.0006657897029072,-0.0557931773364543,-0.0347542241215705
1.7726343669108895e+18,1.783889404296875,-0.1371726989746093,-0.0158443450927734,0.1492884755134582,-0.0027963167522102,-0.0613858103752136,-0.0129163200035691
1.7726343669308836e+18,1.803883544921875,-0.1253823041915893,-0.0112733840942382,0.0717500448226928,-0.0070573706179857,-0.0635163411498069,-0.00093210558407
1.7726343669508777e+18,1.823877685546875,-0.1234087944030761,0.0172481536865234,0.0067065954208374,-0.0025300008710473,-0.0595216006040573,0.0001331579405814
1.7726343669708718e+18,1.843871826171875,-0.1924803256988525,0.0218582153320312,-0.0396510064601898,0.0041278963908553,-0.0406131707131862,0.0049268435686826
1.772634366990866e+18,1.863865966796875,-0.1751449108123779,0.040959358215332,-0.0475792586803436,0.0081226341426372,-0.0206394810229539,0.0097205294296145
1.7726343670108598e+18,1.88385986328125,-0.1061271429061889,0.0839662551879882,-0.075650155544281,0.0121173728257417,-0.0022636849898844,0.0059921070933341
1.772634367050848e+18,1.923847900390625,-0.092089295387268,-0.0546951293945312,-0.0712482929229736,0.0126500045880675,0.0054594753310084,-0.0054594753310084
1.772634367070842e+18,1.943842041015625,-0.1095471382141113,-0.0836677551269531,-0.0581345409154892,0.0131826363503932,0.0238352715969085,-0.0214384291321039
1.7726343670908362e+18,1.963836181640625,-0.1407884359359741,0.0305852890014648,-0.0538750439882278,0.0129163200035691,0.0368847511708736,-0.0374173820018768
1.7726343671308234e+18,2.003823486328125,-0.0929121971130371,0.0302677154541015,-0.0794285833835601,0.0166447423398494,0.0448742248117923,-0.0470047518610954
1.772634367150817e+18,2.023817138671875,-0.1151363849639892,0.1018285751342773,-0.0554521083831787,0.0145142152905464,0.0512658059597015,-0.0502005442976951
1.772634367170811e+18,2.043810791015625,-0.1278319358825683,0.130223274230957,-0.1012678891420364,0.0113184247165918,0.0499342270195484,-0.0504668578505516
1.7726343671908045e+18,2.063804443359375,-0.0881901979446411,0.0243759155273437,-0.0841063857078552,0.013715268112719,0.0374173820018768,-0.0531300194561481
1.7726343672107983e+18,2.08379833984375,-0.1162458658218383,0.0046339035034179,-0.0036424398422241,0.0134489517658948,0.0171773750334978,-0.0515321232378482
1.772634367230792e+18,2.1037919921875,-0.2060775756835937,0.0902624130249023,0.0727258324623107,0.0150468470528721,0.0014647373463958,-0.0515321232378482
1.7726343672507855e+18,2.12378564453125,-0.2090237140655517,0.1706514358520507,0.070638969540596,0.0158457942306995,-0.0014647373463958,-0.0565921254456043
1.7726343672707794e+18,2.143779296875,-0.1209125518798828,0.1702327728271484,0.1151737570762634,0.0134489517658948,-0.0113184247165918,-0.0565921254456043
1.772634367290773e+18,2.16377294921875,-0.072158932685852,0.0744142532348632,0.1437925994396209,0.0121173728257417,-0.0235689561814069,-0.0515321232378482
1.7726343673107668e+18,2.183766845703125,-0.2070884704589843,0.0015039443969726,0.0476842820644378,0.0123836882412433,-0.0310258008539676,-0.0456731729209423
1.7726343673307604e+18,2.203760498046875,-0.3139044046401977,-0.0804738998413086,0.0557418316602706,0.0155794788151979,-0.0424773842096328,-0.0411458052694797
1.772634367350754e+18,2.223754150390625,-0.3241462707519531,-0.000493049621582,0.1861467212438583,0.0158457942306995,-0.0483363308012485,-0.032091062515974
1.7726343673707476e+18,2.24374755859375,-0.2178890705108642,0.3473043441772461,0.2304168790578842,0.017710005864501,-0.0581900216639041,-0.0238352715969085
1.7726343673907415e+18,2.263741455078125,-0.2177709341049194,0.4606094360351562,0.1184324622154235,0.0211721118539571,-0.067777395248413,-0.0182426385581493
1.772634367410735e+18,2.283735107421875,-0.3266721963882446,0.2132225036621093,-0.0896327197551727,0.0203731656074523,-0.0619184412062168,-0.0123836882412433
1.772634367430729e+18,2.30372900390625,-0.4921280145645141,0.099985122680664,-0.1543304026126861,0.0134489517658948,-0.0462058037519454,0.0019973691087216
1.7726343674507226e+18,2.32372265625,-0.4603854417800903,0.5947046279907227,0.0817002058029174,0.0110521093010902,-0.0427436977624893,0.017710005864501
1.7726343674707162e+18,2.343716064453125,-0.30695641040802,1.3035049438476562,0.1917750239372253,0.0201068483293056,-0.0552605465054512,0.0155794788151979
1.77263436749071e+18,2.3637099609375,-0.4810603857040405,1.6478395462036133,0.11532923579216,0.0347542241215705,-0.0624510757625103,0.0075900023803114
1.7726343675107036e+18,2.38370361328125,-0.7034226655960083,1.5776281356811523,-0.0600481629371643,0.0331563279032707,-0.0664458125829696,0.0017310532275587
1.7726343675306975e+18,2.403697509765625,-0.2983773946762085,1.383636474609375,-0.614195704460144,0.0286289565265178,-0.0749679207801818,-0.0070573706179857
1.772634367550691e+18,2.423691162109375,0.4162065982818603,0.7911806106567383,-1.1751017570495603,0.0486026480793952,-0.0747016072273254,0.004660528153181
1.7726343675706847e+18,2.4436845703125,1.446001410484314,-0.4488611221313476,-1.8523621559143064,0.0688426569104194,-0.1106542497873306,0.0608531795442104
1.7726343675906783e+18,2.46367822265625,1.6356847286224363,-1.7625617980957031,-2.879498243331909,0.0773647651076316,-0.1420795172452926,0.1466068923473358
1.7726343676106719e+18,2.483671875,1.5697466135025024,-2.494140625,-3.403639554977417,0.0576573871076107,-0.1402153074741363,0.2267679721117019
1.7726343676306655e+18,2.50366552734375,1.1280007362365725,-2.961130142211914,-2.6807215213775635,0.0238352715969085,-0.1774995326995849,0.2688458859920501
1.772634367650659e+18,2.5236591796875,0.27446448802948,-1.985332489013672,-1.4904413223266602,0.0520647540688514,-0.1844237446784973,0.3287669420242309
1.7726343676706527e+18,2.543652587890625,-0.0376797914505004,0.0304527282714843,-0.7416566610336304,0.0435426458716392,-0.128763735294342,0.4195806682109833
1.7726343676906463e+18,2.563646240234375,0.316159725189209,1.409348487854004,-0.4882475733757019,-0.0600542314350605,-0.045939490199089,0.5093291401863098
1.7726343677106399e+18,2.583639892578125,0.4075649976730346,1.9847674369812007,-0.753790020942688,-0.0973384529352188,0.0832237154245376,0.5772396922111511
1.7726343677306335e+18,2.603633544921875,0.4452415704727173,2.346255302429199,-1.3216729164123535,-0.1165132001042366,0.1231710985302925,0.6131923198699951
1.772634367750627e+18,2.623626953125,0.4999351501464844,2.4493274688720703,-1.9559204578399656,-0.0547279119491577,0.0254331659525632,0.5703154802322388
1.7726343677706207e+18,2.64362060546875,0.3502999544143677,2.313828945159912,-2.208563804626465,-0.0014647373463958,-0.2315616607666015,0.4680501520633697
1.7726343677906143e+18,2.6636142578125,-0.0099807977676391,2.0308074951171875,-1.9236047267913816,0.1095889881253242,-0.403868019580841,0.3183806240558624
1.7726343678106079e+18,2.68360791015625,0.3236169815063476,1.1990671157836914,-1.311007022857666,0.1183774098753929,-0.5719133615493774,0.0704405531287193
1.7726343678306015e+18,2.7036015625,0.749725341796875,0.3742389678955078,-1.155146241188049,0.0486026480793952,-0.601474404335022,-0.170841634273529
1.772634367850595e+18,2.723594970703125,0.3812398910522461,0.0549249649047851,-1.3903872966766355,0.043010015040636,-0.4528701603412628,-0.2914827466011047
1.7726343678705887e+18,2.743588623046875,0.1368838548660278,0.0788087844848632,-1.6907131671905518,0.0635163411498069,-0.3231743276119232,-0.2744385302066803
1.7726343678905823e+18,2.763582275390625,0.5859456062316895,0.043654441833496,-1.3732266426086426,0.0272973775863647,-0.2579269409179687,-0.1996037513017654
1.7726343679105759e+18,2.783575927734375,1.0782865285873413,0.1198377609252929,-1.02470064163208,-0.0342215895652771,-0.2265016585588455,-0.1463405787944793
1.7726343679305695e+18,2.803569580078125,1.276858687400818,0.3084917068481445,-1.3393372297286987,-0.1006674021482467,-0.2925480008125305,-0.1095889881253242
1.772634367950563e+18,2.82356298828125,1.2302042245864868,0.7075662612915039,-1.9607234001159668,-0.169643223285675,-0.4448806941509247,-0.0904142409563064
1.7726343679705567e+18,2.843556640625,2.280646324157715,0.965557098388672,-2.145199775695801,-0.2327600866556167,-0.5364933609962463,-0.0776310786604881
1.7726343679905503e+18,2.86355029296875,2.97590970993042,-0.027205467224121,-1.9879807233810425,-0.2185121774673462,-0.475506991147995,-0.1181110963225364
1.7726343680105439e+18,2.8835439453125,1.465237736701965,-3.521409034729004,-0.6058598756790161,-0.1466068923473358,-0.34714275598526,-0.1495363712310791
1.7726343680305375e+18,2.903537353515625,0.340999960899353,-5.344086647033691,1.954996109008789,-0.1402153074741363,-0.2422142922878265,-0.1316931992769241
1.772634368050531e+18,2.923531005859375,-0.791545033454895,-2.373130798339844,3.267821788787842,-0.1756353229284286,-0.2041311264038086,-0.0832237154245376
1.7726343680705247e+18,2.943524658203125,-0.252955675125122,1.6183805465698242,2.243678331375122,-0.165781632065773,-0.2099900692701339,-0.084288977086544
1.772634368090518e+18,2.96351806640625,0.602342963218689,2.33890962600708,1.2175655364990234,-0.1079910919070243,-0.2344911396503448,-0.0587226524949073
1.772634368110511e+18,2.983510986328125,-0.6712206602096558,0.9764719009399414,0.8108169436454773,-0.0832237154245376,-0.3047985136508941,0.017710005864501
1.772634368150497e+18,3.0234970703125,-1.513944387435913,-3.005514144897461,0.0748680233955383,-0.105860561132431,-0.2443448156118393,0.1002679318189621
1.77263436817049e+18,3.043489990234375,-1.4329019784927368,-2.010199546813965,2.1999077796936035,-0.0041278963908553,-0.0747016072273254,0.1210405677556991
1.7726343681904832e+18,3.063483154296875,-1.2754392623901367,0.0709285736083984,3.5777618885040283,0.2600574493408203,0.0486026480793952,0.1439437270164489
1.7726343682104763e+18,3.083476318359375,-1.8322445154190063,1.4799957275390625,2.96059250831604,0.4171838164329529,0.1673795282840728,0.1585911065340042
1.7726343682504625e+18,3.12346240234375,-1.30479633808136,-1.4114274978637695,-1.4494845867156982,0.4368911981582641,0.0768321305513382,0.050999492406845
1.7726343682704556e+18,3.14345556640625,-0.9827036261558532,-1.9109792709350584,-2.0265064239501958,0.2773679792881012,0.110920563340187,0.0515321232378482
1.7726343682904484e+18,3.163448486328125,-0.6301000118255615,-0.1573848724365234,-1.1423381567001345,0.2275669276714325,0.3684480190277099,0.198272168636322
1.7726343683104415e+18,3.18344140625,-0.8227251172065735,1.7071781158447266,-0.5273218154907227,0.338886946439743,0.4667185842990875,0.26325324177742
1.7726343683304346e+18,3.2034345703125,-0.6963967680931091,2.301433086395264,-0.1866396516561508,0.3050648272037506,0.2057290226221084,0.0954742431640625
1.7726343683504276e+18,3.223427734375,-0.5153336524963379,1.343557357788086,-0.3376560509204864,0.2717753648757934,-0.0083889504894614,-0.1178447753190994
1.7726343683704207e+18,3.243420654296875,-0.8221681714057922,0.0079631805419921,-0.8556755781173706,0.1988048106431961,-0.1250353008508682,-0.273905873298645
1.7726343683904138e+18,3.263413818359375,-1.0331406593322754,0.2848854064941406,-1.456476092338562,0.0699079185724258,-0.1141163557767868,-0.4126564562320709
1.772634368410407e+18,3.283406982421875,-0.5575177669525146,1.0746393203735352,-1.7694140672683716,-0.0552605465054512,0.1330247819423675,-0.5415533185005188
1.7726343684303997e+18,3.303399658203125,-0.2988404035568237,1.2159881591796875,-2.0892369747161865,-0.2467416673898697,0.5745764970779419,-0.5759080648422241
1.7726343684503928e+18,3.323392822265625,-0.4686790704727173,1.1351099014282229,-2.151074171066284,-0.3412837982177734,1.0869683027267456,-0.2731069326400757
1.772634368470386e+18,3.343385986328125,-0.5513929128646851,0.9102621078491212,-1.7076377868652344,-0.2752374708652496,1.0286450386047363,-0.1450089961290359
1.772634368490379e+18,3.36337890625,-0.6784060001373291,0.268035888671875,-1.148564338684082,-0.2046637535095214,0.8190544843673706,-0.2645848393440246
1.772634368510372e+18,3.3833720703125,-1.3749052286148071,-0.4481983184814453,-1.1131986379623413,-0.2241048067808151,0.641155481338501,-0.4978775382041931
1.7726343685303652e+18,3.403365234375,-0.7384737730026245,-0.5994052886962891,-1.745743751525879,-0.2478069216012954,0.462457537651062,-0.7218492031097412
1.772634368550358e+18,3.42335791015625,-0.8920751214027405,0.5233240127563477,-2.662785291671753,-0.1966742724180221,0.3055974841117859,-0.8414250016212463
1.772634368570351e+18,3.44335107421875,-1.6842966079711914,1.5971059799194336,-3.8535547256469727,-0.1242363601922988,0.2597911357879638,-0.8523439764976501
1.7726343685903442e+18,3.46334423828125,-2.4114420413970947,1.3832120895385742,-3.637190103530884,-0.0762995034456253,0.2981406152248382,-0.693087100982666
1.7726343686103373e+18,3.483337158203125,1.5514256954193115,0.288919448852539,-1.121720314025879,0.0246342197060585,0.3189132809638977,-0.531965970993042
1.77263436863033e+18,3.503330078125,1.0365941524505615,-0.6391849517822266,0.3096549808979034,0.1271658390760421,0.2691121995449066,-0.4299669861793518
1.7726343686503232e+18,3.5233232421875,-0.1945902109146118,-1.341094970703125,0.0354936569929122,0.188684806227684,0.2707100808620453,-0.3279680013656616
1.772634368670316e+18,3.54331591796875,-1.5561504364013672,-1.482316017150879,1.611682653427124,0.2214416563510894,0.3559311628341675,-0.2643185257911682
1.772634368690309e+18,3.56330908203125,-0.465126097202301,-1.0786247253417969,3.969516515731812,0.2371542900800705,0.3977427780628204,-0.2491385042667389
1.7726343687103022e+18,3.58330224609375,1.8446489572525024,-1.3515310287475586,3.997951030731201,0.1633847951889038,0.4419512152671814,-0.248605877161026
1.7726343687302953e+18,3.60329541015625,2.1790666580200195,-3.127169609069824,1.5350255966186523,0.1319595128297805,0.3958785533905029,-0.2020006030797958
1.7726343687702812e+18,3.64328125,1.5401761531829834,-3.714112281799317,-2.055023670196533,0.1127847731113433,0.1916142702102661,-0.0938763469457626
1.7726343687902743e+18,3.6632744140625,1.6415363550186155,-1.8972692489624023,-0.6313652992248535,0.0366184338927269,0.0507331751286983,0.0834900289773941
1.7726343688102671e+18,3.68326708984375,1.484793186187744,-0.3890151977539062,0.130119502544403,-0.4691154360771179,0.2818953692913055,0.2656500935554504
1.772634368850253e+18,3.723253173828125,0.2974467277526855,0.6137275695800781,0.9082204103469848,-0.5506080985069275,0.1929458528757095,0.5103943943977356
1.7726343688702461e+18,3.74324609375,-0.3027334213256836,0.1559867858886718,1.049901247024536,-0.4829638600349426,-0.5218459963798523,0.8099997639656067
1.7726343688902392e+18,3.7632392578125,-0.3220570087432861,-0.1190996170043945,0.8089028000831604,-0.2587258815765381,-1.0163946151733398,0.9282439947128296
1.772634368910232e+18,3.783232177734375,-0.3645548820495605,0.8985223770141602,0.5410563349723816,-0.3572627604007721,-0.7378281354904175,0.9354345202445984
1.7726343689302252e+18,3.80322509765625,-0.840817391872406,2.5979018211364746,0.7229191064834595,-0.3687143325805664,-0.1306279450654983,0.9266461133956908
1.7726343689502182e+18,3.82321826171875,-0.7940183281898499,3.416999340057373,1.5078949928283691,-0.0166447423398494,0.3428817093372345,0.8968187570571899
1.772634368970211e+18,3.843211181640625,-0.1292088031768798,3.520974636077881,1.414085865020752,0.2624543011188507,0.2643185257911682,0.6898912787437439
1.7726343689902042e+18,3.8632041015625,0.4801338911056518,3.143946647644043,0.3325101733207702,0.2251700758934021,-0.0669784471392631,0.4195806682109833
1.7726343690101972e+18,3.883197265625,0.4530593156814575,2.703312873840332,-1.168002367019653,0.1071921437978744,-0.5982786417007446,0.2273005992174148
1.77263436903019e+18,3.903190185546875,-0.1279652118682861,2.287468433380127,-2.0029029846191406,0.0869521349668502,-1.0600703954696655,0.156194269657135
1.772634369070176e+18,3.943176025390625,0.6902055740356445,0.5694208145141602,0.5466992855072021,0.1521995216608047,-1.310939908027649,0.2723079919815063
1.772634369090169e+18,3.963169189453125,0.2426320314407348,-0.5655803680419922,2.152869701385498,0.2001363784074783,-1.2651336193084717,0.5641902089118958
1.772634369110163e+18,3.983162841796875,-0.8534963726997375,-0.7576436996459961,0.5391796827316284,0.1980058550834655,-0.9343692660331726,0.4656533300876617
1.7726343691301565e+18,4.003156494140625,0.4641932249069214,-0.1681432723999023,-2.778376579284668,0.1942774355411529,-0.5948165059089661,0.3362238109111786
1.7726343691701437e+18,4.043143798828125,5.840639591217041,-4.529924392700195,-2.05374813079834,0.1362205743789672,-0.5010733008384705,0.2930806279182434
1.7726343691901373e+18,4.063137451171875,-0.9585987329483032,-9.904102325439451,3.1265244483947754,0.0254331659525632,-0.4637891054153442,0.2677806317806244
1.772634369210131e+18,4.083130859375,-3.1268272399902344,-3.0907793045043945,5.23603105545044,-0.1311605721712112,-0.5037364959716797,0.0286289565265178
1.7726343692301245e+18,4.10312451171875,-1.3205513954162598,4.80004358291626,5.301095485687256,-0.309059590101242,-0.6462154984474182,-0.2946785092353821
1.7726343692501181e+18,4.1231181640625,-1.3699100017547607,5.454318046569824,4.488157272338867,-0.3897532820701599,-0.7607313394546509,-0.5287702083587646
1.7726343692701117e+18,4.14311181640625,-0.8799245953559875,-0.2704744338989258,2.2664008140563965,-0.3468764424324035,-0.7415565848350525,-0.5189164876937866
1.7726343692901053e+18,4.163105224609375,-0.93247789144516,-5.651415824890137,-1.2032244205474854,-0.3415501117706299,-0.6803039312362671,-0.2952111661434173
1.772634369310099e+18,4.183098876953125,-0.7936286926269531,-4.641356468200684,-1.4030592441558838,-0.3311637938022613,-0.5585975646972656,-0.0355531685054302
1.7726343693300925e+18,4.203092529296875,-0.5892941951751709,0.2152242660522461,1.7533990144729614,-0.1972069144248962,-0.5016059875488281,0.0957405567169189
1.7726343693500861e+18,4.223086181640625,-1.16745126247406,1.957946300506592,3.2809340953826904,-0.0659131780266761,-0.4787027835845947,-0.0406131707131862
1.7726343693700797e+18,4.243079833984375,-1.5727500915527344,-0.1395177841186523,1.7503516674041748,-0.1529984772205352,-0.2464753538370132,0.0022636849898844
1.7726343693900733e+18,4.2630732421875,-1.221088409423828,-3.0568151473999023,-0.9664955735206604,-0.1159805655479431,0.1655153185129165,0.3543332815170288
1.772634369410067e+18,4.28306689453125,-1.6002132892608645,-2.109691619873047,-1.8836305141448972,0.0880173966288566,0.3620564341545105,0.8470176458358765
1.7726343694300605e+18,4.303060546875,-0.305804967880249,1.7897453308105469,-0.9330453872680664,0.7756450176239014,-0.2299637645483017,0.9109334945678712
1.7726343694500544e+18,4.323054443359375,-0.0571808815002441,3.363239288330078,0.6546491980552673,0.6291712522506714,-0.4411522448062897,0.2227732390165329
1.772634369470048e+18,4.343048095703125,-0.8343774676322937,2.571017265319824,2.277812957763672,0.0917458236217498,-0.4331627786159515,-0.2291648089885711
1.7726343694900416e+18,4.36304150390625,-0.7686972618103027,1.4866561889648438,1.3814209699630735,0.0794952884316444,-0.035020537674427,-0.2478069216012954
1.7726343695100352e+18,4.38303515625,-0.5019280314445496,0.9431610107421876,-1.4246926307678225,0.1125184595584869,0.1559279412031173,-0.1796300560235977
1.7726343695300288e+18,4.40302880859375,-0.5755850076675415,0.7725372314453125,-2.6247003078460693,0.2238384932279586,0.1514005810022354,-0.2121205925941467
1.7726343695500224e+18,4.4230224609375,-0.363980233669281,1.4023733139038086,-2.1495182514190674,0.2267679721117019,0.1918805986642837,-0.0030626326333731
1.772634369570016e+18,4.44301611328125,-0.2877970933914184,1.9151701927185056,-1.4936861991882324,0.0003994738217443,0.3519364297389984,0.121839515864849
1.7726343695900099e+18,4.463009765625,-0.5785697102546692,1.470931053161621,-1.0150399208068848,-0.1633847951889038,0.5564670562744141,-0.0121173728257417
1.7726343696100047e+18,4.483004638671875,-1.1623001098632812,-0.005986213684082,-0.718599796295166,-0.307461678981781,0.5830986499786377,-0.2656500935554504
1.7726343696299999e+18,4.502999755859375,-0.794411838054657,-1.4918432235717771,-1.6514753103256226,-0.3876227736473083,0.6483460068702698,-0.5522059798240662
1.772634369649995e+18,4.5229951171875,-0.4401206970214844,-0.6415281295776367,-3.056685447692871,-0.3327617049217224,0.7511439323425293,-0.5567333698272705
1.772634369689985e+18,4.562985107421875,-1.2837337255477903,2.1946234703063965,-4.376656532287598,-0.3447459042072296,0.8877639770507812,-0.3079943060874939
1.7726343697099802e+18,4.582980224609375,-1.085097074508667,0.9221067428588868,-2.6810073852539062,-0.1977395415306091,0.802276611328125,-0.1503353118896484
1.772634369729975e+18,4.60297509765625,0.8959207534790039,-0.3293609619140625,0.2724321186542511,-0.1306279450654983,0.5996102094650269,-0.3149185180664062
1.7726343697499702e+18,4.62297021484375,-0.1581284999847412,-0.5619497299194336,0.5601919889450073,-0.2155826985836029,0.4352933168411255,-0.819320797920227
1.772634369769965e+18,4.642965087890625,-0.1176779270172119,-0.8121814727783203,0.3569559454917907,-0.170841634273529,0.3559311628341675,-1.162069320678711
1.7726343697899602e+18,4.662960205078125,-1.4581434726715088,-1.1083250045776367,2.0643858909606934,-0.0051931599155068,0.4952143728733063,-0.9250482320785522
1.7726343698099553e+18,4.682955322265625,0.6063156723976135,-1.272364616394043,3.4937453269958496,0.0970721393823623,0.6004091501235962,-0.5322322845458984
1.7726343698299502e+18,4.7029501953125,3.245670795440674,-3.4782276153564453,2.999806880950928,0.1729721575975418,0.571647047996521,-0.3697795867919922
1.7726343698499453e+18,4.7229453125,3.059322595596313,-6.683396339416504,1.1925748586654663,0.2395511418581009,0.5980123281478882,-0.3684480190277099
1.7726343698899354e+18,4.762935302734375,0.9026256799697876,-3.73099422454834,-1.0396666526794434,0.2552637755870819,0.6938860416412354,-0.3817638158798218
1.7726343699099305e+18,4.782930419921875,0.5431166887283325,-0.8655920028686523,-0.5563461780548096,0.2275669276714325,0.7237133979797363,-0.3854922354221344
1.7726343699299256e+18,4.802925537109375,1.1122721433639526,0.9661474227905272,0.4495153427124023,0.1764342784881591,0.6936197280883789,-0.3239732682704925
1.7726343699499205e+18,4.82292041015625,0.7257084846496582,1.8213624954223635,1.050037860870361,0.1021321415901184,0.4432827830314636,-0.1862879544496536
1.7726343699899105e+18,4.86291064453125,-0.1837249994277954,1.4860897064208984,0.6973944306373596,0.0422110669314861,0.0233026389032602,-0.0083889504894614
1.7726343700099057e+18,4.88290576171875,-0.3688771724700928,2.1948843002319336,0.582378625869751,-0.1652490049600601,-0.1828258484601974,0.1042626649141311
1.7726343700299008e+18,4.90290087890625,-0.7037628889083862,4.138258934020996,0.5286740660667419,-0.5926859974861145,0.1442100554704666,0.2169142812490463
1.7726343700698908e+18,4.942890869140625,-0.587683379650116,5.094570159912109,0.8730323910713196,-0.6328997015953064,0.0376836955547332,0.4635227918624878
1.7726343700898857e+18,4.9628857421875,0.5726900100708008,3.559584140777588,0.4646371006965637,-0.6307691931724548,-0.4691154360771179,0.6850975751876831
1.772634370109879e+18,4.982879150390625,1.521689534187317,1.7603607177734375,-0.991596817970276,-0.41665118932724,-0.7452849745750427,0.8981503248214722
1.7726343701298726e+18,5.00287255859375,1.703938603401184,0.4528894424438476,-2.223827362060547,-0.4992091059684753,-0.6243776082992554,1.0789787769317627
1.772634370149866e+18,5.022865966796875,0.7991032600402832,-0.501744270324707,-1.894620656967163,-0.3490069508552551,-0.1519332081079483,1.222256779670715
1.7726343701698596e+18,5.042859619140625,1.3316022157669067,-1.413015365600586,0.5396385192871094,0.0840226635336875,0.0826910808682441,1.227849364280701
1.7726343701898532e+18,5.062853271484375,0.7090264558792114,-2.130319595336914,2.9170010089874268,0.2637858688831329,-0.2866890430450439,0.6648576259613037
1.7726343702098465e+18,5.082846435546875,-0.0182374715805053,-2.099040985107422,1.5933774709701538,0.1375521570444107,-1.0515482425689695,-0.1785648018121719
1.7726343702298401e+18,5.102840087890625,1.9008982181549072,-0.3270492553710937,-2.064932107925415,0.1841574311256408,-1.1828420162200928,-0.035020537674427
1.7726343702498337e+18,5.122833740234375,3.0897395610809326,0.1830654144287109,-4.95327091217041,0.2960101068019867,-1.204147219657898,0.2171805948019027
1.7726343702698273e+18,5.142827392578125,1.9751559495925903,-6.608421325683594,-0.7730968594551086,0.3865574896335602,-1.188434600830078,0.372442752122879
1.7726343702898207e+18,5.162820556640625,-0.0208261013031005,-7.495762825012207,4.772751808166504,0.3868238031864166,-0.96446293592453,0.3628553748130798
1.7726343703098143e+18,5.182814208984375,-0.8746158480644226,0.4529933929443359,5.84666109085083,0.3271690607070923,-0.7133271098136902,0.1918805986642837
1.7726343703298076e+18,5.2028076171875,-2.322360038757324,5.095388412475586,3.814596176147461,0.2046637535095214,-0.6262418031692505,0.0294279046356678
1.7726343703498012e+18,5.22280126953125,-2.429539442062378,2.6223855018615723,2.337475538253784,0.0286289565265178,-0.6275733709335327,-0.0091878976672887
1.7726343703697948e+18,5.242794921875,-1.0528485774993896,-3.207526206970215,0.8896369338035583,-0.2030658572912216,-0.5338301658630371,-0.0933437198400497
1.7726343703897882e+18,5.2627880859375,-1.2291412353515625,-5.389127731323242,-0.6957525610923767,-0.4315648972988128,-0.3269027471542358,-0.2163816541433334
1.7726343704097818e+18,5.28278173828125,-0.7045265436172485,-1.5572891235351562,0.4344359636306762,-0.5436838865280151,-0.1846900582313537,-0.3162501156330108
1.7726343704297754e+18,5.302775390625,-0.9117586612701416,2.6581029891967773,3.0055465698242188,-0.4914859533309936,-0.1873532235622406,-0.3399522304534912
1.7726343704497687e+18,5.322768798828125,-1.6511666774749756,2.2837648391723637,4.279297828674316,-0.3391532599925995,-0.3319627344608307,-0.2584595680236816
1.7726343704697623e+18,5.34276220703125,-1.583837389945984,-1.4522666931152344,2.035140991210937,-0.1852227002382278,-0.2336921840906143,-0.0448742248117923
1.772634370489756e+18,5.362755859375,-1.4554084539413452,-3.989814758300781,-1.540054440498352,-0.1157142519950866,-0.3335606455802917,0.1245026737451553
1.7726343705097492e+18,5.382749267578125,-1.511863350868225,-1.5959787368774414,-2.11245059967041,0.0384826436638832,-0.3061301112174988,-0.0568584389984607
1.7726343705297428e+18,5.402742919921875,-0.1174789667129516,2.1439085006713867,-0.7471705079078674,-0.0491352789103984,0.0209057964384555,-0.1564605832099914
1.7726343705497362e+18,5.422736083984375,-0.5649188160896301,3.415097236633301,0.9098724722862244,0.0688426569104194,0.3279680013656616,0.1026647686958313
1.7726343705697298e+18,5.442729736328125,-0.9840673804283142,3.1239023208618164,1.6408250331878662,0.5546028017997742,0.6163880825042725,0.72903972864151
1.7726343705897231e+18,5.46272314453125,-0.4680544734001159,2.499423027038574,-0.3708735704421997,0.774846076965332,0.5487438440322876,0.8068039417266846
1.772634370609716e+18,5.482716064453125,-0.2307749986648559,1.5148344039916992,-2.5253796577453613,0.5585975646972656,0.2259690314531326,0.1716405898332595
1.7726343706297088e+18,5.502708740234375,-0.4110170006752014,1.455535888671875,-3.012270212173462,0.3647195994853973,0.0339552760124206,-0.182559534907341
1.7726343706497016e+18,5.52270166015625,-0.3184448480606079,2.01546049118042,-2.4031689167022705,0.2952111661434173,0.3833616971969604,-0.2685795724391937
1.7726343706696945e+18,5.542694580078125,-0.4854671359062195,2.0996079444885254,-2.0800414085388184,0.2067942768335342,0.4994754493236542,-0.3695132732391357
1.7726343706896873e+18,5.562687255859375,-0.3825703859329223,1.2375640869140625,-1.6074416637420654,0.2896185219287872,0.2973416745662689,-0.3822964429855346
1.77263437070968e+18,5.58268017578125,-0.7229228615760803,-0.1844444274902343,-0.6756129264831543,0.243013247847557,0.2813627421855926,-0.0794952884316444
1.772634370729673e+18,5.6026728515625,-0.5576861500740051,-1.5867538452148438,-1.2116498947143557,0.1314268857240677,0.5109270215034485,0.1101216152310371
1.7726343707496658e+18,5.622665771484375,-0.1994506120681762,-0.934499740600586,-2.098391056060791,-0.03715106472373,0.7724491953849792,0.0030626326333731
1.7726343707696586e+18,5.64265869140625,-0.4227389097213745,1.4038543701171875,-3.3829784393310547,-0.2885532677173614,0.8789755702018738,-0.4185154139995575
1.7726343707896515e+18,5.6626513671875,-1.9082841873168943,1.9500951766967771,-3.455270767211914,-0.3591269552707672,0.995621919631958,-0.7817702889442444
1.7726343708096443e+18,5.682644287109375,1.656504511833191,0.6160411834716797,-0.9069452285766602,-0.231827974319458,1.150884032249451,-0.6262418031692505
1.772634370829637e+18,5.70263720703125,0.2666831016540527,-0.1997060775756836,-0.1824826449155807,-0.1580584794282913,1.2379693984985352,-0.2576606273651123
1.77263437084963e+18,5.7226298828125,-0.3161766529083252,-1.7239990234375,-1.1204733848571775,-0.0219710599631071,1.0302430391311646,-0.1468732059001922
1.7726343708696228e+18,5.742622802734375,-0.5212173461914062,-2.609947204589844,1.4771555662155151,-0.0757668688893318,0.8004123568534851,-0.4813659489154815
1.7726343708896156e+18,5.76261572265625,0.4404451847076416,-3.0447778701782227,4.351677417755127,-0.1905490159988403,0.6267744302749634,-1.0033451318740845
1.7726343709096084e+18,5.7826083984375,1.889050364494324,-4.0606889724731445,4.504347801208496,-0.1428784728050232,0.6030722856521606,-1.0845714807510376
1.7726343709296013e+18,5.802601318359375,2.0998528003692627,-4.053962707519531,1.3909177780151367,-0.0312921144068241,0.6866955161094666,-0.7468829154968262
1.772634370949594e+18,5.822593994140625,1.0540707111358645,-3.249228477478028,-1.0872507095336914,0.0243679024279117,0.65953129529953,-0.403868019580841
1.772634370969587e+18,5.8425869140625,1.262773036956787,-3.133530616760254,-1.4930672645568848,0.1210405677556991,0.531965970993042,-0.3205111622810364
1.7726343709895798e+18,5.862579833984375,0.807687520980835,-3.036031723022461,-0.9705410599708556,0.1636511087417602,0.5050680637359619,-0.3300985395908355
1.7726343710095726e+18,5.882572509765625,0.6676639318466187,-1.069375991821289,-0.4071118831634521,0.1633847951889038,0.5767070651054382,-0.3300985395908355
1.7726343710295654e+18,5.9025654296875,1.1827901601791382,1.3256349563598633,0.2845432162284851,0.1346226781606674,0.5665870308876038,-0.3873564600944519
1.7726343710495583e+18,5.922558349609375,0.5828619003295898,2.0508360862731934,1.166126012802124,0.094142660498619,0.5753754377365112,-0.3506048619747162
1.772634371069551e+18,5.942551025390625,-0.5614401698112488,1.6965022087097168,1.5035464763641355,0.0078563187271356,0.3985417187213897,-0.2078595459461212
1.772634371089544e+18,5.9625439453125,-0.7470514178276062,2.005866527557373,1.5271673202514648,-0.0768321305513382,0.1812279522418975,-0.0051931599155068
1.7726343711095375e+18,5.98253759765625,-0.7430992722511292,3.5041704177856445,1.3572783470153809,-0.6115944385528564,0.2928143143653869,0.1913479566574096
1.7726343711295311e+18,6.00253125,-0.8950246572494507,4.719004154205322,1.4812343120574951,-0.7170554995536804,0.2009353339672088,0.4565985798835754
1.7726343711495245e+18,6.0225244140625,-0.7335567474365234,4.960929870605469,1.5415887832641602,-0.6065344214439392,-0.4379564523696899,0.9508808255195618
1.7726343711895117e+18,6.06251171875,0.5341829061508179,2.444669246673584,-1.5309860706329346,-0.2230395525693893,-0.7000113129615784,1.285906195640564
1.7726343712095053e+18,6.08250537109375,0.4073643684387207,0.9302902221679688,-3.428006172180176,-0.0552605465054512,-0.2933469414710998,1.368464112281799
1.772634371229499e+18,6.102498779296875,1.2462666034698486,-0.7431955337524414,-2.6431996822357178,-0.0755005553364753,0.2515353560447693,1.3077441453933716
1.7726343712494922e+18,6.1224921875,2.0458579063415527,-1.7401618957519531,0.2884427011013031,0.0123836882412433,0.1625858396291732,0.9255808591842652
1.7726343712894794e+18,6.1624794921875,-0.4169831275939941,-1.735036849975586,1.4560871124267578,0.2251700758934021,-0.2339584976434707,0.4134553968906402
1.7726343713094728e+18,6.18247265625,1.3279521465301514,-0.6483287811279297,-2.242091655731201,0.1801626980304718,-0.5830986499786377,0.1223721504211425
1.7726343713294664e+18,6.20246630859375,3.507347345352173,-2.6792783737182617,-3.548647880554199,0.0778973922133445,-0.9492829442024232,0.0525973848998546
1.77263437134946e+18,6.2224599609375,0.7607413530349731,-7.505374908447266,0.7955120801925659,0.0595216006040573,-1.196424126625061,0.1258342564105987
1.7726343713694536e+18,6.24245361328125,-0.5046499967575073,-3.4301137924194336,4.078518390655518,0.1532647907733917,-1.2595409154891968,0.3508711755275726
1.7726343713894472e+18,6.262447265625,-0.3405691385269165,3.826507568359375,4.098964214324951,0.3346258997917175,-1.2038809061050415,0.6363617777824402
1.7726343714094405e+18,6.2824404296875,-0.6172963380813599,6.2622175216674805,2.7977523803710938,0.4137217104434967,-1.094957709312439,0.6531397104263306
1.772634371429434e+18,6.30243408203125,-1.7287920713424685,1.3144521713256836,2.09499192237854,0.324239581823349,-0.7868302464485168,0.3833616971969604
1.7726343714494277e+18,6.322427734375,-2.509464263916016,-7.392292976379394,0.7964264154434204,0.1900163739919662,-0.6398239135742188,0.1223721504211425
1.7726343714894147e+18,6.36241455078125,-0.1689208745956421,0.3159704208374023,1.2689707279205322,0.050999492406845,-0.5852291584014893,0.0017310532275587
1.7726343715094083e+18,6.382408203125,-0.5937204360961914,4.262282848358154,3.00081467628479,-0.1426121592521667,-0.5024049282073975,-0.1695100516080856
1.7726343715294019e+18,6.40240185546875,-1.6917434930801392,2.339179039001465,2.489100694656372,-0.3564638197422027,-0.3063964247703552,-0.4081290960311889
1.7726343715493952e+18,6.422395263671875,-1.1835086345672607,-1.7926063537597656,0.0984779596328735,-0.4917522668838501,-0.2462090253829956,-0.5479449033737183
1.7726343715693888e+18,6.442388916015625,-1.6939972639083862,-2.879724502563477,-1.9050326347351076,-0.460326999425888,-0.2890858948230743,-0.4970785975456238
1.7726343715893824e+18,6.46238232421875,-1.1199090480804443,0.5481338500976562,-1.0693016052246094,-0.3977427780628204,-0.3452785313129425,-0.2510027289390564
1.7726343716093768e+18,6.482376708984375,-0.3575296401977539,3.0683798789978027,0.5768333673477173,-0.3239732682704925,-0.4091943502426147,0.0259657986462116
1.772634371629371e+18,6.502370849609375,-0.8683602213859558,3.3625121116638184,1.8607969284057615,-0.0922784507274627,-0.4118575155735016,0.1207742542028427
1.772634371649365e+18,6.522364990234375,-0.7696800231933594,2.440235137939453,0.9372276663780212,-0.0403468571603298,-0.0978710874915123,-0.0438089631497859
1.772634371669359e+18,6.542359130859375,-0.3231606483459472,1.0926227569580078,-1.7966432571411133,0.0802942365407943,0.47923544049263,0.3503385484218597
1.7726343716893532e+18,6.562353271484375,-0.3723363876342773,0.7593889236450195,-3.1357016563415527,0.6850975751876831,0.6640586256980896,0.9106671810150146
1.7726343717093476e+18,6.58234765625,-0.0486215353012084,1.3263168334960938,-2.451101064682007,0.6597976088523865,0.3604585528373718,0.6882933974266052
1.7726343717293417e+18,6.602341796875,-0.037460446357727,1.6984195709228516,-1.7460312843322754,0.3000048398971557,-0.0667121261358261,0.1282310932874679
1.7726343717493358e+18,6.622335693359375,-0.5781314969062805,1.3876590728759766,-1.171223282814026,0.1157142519950866,-0.0741689726710319,-0.1990711241960525
1.77263437176933e+18,6.642329833984375,-1.225106716156006,-0.0068311691284179,-0.7548827528953552,0.2677806317806244,0.1535311043262481,-0.2536658644676208
1.772634371789324e+18,6.662323974609375,-0.7533214092254639,-1.802207946777344,-1.4550803899765017,0.4283691048622131,0.1388837248086929,-0.3918838202953338
1.7726343718093181e+18,6.682318115234375,-0.3841755390167236,-0.9251909255981444,-2.4979257583618164,0.3735080361366272,0.0520647540688514,-0.4190480411052704
1.7726343718293123e+18,6.702312255859375,-0.8367596864700317,1.2228107452392578,-4.124419689178467,0.0912131890654563,0.1452753096818924,-0.1918805986642837
1.7726343718493066e+18,6.722306640625,-1.824305534362793,1.5111064910888672,-4.5199360847473145,0.0813594982028007,0.5412870049476624,-0.0030626326333731
1.7726343718693007e+18,6.74230078125,0.435401439666748,0.7195501327514648,-2.3676180839538574,-0.1250353008508682,0.6779070496559143,-0.0701742321252822
1.772634371909289e+18,6.7822890625,-0.2873850464820862,-0.6873941421508789,0.1379839926958084,-0.4057322442531585,0.7966839671134949,-0.3396859169006347
1.772634371929283e+18,6.802282958984375,-0.7745381593704224,-1.3671607971191406,1.5532280206680298,-0.3748396039009094,0.9088029265403748,-0.5697828531265259
1.7726343719492772e+18,6.822277099609375,-0.464266836643219,-1.6756038665771484,3.504035472869873,-0.3306311666965484,0.9463534951210022,-0.389220654964447
1.7726343719692713e+18,6.842271240234375,2.248709201812744,-3.4741945266723637,3.431705474853516,-0.1868205964565277,0.9149281978607178,-0.1950763761997223
1.7726343719892657e+18,6.862265625,2.455165386199951,-6.117779731750488,2.031853199005127,-0.0645816028118133,0.7010765671730042,-0.3535343408584595
1.7726343720092598e+18,6.882259765625,0.9038662910461426,-5.808880805969238,0.0688087344169616,-0.1700426936149597,0.4613922536373138,-0.8789755702018738
1.772634372029254e+18,6.90225390625,0.5829843282699585,-3.553882598876953,-0.3455203771591186,-0.2006690204143524,0.3601922392845154,-1.239034652709961
1.772634372049248e+18,6.922248046875,0.7323075532913208,-1.4386396408081057,-0.3050109148025512,-0.0019973691087216,0.4278364777565002,-1.0363682508468628
1.7726343720892365e+18,6.962236572265625,1.3763362169265747,1.166788101196289,0.8238027095794678,0.1263668835163116,0.4347606897354126,-0.6563354730606079
1.7726343721092306e+18,6.982230712890625,0.817981481552124,1.3924922943115234,1.1258668899536133,0.2185121774673462,0.3982754051685333,-0.5095954537391663
1.772634372129225e+18,7.002224853515625,-0.1587692499160766,1.1750059127807615,1.2270755767822266,0.2752374708652496,0.4467448890209198,-0.4550006687641144
1.7726343721492193e+18,7.02221923828125,-0.6189459562301636,1.156351089477539,1.212541103363037,0.2336921840906143,0.4962796568870544,-0.3958785533905029
1.772634372189208e+18,7.0622080078125,-1.215621829032898,4.370327472686768,0.7087042927742004,0.2014679610729217,0.5301017761230469,-0.3798995912075043
1.7726343722092024e+18,7.082202392578125,-0.9519056081771852,4.748277187347412,1.312044382095337,0.1335574090480804,0.599077582359314,-0.2901511490345001
1.7726343722291968e+18,7.10219677734375,-0.0512386560440063,4.180191993713379,1.1119128465652466,0.0310258008539676,0.307461678981781,-0.1170458272099495
1.7726343722491912e+18,7.122191162109375,0.3276516199111938,3.1249890327453613,-0.4235419034957886,-0.0462058037519454,-0.0515321232378482,0.0968058258295059
1.7726343722691853e+18,7.142185302734375,0.1779577732086181,1.748265266418457,-2.425334453582764,-0.3940143585205078,-0.0802942365407943,0.2275669276714325
1.7726343722891796e+18,7.1621796875,0.4809643030166626,0.0207862854003906,-2.612269639968872,-0.617453396320343,-0.0669784471392631,0.4454133212566376
1.772634372309174e+18,7.182174072265625,1.73206627368927,-1.7193145751953125,-0.9338762164115906,-0.5785712599754333,-0.540488064289093,0.8113313317298889
1.7726343723291684e+18,7.20216845703125,1.4344937801361084,-2.818631172180176,2.0008702278137207,-0.3719101250171661,-0.8986829519271851,1.0811092853546145
1.7726343723491628e+18,7.222162841796875,-0.3597763776779175,-2.9617795944213867,2.6467273235321045,-0.2731069326400757,-0.7870965600013733,1.25554621219635
1.772634372369157e+18,7.2421572265625,0.5594959259033203,-0.7864389419555664,-0.4447137117385864,-0.2470079809427261,-0.2986732721328735,1.3303810358047483
1.7726343723891515e+18,7.2621513671875,2.084479331970215,2.9205069541931152,-5.052404403686523,0.0462058037519454,0.0424773842096328,1.3532841205596924
1.7726343724091459e+18,7.282145751953125,4.831988334655762,-1.040268898010254,-2.548677444458008,0.2627206146717071,-0.1793637424707412,0.9679250717163086
1.7726343724291402e+18,7.30214013671875,1.9107320308685305,-7.300365447998047,2.7753686904907227,0.1796300560235977,-0.5383575558662415,0.445679634809494
1.7726343724491343e+18,7.32213427734375,-2.8915464878082275,-3.804723739624024,4.11600923538208,0.0752342343330383,-0.7945534586906433,0.0914795026183128
1.7726343724691287e+18,7.342128662109375,-3.5747618675231934,2.1439285278320312,4.67482852935791,0.0715058147907257,-0.9367660880088806,0.0544615983963012
1.772634372489123e+18,7.362123046875,-2.2277374267578125,3.4603519439697266,4.404971122741699,0.149003729224205,-1.008405089378357,0.2533995509147644
1.7726343725091174e+18,7.382117431640625,-0.8869372010231018,-0.1645078659057617,2.247267246246338,0.2728406190872192,-1.0829734802246094,0.4669848978519439
1.7726343725291118e+18,7.40211181640625,-0.6158288717269897,-3.012054443359375,-0.7364093065261841,0.4099932909011841,-1.0057419538497925,0.4787027835845947
1.7726343725491062e+18,7.422106201171875,-0.2241705656051635,-2.582141876220703,-0.5528323650360107,0.403868019580841,-0.7663239240646362,0.2938795685768127
1.7726343725691005e+18,7.4421005859375,-0.7560343742370605,0.1138763427734375,1.443333625793457,0.3308974802494049,-0.65953129529953,0.0435426458716392
1.7726343725890947e+18,7.4620947265625,-1.931545972824097,1.084406852722168,2.647568941116333,0.1647163778543472,-0.6803039312362671,-0.079228974878788
1.7726343726090872e+18,7.482087158203125,-1.9861958026885984,-0.6343326568603516,2.121746778488159,-0.0259657986462116,-0.5761744379997253,-0.155129000544548
1.7726343726290798e+18,7.502079833984375,-1.4178411960601809,-2.626495361328125,0.365752100944519,-0.2707100808620453,-0.4265048801898956,-0.3751059174537658
1.7726343726490726e+18,7.52207275390625,-1.4074493646621704,-0.9812145233154296,-1.3971211910247805,-0.4526038467884063,-0.4110585749149322,-0.5727123022079468
1.7726343726690652e+18,7.542065185546875,-0.3681989908218384,1.8833932876586916,-1.019086241722107,-0.4408859312534332,-0.4265048801898956,-0.625975489616394
1.772634372689058e+18,7.56205810546875,-0.3317195177078247,2.8462977409362797,0.5794561505317688,-0.3593932688236236,-0.4446143507957458,-0.4600606858730316
1.7726343727090506e+18,7.582050537109375,-0.718082070350647,2.040393352508545,1.369397521018982,-0.3367564380168915,-0.4765722751617431,-0.1346226781606674
1.7726343727290435e+18,7.60204345703125,-0.6071910262107849,1.4082956314086914,-0.6623599529266357,-0.1532647907733917,-0.4318312108516693,0.1945437490940094
1.772634372749036e+18,7.6220361328125,-0.267220139503479,1.1268281936645508,-2.9961159229278564,0.1103879362344741,-0.3809648752212524,0.127698466181755
1.7726343727690289e+18,7.64202880859375,-0.1167994737625122,1.1469640731811523,-3.163053512573242,-0.0302268527448177,-0.1463405787944793,-0.0105194775387644
1.7726343727890214e+18,7.662021484375,-0.1622751951217651,1.638101577758789,-2.2829689979553223,-0.067777395248413,0.3511374890804291,0.1833584904670715
1.7726343728290068e+18,7.7020068359375,-0.6367408633232117,1.270859718322754,-1.175946831703186,0.1482047885656356,0.944222927093506,0.7287734150886536
1.7726343728489994e+18,7.72199951171875,-0.7402645349502563,-0.1806507110595703,-0.8893227577209473,0.5130575299263,0.4454133212566376,0.8499471545219421
1.7726343728689923e+18,7.7419921875,-0.1859406232833862,-1.2155609130859375,-1.6492165327072144,0.6443513035774231,-0.2083921730518341,0.139416366815567
1.7726343728889848e+18,7.76198486328125,-0.0286719799041748,-0.0957803726196289,-2.698664903640747,0.3482080101966858,-0.338886946439743,-0.3479416966438293
1.7726343729089777e+18,7.781977783203125,-0.9678102731704712,1.537581443786621,-3.622169971466065,0.1348889917135238,-0.0027963167522102,-0.5663207173347473
1.7726343729289702e+18,7.80197021484375,-2.7241945266723637,1.886027812957764,-3.224639892578125,0.1066595092415809,0.3109237849712372,-0.4789691269397735
1.7726343729689556e+18,7.84195556640625,0.2332112789154052,0.0602598190307617,0.7755141854286194,0.2198437601327896,0.3032006323337555,-0.1575258374214172
1.772634373008941e+18,7.881941162109375,-0.2625293135643005,-0.7118196487426758,2.3081116676330566,0.2928143143653869,0.4901543855667114,0.2600574493408203
1.7726343730289336e+18,7.90193359375,0.8859094381332397,-2.7122879028320312,2.8330271244049072,0.1804290115833282,0.6459491848945618,0.3308974802494049
1.7726343730489265e+18,7.921926513671875,2.2135162353515625,-7.078125,1.8533964157104488,-0.1194426715373992,0.6552702188491821,0.0214384291321039
1.772634373068919e+18,7.9419189453125,1.6276540756225586,-7.559998512268066,-0.2283418178558349,-0.4025364518165588,0.7452849745750427,-0.4259722530841827
1.772634373088912e+18,7.961911865234375,0.9208292961120604,-3.94769287109375,-1.2374266386032104,-0.4803006947040558,0.8480829000473022,-0.8339681625366211
1.7726343731089057e+18,7.98190576171875,0.9514260292053224,-1.8678836822509768,-0.5145174264907837,-0.3367564380168915,0.8592681884765625,-0.8699208498001099
1.7726343731288996e+18,8.001899658203126,0.6403100490570068,-0.9725713729858398,0.1600147485733032,-0.2235721796751022,0.983371376991272,-0.4946817457675934
1.7726343731488934e+18,8.0218935546875,0.8653773069381714,0.4313135147094726,-0.3763647079467773,-0.0909468755125999,0.9948229789733888,-0.2491385042667389
1.7726343731888812e+18,8.061881103515624,-0.1893583536148071,0.9063243865966796,0.2282856702804565,-0.1181110963225364,0.7514102458953857,-0.4555333256721496
1.7726343732288689e+18,8.101868896484374,-0.8066814541816711,2.141916275024414,1.6665019989013672,-0.1727058440446853,0.5133238434791565,-0.8968187570571899
1.7726343732488627e+18,8.12186279296875,-0.7494623064994812,4.466790676116943,1.7448465824127195,-0.1031974032521247,0.454201728105545,-0.9807082414627076
1.7726343732688566e+18,8.141856689453125,-0.786794126033783,5.4989190101623535,1.6184496879577637,0.0576573871076107,0.498410165309906,-0.6504765152931213
1.7726343733088445e+18,8.181844482421875,0.300371766090393,3.779827117919922,0.3599392175674438,0.1479384750127792,0.3684480190277099,-0.4065311849117279
1.7726343733288384e+18,8.20183837890625,0.5091211795806885,2.430342197418213,-1.1190333366394043,0.1916142702102661,0.2432795614004135,-0.3932153880596161
1.7726343733488323e+18,8.221832275390625,0.3941229581832886,0.4379796981811523,-2.0991756916046143,0.1958753317594528,0.2491385042667389,-0.4187817275524139
1.772634373368826e+18,8.241826171875,1.3048012256622314,-2.307863235473633,-1.0791763067245483,0.1772332191467285,0.2853574752807617,-0.405998557806015
1.77263437338882e+18,8.261820068359375,0.7347089052200317,-3.3005971908569336,1.933732271194458,0.1932121664285659,0.3452785313129425,-0.3660511672496795
1.7726343734088138e+18,8.281813720703125,-0.2030209302902221,-2.211282730102539,2.635527849197388,0.165781632065773,0.3884217143058777,-0.2027995437383651
1.7726343734288077e+18,8.3018076171875,-0.0611141920089721,0.0144996643066406,-0.0680320858955383,0.1111868768930435,0.1436774134635925,0.035020537674427
1.7726343734488015e+18,8.321801513671875,1.57814359664917,3.0234627723693848,-3.849581241607666,0.0368847511708736,-0.0576573871076107,0.2518016695976257
1.7726343734687954e+18,8.34179541015625,5.074106216430664,-0.5680952072143555,-2.97790002822876,-0.4768385887145996,0.1133174076676368,0.4177164733409881
1.7726343734887892e+18,8.361789306640626,1.6104789972305298,-7.905003547668457,2.189159870147705,-0.5681849122047424,0.2233058661222458,0.6768417954444885
1.772634373508783e+18,8.381783203125,-2.5338149070739746,-5.222780227661133,5.381766319274902,-0.4810996353626251,-0.3633880317211151,1.077913522720337
1.772634373528777e+18,8.40177685546875,-3.2704014778137207,1.4576911926269531,5.0237016677856445,-0.3708448708057403,-0.7700523734092712,1.3673988580703735
1.7726343735487708e+18,8.421770751953124,-2.651740789413452,3.291658878326416,2.9885830879211426,-0.2528669238090515,-0.3732416927814483,1.427586317062378
1.7726343735687647e+18,8.4417646484375,-1.2520540952682495,-0.1051769256591796,0.9047664403915404,-0.0264984294772148,-0.3338269591331482,1.0539450645446775
1.7726343735887585e+18,8.461758544921874,-0.6387588977813721,-3.3238887786865234,-0.2609981298446655,0.0696416050195694,-0.63263338804245,0.4094606637954712
1.7726343736087516e+18,8.481751708984374,-0.4581406116485595,-2.5355749130249023,0.7085881233215332,0.106126882135868,-0.8174566030502319,0.1189100444316864
1.772634373628745e+18,8.501744873046874,-1.0608210563659668,0.7380228042602539,2.0314249992370605,0.0491352789103984,-1.077380895614624,0.0968058258295059
1.772634373648738e+18,8.521738037109374,-1.4704986810684204,1.5047588348388672,2.5473647117614746,0.0613858103752136,-1.3362399339675903,0.133823737502098
1.7726343736687314e+18,8.5417314453125,-1.6599456071853638,-1.0770111083984375,1.5790297985076904,0.176966905593872,-1.3503546714782717,0.3732416927814483
1.7726343736887245e+18,8.561724365234374,-1.3170788288116455,-3.7893590927124015,-0.4065058827400207,0.2579269409179687,-1.310407280921936,0.6153228282928467
1.7726343737087176e+18,8.581717529296874,-1.582596778869629,-1.6035842895507812,-2.2873029708862305,0.3183806240558624,-1.0286450386047363,0.5860280990600586
1.772634373728711e+18,8.6017109375,-0.2997370958328247,2.025408744812012,-1.6513899564743042,0.252600610256195,-0.8480829000473022,0.2720416784286499
1.772634373748704e+18,8.6217041015625,-0.1211371421813964,2.8791980743408203,0.6909086108207703,0.0685763359069824,-0.9333040118217468,-0.0600542314350605
1.772634373768697e+18,8.641697021484376,-0.639423668384552,2.322035789489746,1.6800717115402222,-0.0573910735547542,-0.9572724103927612,-0.2294311374425888
1.7726343737886904e+18,8.6616904296875,-0.6587005257606506,1.4522647857666016,-0.4833297729492187,-0.2241048067808151,-0.8352997899055481,-0.3665838241577148
1.7726343738086835e+18,8.68168359375,-0.3822578191757202,1.0923614501953125,-2.63375186920166,-0.4688491225242615,-0.7050712704658508,-0.4810996353626251
1.77263437384867e+18,8.721669921875,-0.4955941438674927,1.9101409912109373,-2.078801393508911,-0.4917522668838501,-0.4885564744472503,-0.4968122839927673
1.7726343738686633e+18,8.741663330078126,-0.3507167100906372,2.114208221435547,-1.54975688457489,-0.3279680013656616,-0.3894869685173034,-0.3937480449676513
1.7726343739086495e+18,8.7816494140625,-0.7366330027580261,-0.3571557998657226,-0.3403118550777435,-0.2374206036329269,-0.4235754013061523,-0.1295626759529113
1.7726343739286428e+18,8.801642822265626,-0.8784691095352173,-1.3213386535644531,-1.077322483062744,-0.1396826803684234,-0.3442132771015167,0.1119858250021934
1.772634373948636e+18,8.821635986328126,-0.915267288684845,0.2805929183959961,-2.509688138961792,-0.0275636930018663,-0.3479416966438293,-0.0424773842096328
1.7726343739686292e+18,8.841629150390625,-1.5846314430236816,1.8419556617736816,-3.275205135345459,-0.0049268435686826,-0.3396859169006347,-0.2877542972564697
1.7726343740086157e+18,8.88161572265625,0.760252833366394,0.2953634262084961,-0.5937982797622681,-0.0411458052694797,0.181494265794754,-0.0720384493470192
1.7726343740286088e+18,8.90160888671875,-0.3847500085830688,-0.9798860549926758,-0.7854013442993164,0.1351553052663803,0.7415565848350525,0.5575323104858398
1.772634374048602e+18,8.92160205078125,-0.6795554161071777,-0.9081830978393556,0.512876033782959,0.7958850264549255,0.605202853679657,1.1125346422195437
1.7726343740685952e+18,8.94159521484375,0.9401241540908812,-0.3995037078857422,2.4723567962646484,0.8395608067512512,0.1439437270164489,0.6957502365112305
1.7726343740885883e+18,8.96158837890625,2.876249313354492,-2.8524866104125977,2.963632822036743,0.3697795867919922,-0.1370195150375366,-0.0403468571603298
1.7726343741085821e+18,8.98158203125,1.8223141431808472,-6.4857988357543945,1.7302906513214111,0.1290300488471985,-0.0073236869648098,-0.502138614654541
1.772634374128576e+18,9.001575927734375,0.4180024862289428,-5.919920921325684,-0.702049732208252,0.1862879544496536,0.3631217181682586,-0.5612607002258301
1.7726343741485699e+18,9.02156982421875,0.5266519784927368,-3.359368324279785,-1.1610418558120728,0.3335606455802917,0.4083954095840454,-0.2395511418581009
1.7726343741685637e+18,9.041563720703126,0.5894430875778198,-1.6438817977905271,-0.1357231140136718,0.3764374852180481,0.4917522668838501,0.1897500604391098
1.7726343741885576e+18,9.0615576171875,0.7788684368133545,-0.0999794006347656,0.5357110500335693,0.2177132368087768,0.5830986499786377,0.2097237557172775
1.7726343742085514e+18,9.081551513671876,1.3208131790161133,0.7389068603515625,0.6186278462409973,-0.0438089631497859,0.6787060499191284,-0.0533963330090045
1.7726343742285453e+18,9.101545166015624,1.153064846992493,0.7391185760498047,0.3597337007522583,-0.2573943138122558,0.7578018307685852,-0.4368911981582641
1.7726343742485391e+18,9.1215390625,0.141020655632019,0.3932065963745117,0.2161418199539184,-0.3777690827846527,0.9130640029907228,-0.7578018307685852
1.772634374268533e+18,9.141532958984374,-0.5883455276489258,0.4241533279418945,0.4266997575759887,-0.2954774796962738,0.8981503248214722,-0.7993471026420593
1.7726343742885268e+18,9.16152685546875,-0.8341224789619446,1.9771370887756348,0.6372748613357544,-0.2091911286115646,0.9940240383148192,-0.4171838164329529
1.7726343743085207e+18,9.181520751953125,-1.249112248420715,3.9805502891540527,1.0376813411712646,-0.0776310786604881,0.9615334868431092,-0.1772332191467285
1.7726343743285146e+18,9.2015146484375,-1.143383264541626,4.77003288269043,1.6894254684448242,-0.1039963513612747,0.6928207874298096,-0.4757733345031738
1.7726343743485084e+18,9.22150830078125,-0.4376492500305176,4.251936912536621,1.4588518142700195,-0.1806953251361847,0.4376901388168335,-1.0147966146469116
1.7726343743685023e+18,9.241502197265625,-0.0333820581436157,3.326685905456543,-0.0799530148506164,-0.1157142519950866,0.3924164474010467,-1.1106703281402588
1.7726343743884961e+18,9.26149609375,0.4041935205459595,2.2855653762817383,-1.8383851051330569,0.0547279119491577,0.4656533300876617,-0.7775092124938965
1.77263437440849e+18,9.281489990234377,0.3508249521255493,0.7648839950561523,-2.3809425830841064,0.1711079478263855,0.4342280328273773,-0.445679634809494
1.7726343744284836e+18,9.301483642578123,0.9309862852096558,-0.8153724670410156,-0.9325858950614928,0.2038648128509521,0.3673827648162842,-0.3990743458271026
1.7726343744484774e+18,9.3214775390625,0.8029391765594482,-1.7825889587402344,2.040812969207764,0.1785648018121719,0.3553985357284546,-0.4195806682109833
1.7726343744684713e+18,9.34147119140625,-0.3636956214904785,-1.563673973083496,1.9922996759414675,0.2249037623405456,0.3591269552707672,-0.4419512152671814
1.7726343744884652e+18,9.361465087890624,-0.4263243675231933,-0.3128995895385742,-0.5145553946495056,0.1729721575975418,0.3628553748130798,-0.3021353781223297
1.772634374508459e+18,9.381458984375,3.142339944839477,0.6798095703125,-2.595541000366211,0.1023984551429748,0.2115879654884338,-0.0486026480793952
1.7726343745284529e+18,9.401452880859376,4.293935775756836,-4.47251033782959,-1.0844563245773315,-0.1527321636676788,0.1527321636676788,0.1772332191467285
1.7726343745484467e+18,9.42144677734375,-1.3458566665649414,-7.454167366027832,2.5690550804138184,-0.5514070391654968,0.4001396000385284,0.4009385704994201
1.7726343745684406e+18,9.441440673828126,-1.4378845691680908,-0.8203525543212891,3.7426021099090576,-0.496013343334198,0.1245026737451553,0.8249134421348572
1.7726343745884344e+18,9.461434326171876,-0.4152531623840332,4.890489101409912,2.7223849296569824,-0.4006722569465637,-0.4550006687641144,1.2217241525650024
1.772634374608428e+18,9.481427978515624,-1.1595864295959473,5.051956653594971,1.6287450790405271,-0.3026680052280426,-0.4171838164329529,1.3277177810668943
1.772634374628422e+18,9.501421875,-1.6718225479125977,-1.177556037902832,1.310331106185913,-0.2451437711715698,-0.1194426715373992,1.3016188144683838
1.7726343746484155e+18,9.52141552734375,-2.55411148071289,-6.991239547729492,0.8738431930541992,-0.0043942118063569,-0.0802942365407943,1.214799880981445
1.772634374668409e+18,9.5414091796875,-1.3960505723953247,-4.082894325256348,1.780864715576172,0.0555268600583076,-0.4667185842990875,0.7418228983879089
1.7726343746884027e+18,9.561402587890624,-0.7950938940048218,2.455622673034668,3.001062631607056,0.0179763212800025,-0.8318376541137695,0.2123869210481643
1.7726343747083965e+18,9.581396484375,-0.900490403175354,3.2955193519592285,2.5988070964813232,0.0078563187271356,-1.027846097946167,0.0190415848046541
1.7726343747283901e+18,9.60139013671875,-0.4315485954284668,-0.7511682510375977,0.0657958388328552,-0.0163784269243478,-1.1074745655059814,0.0536626502871513
1.7726343747483837e+18,9.6213837890625,-0.5525729656219482,-5.272043228149414,-2.3110132217407227,0.0454068593680858,-1.1783145666122437,0.2842921912670135
1.7726343747683773e+18,9.64137744140625,-1.3952692747116089,-3.685189247131348,-3.48830795288086,0.205462709069252,-1.2329093217849731,0.5279712080955505
1.7726343747883712e+18,9.66137109375,-0.4774512052536011,1.3424568176269531,-1.821085214614868,0.2866890430450439,-1.220925211906433,0.5852291584014893
1.7726343748083648e+18,9.68136474609375,-0.0816894769668579,2.901797294616699,1.088064193725586,0.2675142884254455,-1.0859030485153198,0.3902859091758728
1.7726343748283584e+18,9.7013583984375,-0.7915263175964355,2.1521787643432617,2.360652208328247,0.2179795503616333,-0.9066724181175232,0.1045289859175682
1.772634374848352e+18,9.72135205078125,-1.088042974472046,1.324167251586914,1.145609974861145,0.1532647907733917,-0.8853671550750732,-0.0403468571603298
1.7726343748683459e+18,9.741345947265623,-0.7557721138000488,0.6806201934814453,-0.7544511556625366,0.003328948514536,-0.8318376541137695,-0.0656468644738197
1.7726343748883395e+18,9.76133935546875,-1.000201940536499,0.7224740982055664,-1.7914068698883057,-0.2195774465799331,-0.683233380317688,-0.2004027068614959
1.772634374908333e+18,9.7813330078125,-0.9398776888847352,1.7736220359802246,-1.6929919719696045,-0.4251733124256134,-0.6187849640846252,-0.4131890833377838
1.772634374928327e+18,9.801326904296875,-0.8068903684616089,2.7726917266845703,-1.5953670740127563,-0.4760396480560303,-0.5183838605880737,-0.5024049282073975
1.7726343749483205e+18,9.821320556640623,-0.9147495031356812,2.8529129028320312,-1.5113909244537354,-0.3729753792285919,-0.4882901608943939,-0.3873564600944519
1.772634374968314e+18,9.841314208984375,-1.1412324905395508,2.0896525382995605,-0.8282769322395325,-0.3308974802494049,-0.5253080725669861,-0.1266331970691681
1.7726343749883077e+18,9.8613076171875,-0.741560697555542,0.8863506317138672,-0.6730313301086426,-0.2310290336608886,-0.4978775382041931,0.0984037145972251
1.7726343750083013e+18,9.88130126953125,-0.4853092432022095,0.1207265853881836,-1.2082548141479492,-0.0525973848998546,-0.4952143728733063,-0.0579237043857574
1.7726343750282952e+18,9.901295166015624,-1.067082166671753,0.8256797790527344,-1.92725932598114,-0.0336889587342739,-0.4073301255702972,-0.1881521642208099
1.7726343750482888e+18,9.921288818359375,-1.5866215229034424,1.8907480239868164,-1.8804724216461184,-0.094142660498619,0.0898816064000129,0.0549942292273044
1.7726343750682824e+18,9.941282470703126,-0.52265465259552,2.0798511505126958,-0.081631988286972,0.3207774758338928,0.4464785754680633,0.5554017424583435
1.772634375088276e+18,9.96127587890625,-1.3156180381774902,2.076469898223877,0.8357639312744141,0.9463534951210022,0.2496711313724517,0.9921598434448242
1.7726343751082698e+18,9.981269775390626,0.044405460357666,0.4298734664916992,-0.9797170162200928,0.5988112688064575,-0.0531300194561481,0.6544712781906128
1.7726343751282637e+18,10.001263671875,1.2248761653900146,-2.2816944122314453,-0.4235349297523498,0.1367532014846801,-0.3340932726860046,0.2970753610134125
1.7726343751482575e+18,10.021257568359376,0.995703101158142,-4.265037536621094,2.738102436065674,0.1476721614599228,-0.2177132368087768,0.0645816028118133
1.7726343751682511e+18,10.041251220703124,1.572002410888672,-5.158705711364746,4.095958709716797,0.2270342856645584,-0.1860216408967971,-0.1202416196465492
1.772634375188245e+18,10.061244873046874,1.817747950553894,-4.060164451599121,3.0860018730163574,0.3932153880596161,-0.2038648128509521,-0.3692469596862793
1.7726343752082386e+18,10.081238525390624,0.9066604375839232,-1.977472305297852,0.2461854219436645,0.3340932726860046,-0.1021321415901184,-0.2928143143653869
1.7726343752282324e+18,10.101232421875,1.2486242055892944,-1.5318803787231443,-1.6522548198699951,0.2243711352348327,0.1013331934809684,-0.0765658169984817
1.7726343752482263e+18,10.121226318359374,1.322927951812744,-1.5817985534667969,-1.8235998153686523,0.1154479309916496,0.5143890976905823,0.0129163200035691
1.77263437526822e+18,10.141219970703125,1.1287540197372437,-1.8983325958251955,-1.5913057327270508,-0.1082574054598808,0.7423555254936218,-0.035020537674427
1.7726343752882138e+18,10.1612138671875,1.129249095916748,-2.047327041625977,-1.1330019235610962,-0.209457442164421,0.888829231262207,-0.1516668945550918
1.7726343753082076e+18,10.18120751953125,0.5498930215835571,-1.1381940841674805,-0.398897647857666,-0.225702702999115,0.75034499168396,-0.3306311666965484
1.7726343753282012e+18,10.201201171875,0.1777585744857788,0.0082178115844726,0.6320414543151855,-0.1836248040199279,0.6334323287010193,-0.2230395525693893
1.772634375348195e+18,10.221195068359377,0.0246239900588989,1.102802276611328,1.437500238418579,-0.02490053512156,0.4616585671901703,-0.0925447717308998
1.772634375368189e+18,10.24118896484375,-0.6071656942367554,2.68659782409668,1.6832799911499023,-0.0270310621708631,0.1684447973966598,-0.4044006764888763
1.7726343753881828e+18,10.261182861328123,-1.1013329029083252,3.765028476715088,1.4659990072250366,-0.1519332081079483,-0.0051931599155068,-0.9301081895828248
1.7726343754081764e+18,10.28117626953125,-0.5660033226013184,4.038951873779297,1.2277259826660156,-0.1599226891994476,0.050999492406845,-1.107740879058838
1.7726343754281702e+18,10.301170166015623,-0.6274291276931763,3.799813270568848,1.005022048950195,-0.0158457942306995,0.230762705206871,-0.8645945191383362
1.772634375448164e+18,10.3211640625,-0.609481692314148,3.4914708137512207,0.1034172773361206,0.0355531685054302,0.3277016878128052,-0.531965970993042
1.7726343754681577e+18,10.34115771484375,0.2244688272476196,2.7620816230773926,-1.3317675590515137,0.101066879928112,0.336490124464035,-0.3777690827846527
1.7726343754881516e+18,10.361151611328124,1.0673202276229858,1.9959311485290527,-2.1787266731262207,0.176966905593872,0.3394196033477783,-0.2808300852775574
1.7726343755081452e+18,10.381145263671876,1.680238127708435,1.408524513244629,-1.6365299224853516,0.161254271864891,0.3522027432918548,-0.154063731431961
1.772634375528139e+18,10.401138916015626,1.3421136140823364,0.6384906768798828,0.0009163618087768,0.1013331934809684,0.3463438153266907,-0.1210405677556991
1.7726343755481329e+18,10.4211328125,1.0939348936080933,-0.1952838897705078,0.8151347041130066,0.1253016293048858,0.3346258997917175,-0.1404816210269928
1.7726343755681267e+18,10.441126708984376,0.3450337648391723,-0.3600215911865234,0.1982022523880005,0.133823737502098,0.2398174554109573,-0.1063931956887245
1.7726343755881203e+18,10.461120361328126,0.3944592475891113,0.3219966888427734,-0.9009512662887572,0.0728373900055885,0.016911057755351,-0.0331563279032707
1.7726343756081142e+18,10.4811142578125,2.9445152282714844,0.7869024276733398,-1.668126344680786,-0.1921469122171402,-0.1418132036924362,0.0315584316849708
1.772634375628108e+18,10.50110791015625,3.5999884605407715,-1.289809226989746,-0.6274148225784302,-0.4810996353626251,-0.0904142409563064,0.1812279522418975
1.772634375648102e+18,10.521101806640624,0.6158624887466431,-5.970887184143066,2.163100004196167,-0.6480796933174133,-0.2225069254636764,0.611328125
1.7726343756680957e+18,10.541095703125,-1.4554356336593628,-7.211536407470703,3.6104736328125,-0.4645880460739136,-0.6030722856521606,1.1333072185516355
1.7726343756880896e+18,10.561089599609376,-3.040398120880127,-3.207316398620605,4.570193290710449,-0.1029310896992683,-0.5279712080955505,1.427053689956665
1.7726343757080832e+18,10.581083251953125,-3.7517552375793457,1.826019287109375,4.054437637329102,0.0581900216639041,-0.1849563866853714,1.3189294338226318
1.772634375728077e+18,10.6010771484375,-1.4068632125854492,3.9424586296081534,3.474307060241699,0.0027963167522102,0.1450089961290359,1.018791437149048
1.772634375748071e+18,10.62107080078125,0.1742116212844848,1.229783058166504,2.713813304901123,0.0121173728257417,0.067777395248413,0.489888072013855
1.7726343757680648e+18,10.641064697265625,-2.564795017242432,-5.161466598510742,1.617053508758545,0.067777395248413,-0.0765658169984817,0.0869521349668502
1.7726343757880586e+18,10.66105859375,-2.086502313613892,-6.5291852951049805,0.9412841200828552,0.0427436977624893,-0.1862879544496536,0.0970721393823623
1.7726343758080525e+18,10.681052490234377,-1.1753382682800293,-2.2482919692993164,0.7102621793746948,-0.0225036926567554,-0.4834964871406555,0.2757700979709625
1.7726343758280463e+18,10.70104638671875,-0.5070254802703857,-0.3191251754760742,0.9581969380378724,0.0006657897029072,-0.762595534324646,0.4073301255702972
1.77263437584804e+18,10.7210400390625,-0.5257703065872192,-0.8763666152954102,0.5923318266868591,0.0549942292273044,-0.9716535210609436,0.4587291181087494
1.7726343758680338e+18,10.74103369140625,-0.5113146305084229,-0.4879064559936523,-0.112455129623413,-0.0067910552024841,-1.134106159210205,0.3926827609539032
1.7726343758880276e+18,10.761027587890624,-0.3816055059432983,0.3409500122070312,0.1141300201416015,-0.0419447496533393,-0.9724524617195128,0.1830921620130539
1.7726343759080215e+18,10.781021484375,-0.3040175437927246,0.8839597702026367,0.4938371777534485,-0.0081226341426372,-0.6872281432151794,-0.008655265904963
1.7726343759280154e+18,10.801015380859376,-0.5181674957275391,1.1459627151489258,0.3786951303482055,0.00093210558407,-0.4741754233837127,-0.0360858030617237
1.772634375948009e+18,10.821009033203126,-0.6736786961555481,1.3933439254760742,-0.1530487537384033,-0.0829573944211006,-0.3202448487281799,0.013715268112719
1.7726343759680028e+18,10.8410029296875,-0.8348603844642639,1.923133850097656,-0.8648334741592407,-0.2139848172664642,-0.2733732461929321,0.0110521093010902
1.7726343759879967e+18,10.86099658203125,-0.9685686230659484,2.639451026916504,-1.590106964111328,-0.3913511931896209,-0.257127970457077,-0.0800279229879379
1.7726343760079905e+18,10.880990478515624,-0.7805209159851074,2.6064276695251465,-1.5558867454528809,-0.5202480554580688,-0.2233058661222458,-0.1729721575975418
1.7726343760279844e+18,10.900984375,-0.3706865310668945,1.9004502296447756,-1.2700423002243042,-0.5026712417602539,-0.21505007147789,-0.1892174333333969
1.7726343760479782e+18,10.920978271484374,-0.3970812559127807,0.9367561340332032,-1.168338656425476,-0.504535436630249,-0.3561974763870239,-0.110920563340187
1.772634376067972e+18,10.94097216796875,-1.076542615890503,-0.3208112716674804,-1.0341136455535889,-0.4675175249576568,-0.5676522850990295,-0.0584563352167606
1.7726343760879657e+18,10.960965576171876,-1.2582725286483765,-1.6755752563476562,-1.223697066307068,-0.3652522265911102,-0.6006754636764526,-0.1631184816360473
1.7726343761079596e+18,10.98095947265625,-1.0282986164093018,-1.4564828872680664,-2.260696649551392,-0.1956090182065963,-0.363920658826828,-0.254731148481369
1.7726343761279534e+18,11.000953369140625,-0.5390908718109131,0.2991743087768554,-3.422820806503296,-0.1330247819423675,-0.1716405898332595,-0.1346226781606674
1.7726343761479473e+18,11.020947265625,-0.066369891166687,1.2134637832641602,-3.1564738750457764,-0.1506016254425048,0.0470047518610954,0.095207929611206
1.772634376167941e+18,11.040941162109377,0.4241880178451538,0.6915969848632812,-1.6188591718673706,0.1846900582313537,0.3383543193340301,0.2363553494215011
1.772634376187935e+18,11.06093505859375,0.898188591003418,-0.6688871383666992,0.1711122393608093,0.5135901570320129,0.3367564380168915,0.3420827388763428
1.7726343762079286e+18,11.080928466796877,-1.3721060752868652,-1.7813472747802734,0.7022100687026978,0.5402217507362366,0.0832237154245376,0.084288977086544
1.7726343762279224e+18,11.10092236328125,-0.6064624786376953,-1.7126617431640625,0.0750431418418884,0.4299669861793518,-0.2371542900800705,-0.2579269409179687
1.7726343762479163e+18,11.120916259765623,-0.2823071479797363,-1.283559799194336,0.3613096475601196,0.5101280808448792,-0.1290300488471985,-0.2624543011188507
1.7726343762679101e+18,11.14091015625,-0.3689231276512146,-0.8016090393066406,1.9950302839279173,0.4653870165348053,0.2312953472137451,0.0749679207801818
1.7726343762879037e+18,11.16090380859375,1.8111786842346191,0.447488784790039,3.520063638687134,0.3162501156330108,0.4051996171474457,0.2781669497489929
1.7726343763078976e+18,11.180897705078126,3.554368019104004,0.7837915420532227,3.994102954864502,0.4813659489154815,0.4712459444999695,0.1388837248086929
1.7726343763278915e+18,11.200891357421876,2.5274147987365723,-1.2564754486083984,2.866405487060547,0.1410142630338668,0.5846965312957764,-0.2347574532032013
1.7726343763478853e+18,11.22088525390625,1.7571300268173218,-3.732392311096192,0.2451858520507812,-0.1812279522418975,0.6970818042755127,-0.4997417628765106
1.7726343763678792e+18,11.240879150390626,1.8883541822433472,-4.482122421264648,-1.6920475959777832,-0.1324921548366546,0.8757797479629517,-0.380698561668396
1.7726343763878728e+18,11.260872802734376,1.4212359189987185,-3.0189104080200195,-1.8716729879379272,-0.0874847695231437,0.96632719039917,-0.1511342674493789
1.7726343764078666e+18,11.28086669921875,0.0846883058547973,0.4082345962524414,-1.255864500999451,-0.1335574090480804,0.9732514023780824,-0.0747016072273254
1.7726343764278605e+18,11.300860595703124,-0.1141715049743652,2.2813401222229004,0.1232830286026001,-0.1023984551429748,1.0539450645446775,-0.079228974878788
1.7726343764478543e+18,11.320854248046874,-0.2374770641326904,2.2213196754455566,1.0594482421875,-0.0635163411498069,1.0163946151733398,-0.2275669276714325
1.7726343764678482e+18,11.34084814453125,-0.0522123575210571,1.5706043243408203,0.8250617980957031,-0.0446079112589359,0.8629966378211975,-0.5506080985069275
1.772634376487842e+18,11.360842041015625,-0.0031541585922241,0.599945068359375,0.8000059127807617,-0.0262321140617132,0.7807050347328186,-0.8683229088783264
1.7726343765078356e+18,11.380835693359376,-0.5013344287872314,0.9345884323120116,0.6453250646591187,0.0038615802768617,0.7660576105117798,-0.986567199230194
1.7726343765278295e+18,11.40082958984375,-0.4784356355667114,2.3765311241149902,0.6570261716842651,0.010785792954266,0.7514102458953857,-0.888829231262207
1.7726343765478234e+18,11.4208232421875,-0.537371039390564,3.187063694000244,0.8831872344017029,0.0070573706179857,0.6885597109794617,-0.7146586775779724
1.7726343765678172e+18,11.440817138671877,-0.5089991092681885,2.8858275413513184,0.3040556907653808,0.043010015040636,0.6068007349967957,-0.6020070314407349
1.7726343765878108e+18,11.460810791015623,-0.0718758106231689,1.7865138053894043,-0.997664511203766,0.1229047775268554,0.5652554631233215,-0.5122585892677307
1.7726343766078034e+18,11.480803466796877,0.2117449045181274,1.1032123565673828,-2.706582546234131,0.1966742724180221,0.5580649375915527,-0.3551322221755981
1.7726343766277957e+18,11.500795654296876,0.6864396333694458,1.0886850357055664,-3.2767586708068848,0.2275669276714325,0.5982786417007446,-0.1977395415306091
1.7726343766477883e+18,11.520788330078124,1.1981490850448608,1.307591438293457,-1.770911455154419,0.2304963916540146,0.68083655834198,-0.100001610815525
1.7726343766677809e+18,11.54078076171875,1.1670217514038086,0.9490718841552734,0.5642491579055786,0.1588574200868606,0.7077344655990601,-0.0264984294772148
1.7726343766877732e+18,11.560773193359376,0.6561537981033325,-0.3359384536743164,2.9045512676239014,0.0568584389984607,0.5178512334823608,0.0344879068434238
1.7726343767077658e+18,11.580765869140626,0.1653060913085937,-1.7389020919799805,2.715017795562744,-0.094941608607769,0.1322258412837982,0.010785792954266
1.772634376727758e+18,11.600758056640624,0.19320809841156,-1.3729257583618164,0.8623343110084534,-0.271509051322937,-0.1082574054598808,-0.0882837176322937
1.7726343767477507e+18,11.620750732421875,1.396587610244751,0.4727993011474609,-0.7336653470993042,-0.1980058550834655,-0.2195774465799331,-0.0214384291321039
1.7726343767677432e+18,11.6407431640625,3.423095703125,0.0960330963134765,-1.1897608041763306,-0.4153196215629577,-0.2203763872385025,0.176966905593872
1.7726343767877356e+18,11.660735595703123,1.555694580078125,-4.639834403991699,1.0262765884399414,-0.4299669861793518,-0.210522711277008,0.4491417407989502
1.772634376807728e+18,11.68072802734375,0.1479278802871704,-6.14756965637207,2.9059953689575195,-0.3359574973583221,-0.248605877161026,0.7048049569129944
1.7726343768277207e+18,11.700720703125,-1.038851022720337,-1.1317777633666992,2.5273590087890625,-0.280031144618988,-0.0922784507274627,0.8243808150291443
1.772634376847713e+18,11.720713134765624,0.3201417922973633,2.64400577545166,2.20454216003418,-0.1830921620130539,0.2435458749532699,0.9008134603500366
1.7726343768677056e+18,11.74070556640625,0.854218602180481,0.901752471923828,2.20224404335022,0.0339552760124206,0.3237069547176361,0.8938892483711243
1.772634376887698e+18,11.760697998046876,-1.6882072687149048,-3.1190414428710938,1.407069206237793,0.1681784838438034,0.1173121482133865,0.5460807085037231
1.7726343769076905e+18,11.7806904296875,-2.5720982551574707,-3.295254707336426,1.750546932220459,0.1846900582313537,-0.1628521680831909,0.0965395048260688
1.772634376927683e+18,11.80068310546875,-1.9207407236099243,0.0995969772338867,3.075770378112793,0.1410142630338668,-0.5426186323165894,-0.0549942292273044
1.7726343769476754e+18,11.82067529296875,-0.6426789164543152,3.12746000289917,2.6643176078796387,0.1617868989706039,-1.0065408945083618,0.0147805316373705
1.772634376967668e+18,11.84066796875,-0.5229862928390503,3.4611587524414062,1.5077670812606812,0.204397439956665,-1.1564767360687256,0.2062616497278213
1.7726343769876603e+18,11.860660400390625,-0.7312471866607666,0.26177978515625,0.563836932182312,0.2206427007913589,-1.117061972618103,0.3253048360347748
1.7726343770076529e+18,11.88065283203125,-1.264149188995361,-3.775599479675293,-0.1107386648654937,0.1788311153650283,-1.008405089378357,0.2643185257911682
1.7726343770276454e+18,11.9006455078125,-1.0268079042434692,-4.300268173217773,-0.5818746089935303,0.161254271864891,-0.8462187051773071,0.1521995216608047
1.7726343770476378e+18,11.9206376953125,-0.4194920063018799,-0.9972915649414062,0.0959088206291198,0.1282310932874679,-0.7428881525993347,-0.0233026389032602
1.7726343770676303e+18,11.94063037109375,-0.4835138320922851,1.706303596496582,0.8556711077690125,0.0470047518610954,-0.5905554890632629,-0.1154479309916496
1.7726343770876227e+18,11.96062255859375,-0.768362820148468,2.256814479827881,1.4675136804580688,-0.0238352715969085,-0.4613922536373138,-0.1186437234282493
1.7726343771076157e+18,11.98061572265625,-0.8937088251113892,1.6521015167236328,1.4315868616104126,-0.1460742652416229,-0.3553985357284546,-0.1782984882593155
1.7726343771276086e+18,12.000608642578126,-0.9620028734207152,0.5248985290527344,0.6530946493148804,-0.3213101029396057,-0.2552637755870819,-0.2392848134040832
1.7726343771476012e+18,12.02060107421875,-0.9275846481323242,-0.5353908538818359,-0.1192864701151847,-0.4683164656162262,-0.1910816431045532,-0.2518016695976257
1.7726343771675942e+18,12.04059423828125,-1.261254906654358,-0.3315391540527344,-0.6125346422195435,-0.5269059538841248,-0.0794952884316444,-0.1343563646078109
1.7726343771875868e+18,12.0605869140625,-0.9335641860961914,0.4818124771118164,-0.5768319964408875,-0.5242428183555603,-0.0880173966288566,0.0888163447380065
1.77263437720758e+18,12.080579833984377,-0.8194482326507568,1.0514049530029297,-0.3569681942462921,-0.4656533300876617,-0.2440785020589828,0.2523342967033386
1.7726343772275727e+18,12.10057275390625,-0.339614987373352,1.0196552276611328,-0.6714289784431458,-0.3615238070487976,-0.3548659086227417,0.2589921951293945
1.7726343772475653e+18,12.1205654296875,0.6893012523651123,0.2448205947875976,-0.3505042493343353,-0.2315616607666015,-0.3740406632423401,0.0304931681603193
1.7726343772675584e+18,12.140558349609377,0.7526352405548096,-0.1323404312133789,0.2963565289974212,-0.176966905593872,-0.2166479676961898,-0.1423458456993103
1.7726343772875512e+18,12.16055126953125,-0.3396284580230713,-0.0381050109863281,0.3000239729881286,-0.170841634273529,0.2067942768335342,-0.1005342453718185
1.772634377307544e+18,12.1805439453125,-0.2790589332580566,-0.8748540878295898,0.3671125471591949,-0.0163784269243478,0.6845649480819702,0.0669784471392631
1.772634377327537e+18,12.200536865234374,-0.2886996269226074,-1.6198463439941406,0.5991339683532715,0.4158522486686706,0.7130607962608337,0.2885532677173614
1.7726343773475295e+18,12.220529541015624,-0.4920386075973511,-1.0961999893188477,0.516423761844635,0.4004059135913849,0.3620564341545105,0.2243711352348327
1.7726343773675226e+18,12.2405224609375,-0.3804668188095093,0.3215007781982422,0.4918047785758972,0.2229063957929611,0.0031957905739545,-0.3277016878128052
1.7726343773875154e+18,12.260515380859376,-0.3146003484725952,1.1414928436279297,1.0370910167694092,-0.0559263341128826,-0.0053263176232576,-0.5109270215034485
1.7726343774075082e+18,12.28050830078125,-0.0882831811904907,0.8955574035644531,1.6682735681533811,0.0330231711268425,0.1720400601625442,-0.336490124464035
1.772634377427501e+18,12.3005009765625,0.0446054935455322,0.3527765274047851,1.6123052835464478,0.4338285624980926,0.0058589493855834,-0.1596563756465912
1.772634377447494e+18,12.320493896484376,0.0788638591766357,0.0157709121704101,1.110796332359314,0.4647212028503418,-0.1086568832397461,-0.1966742724180221
1.7726343774674867e+18,12.34048681640625,0.1916612386703491,0.0029792785644531,0.4481796622276306,0.2375537604093551,-0.0854873955249786,-0.3247722089290619
1.7726343774874796e+18,12.3604794921875,0.4674032926559448,-0.0391578674316406,0.013986587524414,-0.0146473739296197,0.054328441619873,-0.4099932909011841
1.7726343775074724e+18,12.380472412109375,0.6153057813644409,-0.1826648712158203,0.0912543535232544,-0.0591221265494823,0.2362221926450729,-0.2813627421855926
1.7726343775274652e+18,12.40046533203125,0.5298296213150024,-0.1874818801879882,0.3840888142585754,-0.0591221265494823,0.3089264333248138,-0.1125184595584869
1.772634377547458e+18,12.4204580078125,0.3528618812561035,-0.0869560241699218,0.5901203155517578,-0.0609863363206386,0.3704454004764557,-0.1625858396291732
1.772634377567451e+18,12.440450927734377,0.2056330442428589,0.0464134216308593,0.7058585286140442,-0.1275653094053268,0.432230681180954,-0.2824279963970184
1.7726343775874437e+18,12.460443603515625,0.0997298955917358,0.1560173034667968,0.6988334059715271,-0.070840023458004,0.3861580193042755,-0.2326269149780273
1.7726343776074376e+18,12.4804375,0.1156008243560791,0.1354799270629882,0.6506462693214417,0.0969389826059341,0.2482064068317413,-0.1964079588651657
1.7726343776274314e+18,12.500431396484377,0.2074800729751587,0.076425552368164,0.6732295155525208,0.1339568942785263,0.0916126668453216,-0.2595248222351074
1.7726343776474253e+18,12.52042529296875,0.320590615272522,0.1509675979614257,0.5055059790611267,0.05139896646142,-0.0564589649438858,-0.4089280366897583
1.7726343776674191e+18,12.540419189453123,0.2852426767349243,0.2202587127685547,0.311020016670227,0.0125168468803167,-0.0444747507572174,-0.5074648857116699
1.772634377687413e+18,12.5604130859375,0.3655308485031128,0.2130575180053711,0.2360983490943908,0.0737695023417472,0.1296958327293396,-0.4326301515102386
1.7726343777074068e+18,12.58040673828125,0.4118629693984985,0.2441740036010742,0.3497100472450256,0.1768337488174438,0.3347590565681457,-0.2171805948019027
1.7726343777274007e+18,12.600400634765624,0.282766580581665,0.2132329940795898,0.4669592976570129,0.2332927137613296,0.5065327882766724,0.0504668578505516
1.7726343777473946e+18,12.62039453125,0.2593258619308471,0.0768680572509765,0.4628427028656006,0.277234822511673,0.6207823157310486,0.2363553494215011
1.7726343777673884e+18,12.640388427734376,0.1369962692260742,0.0033073425292968,0.4147722125053406,0.2229063957929611,0.5651223063468933,0.3269027471542358
1.7726343777873823e+18,12.66038232421875,0.0682770013809204,-0.0753641128540039,0.4747033715248108,0.1483379453420639,0.3414169549942016,0.3772364556789398
1.7726343778073764e+18,12.68037646484375,0.1382430791854858,-0.1688833236694336,0.3592284321784973,0.0569915995001792,-0.0141147412359714,0.3330280184745788
1.7726343778273702e+18,12.700370361328124,0.1589541435241699,-0.3195228576660156,0.3224534392356872,0.0402136966586113,-0.3129211664199829,0.2411490231752395
1.772634377847364e+18,12.720364013671874,0.0472726821899414,-0.3311719894409179,0.3378609418869018,-0.0284957997500896,-0.3904190957546234,0.2483395636081695
1.772634377867358e+18,12.74035791015625,0.0862575769424438,0.0640554428100586,0.3366617560386657,-0.0599210746586322,-0.4151864647865295,0.2448774576187133
1.7726343778873518e+18,12.760351806640625,0.1889890432357788,0.5074272155761719,0.3848613500595093,-0.070041075348854,-0.3973433077335357,0.1665805876255035
1.7726343779073457e+18,12.780345703125,0.2046154737472534,0.4956016540527344,0.4572598934173584,-0.098536878824234,-0.3499390780925751,0.0683100223541259
1.7726343779273395e+18,12.800339599609377,0.1935772895812988,0.2543792724609375,0.4502963423728943,-0.0902810841798782,-0.2759032547473907,0.0280963256955146
1.7726343779473334e+18,12.82033349609375,0.1584244966506958,0.1325922012329101,0.4382143020629883,-0.0764326602220535,-0.1749695390462875,0.022770008072257
1.7726343779673272e+18,12.8403271484375,0.0311193466186523,0.1747522354125976,0.419072151184082,-0.0644484460353851,-0.1339568942785263,-0.0145142152905464
1.772634377987321e+18,12.860321044921877,-0.0361114740371704,0.0837154388427734,0.2878419756889343,-0.0521979108452796,-0.0711063370108604,-0.0262321140617132
1.772634378007315e+18,12.88031494140625,0.0197157859802246,-0.0449123382568359,0.1113201379776001,-0.0569915995001792,0.0114515833556652,0.008655265904963
1.7726343780273088e+18,12.900308837890623,0.1238287687301635,0.0175561904907226,-0.0177052617073059,-0.0697747617959976,0.0569915995001792,0.0768321305513382
1.7726343780473027e+18,12.920302734375,0.1003617048263549,0.1320810317993164,-0.0583378672599792,-0.0695084482431411,0.054328441619873,0.1242363601922988
1.7726343780672965e+18,12.940296630859375,0.1005803346633911,0.1991767883300781,0.0233568549156188,-0.0519315972924232,-0.0010652635246515,0.1245026737451553
1.7726343780872904e+18,12.960290283203124,0.0865446329116821,0.1945953369140625,0.0499967336654663,-0.0284957997500896,-0.0740358158946037,0.0770984441041946
1.7726343781072845e+18,12.980284423828126,0.0531761646270751,0.1277284622192382,-0.0195991396903991,-0.0034621064551174,-0.1113200411200523,0.0142478998750448
1.7726343781272783e+18,13.0002783203125,0.0835901498794555,0.1138114929199218,-0.0025654435157775,0.0157126374542713,-0.1129179298877716,-0.0206394810229539
1.7726343781472722e+18,13.020272216796876,-0.0108963251113891,0.0854377746582031,0.0557050704956054,0.0260989554226398,-0.0988031923770904,-0.0011984214652329
1.772634378167266e+18,13.04026611328125,-0.0727220773696899,-0.0094060897827148,0.0897432565689086,0.0356863290071487,-0.0756337121129036,0.0307594835758209
1.7726343781872602e+18,13.06026025390625,-0.0783677101135253,-0.0953845977783203,0.1123663187026977,0.0378168560564518,-0.0617852844297885,0.0363521166145801
1.772634378207254e+18,13.08025390625,-0.1313930749893188,-0.027937889099121,0.132956326007843,0.05139896646142,-0.0479368567466735,0.0472710691392421
1.7726343782272479e+18,13.100247802734376,-0.1067445278167724,0.1209220886230468,0.0169852972030639,0.0516652800142765,-0.0167779009789228,0.0659131780266761
1.772634378247242e+18,13.120241943359376,-0.0956840515136718,0.2080564498901367,-0.1261301040649414,0.0471379123628139,-0.0013315794058144,0.0608531795442104
1.7726343782672358e+18,13.14023583984375,-0.0898457765579223,0.2087526321411132,-0.1914381384849548,0.0521979108452796,0.0071905287913978,0.0424773842096328
1.7726343782872297e+18,13.160229736328125,-0.0747038125991821,0.1421833038330078,-0.259442389011383,0.046338964253664,0.025300009176135,0.0443415939807891
1.7726343783072236e+18,13.1802236328125,-0.0404201745986938,-0.0197925567626953,-0.2910439372062683,0.0474042259156703,0.0583231784403324,0.0525973848998546
1.7726343783272177e+18,13.2002177734375,-0.0481431484222412,-0.0528688430786132,-0.211445927619934,0.043409489095211,0.098536878824234,0.0648479163646698
1.7726343783472115e+18,13.22021142578125,-0.1029770374298095,0.0195875167846679,-0.1274065375328064,0.0474042259156703,0.1267663538455963,0.0398142226040363
1.7726343783672054e+18,13.240205322265624,-0.1335731744766235,0.0008611679077148,-0.0748249888420105,0.0692421272397041,0.1605884730815887,0.0185089539736509
1.7726343783871995e+18,13.260199462890624,-0.1131352186203002,-0.0659341812133789,-0.0036520361900329,0.0774979218840599,0.1842905879020691,-0.0014647373463958
1.7726343784071933e+18,13.280193359375,-0.1116231679916381,-0.0367212295532226,0.036429226398468,0.0692421272397041,0.2154495418071746,-0.0376836955547332
1.7726343784271872e+18,13.300187255859376,-0.1755579710006714,0.0978670120239257,0.1049626469612121,0.054328441619873,0.2189116477966308,-0.0584563352167606
1.772634378447181e+18,13.32018115234375,-0.1729679107666015,0.0989036560058593,0.0004985332489013,0.049268439412117,0.2258358597755432,-0.0019973691087216
1.7726343784671752e+18,13.340175048828126,-0.0764461755752563,-0.0003108978271484,-0.0040339231491088,0.0529968589544296,0.2567285001277923,0.0262321140617132
1.772634378487169e+18,13.3601689453125,-0.0719015598297119,0.0146856307983398,0.0414788722991943,0.0508663319051265,0.3046653568744659,0.0315584316849708
1.772634378507163e+18,13.380162841796874,-0.1623648405075073,0.0819053649902343,0.0092438459396362,0.0527305454015731,0.3406180143356323,-0.0043942118063569
1.772634378527157e+18,13.400156982421874,-0.0995880365371704,0.0778484344482421,-0.07825767993927,0.0378168560564518,0.3619232773780823,-0.0454068593680858
1.7726343785471508e+18,13.42015087890625,-0.0900661945343017,0.0598974227905273,-0.1211533546447753,0.0306263267993927,0.3874896168708801,-0.084288977086544
1.7726343785671447e+18,13.440144775390625,-0.1086024045944213,0.1028861999511718,-0.1344786286354065,0.0351536944508552,0.4151864647865295,-0.1015995070338249
1.7726343785871388e+18,13.460138916015625,-0.1079764366149902,0.0609121322631835,-0.1186383366584777,0.0306263267993927,0.4191811978816986,-0.0986700356006622
1.7726343786071334e+18,13.480133544921877,-0.1253669261932373,0.0616664886474609,-0.1753597855567932,0.0260989554226398,0.4085285663604736,-0.0850879251956939
1.7726343786271283e+18,13.50012841796875,-0.0865721702575683,0.1238832473754882,-0.1818873286247253,0.0255663245916366,0.4045338332653045,-0.0749679207801818
1.7726343786471232e+18,13.520123291015626,-0.0990495681762695,0.1099739074707031,-0.1240516901016235,0.0226368494331836,0.3771032989025116,-0.0824247673153877
1.7726343786671178e+18,13.540117919921874,-0.0833961963653564,0.0536069869995117,-0.1276406943798065,0.0229031667113304,0.3795001208782196,-0.0837563425302505
1.7726343786871127e+18,13.56011279296875,-0.0618736743927001,0.0877361297607421,-0.0925422012805938,0.0165115855634212,0.3752390742301941,-0.0808268710970878
1.7726343787071076e+18,13.580107666015625,-0.0790388584136962,0.1074333190917968,-0.0911679863929748,0.0213052704930305,0.3507380187511444,-0.0834900289773941
1.7726343787271022e+18,13.600102294921877,-0.0722862482070922,0.0456933975219726,-0.0901213586330413,0.0234357975423336,0.3443464338779449,-0.0869521349668502
1.772634378747097e+18,13.62009716796875,-0.0711123943328857,-0.0017929077148437,-0.1327119171619415,0.0300936941057443,0.3400853872299194,-0.0954742431640625
1.772634378767092e+18,13.640092041015626,-0.0840013027191162,-0.010986328125,-0.127803087234497,0.0268979035317897,0.3502053916454315,-0.1095889881253242
1.7726343787870868e+18,13.6600869140625,-0.1023904085159301,0.0564823150634765,-0.0954005718231201,0.0159789528697729,0.3363569676876068,-0.1178447753190994
1.7726343788070815e+18,13.68008154296875,-0.1163151264190673,0.099924087524414,-0.0669383406639099,0.013315794058144,0.304132729768753,-0.1055942475795745
1.7726343788270764e+18,13.700076416015625,-0.1199679374694824,0.062021255493164,-0.0571452975273132,0.0127831622958183,0.2687127292156219,-0.0914795026183128
1.7726343788470712e+18,13.7200712890625,-0.05287766456604,0.0096340179443359,-0.0231665074825286,0.013315794058144,0.2543316781520843,-0.0770984441041946
1.7726343788870607e+18,13.760060791015626,-0.1191074848175048,0.0580720901489257,-0.0528492033481597,0.0098536871373653,0.22849902510643,-0.0589889660477638
1.7726343789070556e+18,13.7800556640625,-0.0951440334320068,0.1253881454467773,-0.0725778043270111,0.0023968429304659,0.2026663869619369,-0.0491352789103984
1.7726343789270505e+18,13.800050537109374,-0.0805915594100952,0.1016407012939453,-0.1196287274360656,-0.0010652635246515,0.1826926916837692,-0.0416784361004829
1.77263437896704e+18,13.8400400390625,-0.06024169921875,0.0095634460449218,-0.0847812294960022,0.002130527049303,0.1752358525991439,-0.0336889587342739
1.772634378987035e+18,13.860034912109375,-0.0759646892547607,-0.0622854232788085,-0.1099577844142913,0.006657897029072,0.1720400601625442,-0.0376836955547332
1.7726343790070295e+18,13.880029541015626,-0.0782363414764404,-0.0520572662353515,-0.166484922170639,0.0029294746927917,0.1794968992471695,-0.0523310713469982
1.7726343790270244e+18,13.9000244140625,-0.0641233921051025,0.0303630828857421,-0.1413340270519256,-0.0029294746927917,0.1824263781309127,-0.0760331824421882
,,,,,0.0005326317623257,0.1842905879020691,-0.0821584463119506
,,,,,0.0069242129102349,0.1771000623703003,-0.0818921327590942
,,,,,0.013315794058144,0.1611211150884628,-0.0914795026183128
,,,,,0.0090547399595379,0.1483379453420639,-0.0946752950549125
,,,,,0.0063915811479091,0.1411474198102951,-0.0832237154245376
,,,,,0.0055926335044205,0.1265000402927398,-0.072571076452732
,,,,,0.0074568446725606,0.1070589870214462,-0.0643152818083763
,,,,,0.0007989476434886,0.0854873955249786,-0.0603205487132072
,,,,,-0.0031957905739545,0.0764326602220535,-0.0581900216639041
,,,,,-0.0007989476434886,0.0716389715671539,-0.0464721210300922
,,,,,-0.0034621064551174,0.0591221265494823,-0.0336889587342739
,,,,,-0.0071905287913978,0.049268439412117,-0.0286289565265178
,,,,,-0.0085221081972122,0.0407463312149047,-0.0254331659525632
,,,,,-0.0085221081972122,0.0276968516409397,-0.0246342197060585
,,,,,-0.0079894764348864,0.0175768472254276,-0.02490053512156
,,,,,-0.0031957905739545,0.0090547399595379,-0.0259657986462116
,,,,,-0.0039947382174432,-0.0058589493855834,-0.0264984294772148
,,,,,-0.0031957905739545,-0.0183757953345775,-0.0251668505370616
,,,,,-0.0015978952869772,-0.0255663245916366,-0.0222373753786087
,,,,,-0.0069242129102349,-0.0197073742747306,-0.0201068483293056
,,,,,-0.0015978952869772,-0.0226368494331836,-0.0190415848046541
,,,,,0.0,-0.0247673764824867,-0.022770008072257
,,,,,-0.0010652635246515,-0.0234357975423336,-0.0262321140617132
,,,,,0.0002663158811628,-0.0221042186021804,-0.0230363234877586
,,,,,-0.0013315794058144,-0.0245010610669851,-0.0166447423398494
,,,,,0.0234357975423336,-0.0351536944508552,-0.0217047445476055
,,,,,0.0002663158811628,-0.0450073853135108,-0.0241015870124101
,,,,,-0.0165115855634212,-0.0479368567466735,-0.0131826363503932
,,,,,-0.0266315881162881,-0.0503337010741233,-0.0161121115088462
