time,seconds_elapsed,accel_z,accel_y,accel_x,gyro_x,gyro_y,gyro_z
1772807959185809200,0.09280908203125,-1.2125666947573424,0.177294841492176,0.2145372518347576,0.2678454220294952,0.2153355181217193,0.9150143265724182
1772807959205862000,0.11286181640625,-0.8648883985966443,0.6339744143154472,0.4214934739559888,0.2878378331661224,0.4194463193416595,0.909470558166504
1772807959225910800,0.132910888671875,-0.4830810383409261,0.7896778209201991,0.6719046973243356,0.3848166167736053,0.5495457649230957,1.0027899742126465
1772807959245960700,0.152960693359375,-0.068232993748784,0.7114901271291076,1.0373960788775234,0.4772836565971374,0.5179321765899658,1.1180219650268557
1772807959266009900,0.173009765625,0.3103741091609001,0.4454144477695226,1.2749081462495029,0.4941701591014862,0.3382452130317688,1.1969600915908811
1772807959286058800,0.193058837890625,0.4501046514123678,0.3465614209599792,1.2987122156850992,0.3779351711273193,0.0449584908783435,1.2044904232025146
1772807959306107600,0.213107666015625,0.4698579841524362,0.2550480893887579,1.2142680918477475,0.2059387862682342,-0.099662184715271,1.1109733581542969
1772807959326156500,0.233156494140625,0.4626987600475549,0.3847944132424891,0.9760785636056214,0.1064070835709571,0.0023883373942226,0.9982205629348756
1772807959346205700,0.253205810546875,0.2401075637578964,0.2790790994480252,0.842170882288739,0.0821684077382087,0.1700828224420547,0.9615365266799928
1772807959366254800,0.2732548828125,-0.0912333455860614,0.2879343138158321,0.7344964703157544,0.1719453334808349,0.221929520368576,0.9513410925865172
1772807959386303700,0.2933037109375,0.0298515329062938,0.2804699692845344,0.5507269529167562,0.3051095306873321,0.2373725920915603,0.909128725528717
1772807959406352600,0.3133525390625,0.2055412772893905,0.1124082355618476,0.5406343057084828,0.312763899564743,0.2250591665506363,0.8180747628211975
1772807959426401500,0.333401611328125,0.3490332179009914,0.0317887845791876,0.5871808066975325,0.302218496799469,0.2449616193771362,0.7150395512580872
1772807959446450700,0.35345068359375,0.6016156478285789,0.0637495647244155,0.3847318694002926,0.2932824492454529,0.3684968054294586,0.6530088186264038
1772807959466499800,0.373499755859375,0.8428729661434888,-0.0543733952224254,0.4498410685727372,0.2418725788593292,0.4626936614513397,0.5712114572525024
1772807959486548700,0.393548828125,0.8268401152312755,-0.1384473705731332,0.6329126303028315,0.2006086558103561,0.4117889702320099,0.5015628337860107
1772807959506598700,0.4135986328125,0.9008587066441772,-0.1098836855202913,0.6714920248702168,0.1849407106637954,0.297245591878891,0.4988998174667358
1772807959526647800,0.433647705078125,0.9339227718561888,-0.0703596305139362,0.5597025057286024,0.0833492651581764,0.1600368022918701,0.5099346041679382
1772807959546696700,0.45369677734375,0.9608014264315368,-0.1548470089711248,0.4871326883519068,-0.0170417875051498,0.1444690376520156,0.4658030569553375
1772807959566745900,0.473745849609375,0.6329150414556265,-0.1218636077798902,0.4967334238573908,-0.0382291488349437,0.1290488094091415,0.3986362814903259
1772807959586794500,0.49379443359375,0.4471311885595321,-0.0378558295331895,0.3751867730721831,-0.0188255868852138,0.1153271719813346,0.3703030347824096
1772807959606843600,0.51384375,0.3112573217362165,-0.0581418078452348,0.4069428974907845,-0.0153109710663557,0.1125273928046226,0.3521733582019806
1772807959626892800,0.533892822265625,0.3480880460053682,-0.0872970290504396,0.3620717458354309,0.0188278183341026,0.1379648745059967,0.3501233458518982
1772807959646941700,0.553941650390625,0.4245487698733806,-0.0903697144940495,0.3079701167590916,0.064700961112976,0.1576085537672042,0.3369779884815216
1772807959666990800,0.573990966796875,0.4820920273035764,-0.1379132636964321,0.3796948250811547,0.103665143251419,0.0857045128941536,0.2993303835391998
1772807959687039500,0.59403955078125,0.5965104336440563,-0.2287869821898639,0.4113214048359543,0.1028791442513465,-0.0022087912075221,0.2824241816997528
1772807959707088600,0.614088623046875,0.622697598823905,-0.2583725576363503,0.3874013443378731,0.0360842756927013,-0.0905820727348327,0.2541137933731079
1772807959727137800,0.6341376953125,0.3903144918382167,-0.2850964600414037,0.3340357013858854,-0.0359820052981376,-0.1527475118637085,0.1977762132883072
1772807959747186700,0.654186767578125,0.0493447534054517,-0.1473345875144004,0.2032878540731035,-0.0325567498803138,-0.1720417737960815,0.1306787729263305
1772807959767235800,0.67423583984375,-0.2637608265459537,0.017043343129009,0.0921111513338983,0.0298890564590692,-0.1733874976634979,0.0984499230980873
1772807959787285800,0.69428564453125,-0.203805831798911,0.0938081645101308,0.0384536492958664,0.1092596873641014,-0.1144847646355629,0.0804553627967834
1772807959807334700,0.714334716796875,-0.1060790325403213,0.1115568794295191,-0.0217351450738962,0.0977404117584228,-0.084546610713005,0.0422777496278286
1772807959827383800,0.7343837890625,0.0207113641172647,0.2021625946365296,-0.118022111654561,0.0168788284063339,-0.0980809703469276,-0.0337277576327323
1772807959847432700,0.7544326171875,-0.047279637569189,0.1673119382686912,-0.0605296162972226,-0.1080920845270156,-0.1627792865037918,-0.1307462006807327
1772807959867481600,0.774481689453125,-0.2960007158935069,0.2643444716528058,-0.0799732802999205,-0.2844261229038238,-0.2714306712150574,-0.2493040859699249
1772807959887530800,0.79453076171875,-0.60470952219069,0.3655817632503807,-0.2136143283035606,-0.4591815173625946,-0.2913588285446167,-0.352323442697525
1772807959907579600,0.81457958984375,-0.8217652961850166,0.5593094147577882,-0.3877639305725693,-0.5913417339324951,-0.1786192804574966,-0.4428910911083221
1772807959927628800,0.83462890625,-1.098324229505658,0.7060312772013246,-0.5503631611056625,-0.6010069251060486,-0.0040842494927346,-0.4965373873710632
1772807959947677700,0.854677734375,-1.0606295818835496,0.6333718453124165,-0.5440687371365726,-0.4422715306282043,0.1737451404333114,-0.501819908618927
1772807959967726600,0.8747265625,-0.6169938342243433,0.629316432441771,-0.5487084892338141,-0.2106468230485916,0.3332715034484863,-0.4444975554943084
1772807959987775700,0.894775634765625,-0.0533282700836658,0.256119371882081,-0.386842614476569,-0.1169255152344703,0.3681176006793976,-0.3475704491138458
1772807960007824600,0.91482470703125,0.644775575119257,0.0322435426093637,-0.5868557029290125,-0.1526705473661422,0.3458369970321655,-0.2646476328372955
1772807960027873800,0.934873779296875,1.1070125628739595,-0.2136551717706024,-0.8893983512792736,-0.2887404859066009,0.2888635694980621,-0.2479020208120346
1772807960047923700,0.954923828125,1.1017162100315094,-0.3943745808839797,-1.0091204900510609,-0.4461933374404907,0.0831305533647537,-0.3163796067237854
1772807960067972600,0.97497265625,0.6331131943762301,-0.4239756461605429,-0.9222046423379332,-0.5060964226722717,-0.2566501200199127,-0.4242218136787414
1772807960088021800,0.995021728515625,0.1204091711878776,-0.3133054864376783,-0.8763595676165074,-0.3591780066490173,-0.4751563370227813,-0.4247403442859649
1772807960108070700,1.015070556640625,-0.1273819328099489,-0.0832638280116021,-0.6538504235871135,-0.1472550183534622,-0.5339198112487793,-0.3592865765094757
1772807960128119800,1.035119873046875,0.2620838332444429,0.0814273332994431,-0.7368729901887476,-0.0257255546748638,-0.257839173078537,-0.2114556729793548
1772807960148168700,1.055168701171875,0.610198182734847,-0.0626969138663262,-0.3597645648716017,-0.0157704688608646,0.0676145479083061,-0.0767995119094848
1772807960168217600,1.075217529296875,0.6719061586290598,-0.3890601809281855,-0.0002173873440362,-0.0734717026352882,0.1034044697880745,0.0148686375468969
1772807960188266800,1.095266845703125,0.5302279894411563,-0.471626455129683,0.0769245511206332,-0.0695363506674766,-0.095818355679512,0.0590888261795043
1772807960208313000,1.11531298828125,0.5110609321564435,-0.521153579364717,-0.1042605118762701,-0.0298415888100862,-0.2785934507846832,0.0666324272751808
1772807960228362000,1.135362060546875,0.4855354457557201,-0.6541979949157685,-0.0903185414292383,-0.0451128296554088,-0.3142064213752746,0.0503373369574546
1772807960248411000,1.155410888671875,0.300150236788392,-0.6179760501947253,-0.1114448338897898,-0.0479233227670192,-0.2222394496202469,0.0810588598251342
1772807960268460000,1.1754599609375,0.1924935796678066,-0.564624399235472,-0.2787897063137032,-0.0167805310338735,-0.052922073751688,0.1289866864681244
1772807960288509200,1.19550927734375,0.1643406673729419,-0.7286573888987302,-0.1605500429183244,0.0345579199492931,0.0903006419539451,0.1594506204128265
1772807960308558800,1.215558837890625,0.1397071613758802,-0.8441023618079722,-0.0086669617867097,0.1068527176976203,0.1080181002616882,0.1864205002784729
1772807960328608000,1.23560791015625,0.1281231065660715,-0.8970046615645288,0.0796994683272205,0.1972460001707077,0.0738452151417732,0.2285394519567489
1772807960348657200,1.2556572265625,0.2037485486537218,-0.878933436692506,0.0247651147537864,0.2800447940826416,0.0702238827943801,0.2740484774112701
1772807960368706000,1.2757060546875,0.2314174768239259,-0.8778931338593363,-0.0702232907831668,0.2749459147453308,0.0374177694320678,0.29350546002388
1772807960388755200,1.295755126953125,0.1288970135480165,-0.8060394653953611,-0.2363867531364783,0.1496520638465881,-0.0407010726630687,0.2562658190727234
1772807960408803800,1.315803955078125,-0.3434031030595302,-0.5072513107404113,-0.5157266589451581,-0.0681220442056655,-0.1799073964357376,0.1578393429517746
1772807960428853000,1.33585302734375,-0.6080313600897789,-0.2508520990036428,-0.7886656482029706,-0.2863089144229889,-0.1994265615940094,0.0449413694441318
1772807960448902100,1.355902099609375,-1.145578732633591,-0.4225172640457749,-0.4166382524771616,-0.3194955885410309,-0.097589299082756,0.0001903809607028
1772807960468951000,1.375950927734375,-1.6582763260811566,-0.2637357651699334,0.0100241120167076,0.0046273171901702,0.0115459179505705,0.044235523790121
1772807960489000200,1.396000244140625,-1.3253116149276494,0.0633338235303759,-0.1173951388626359,0.4476185441017151,0.1945300996303558,0.2285642176866531
1772807960509048800,1.416048828125,-0.7062777993082999,0.0263617910943925,0.0354627969168126,0.5696551203727722,0.2595820724964142,0.3955105543136596
1772807960529098000,1.436097900390625,-0.2674398073196411,-0.274403070461005,0.4181814998637884,0.340711772441864,0.0972608178853988,0.4255140423774719
1772807960549148200,1.456148193359375,0.0409299762815237,-0.2613656019724905,0.4657240992181002,0.0018241167999804,-0.0386892855167388,0.3609613180160522
1772807960569197000,1.476197021484375,-0.2489583942115306,-0.0368712024100124,0.266689792669937,-0.2552946805953979,-0.1085594594478607,0.2927064001560211
1772807960589246000,1.496245849609375,-0.7348959910273551,0.375032167032361,-0.0426906475448049,-0.3397084176540375,-0.1038212552666664,0.2608426809310913
1772807960609295000,1.516295166015625,-1.0942694011569023,0.5736626420199871,-0.0255295597876422,-0.2627387940883636,-0.0522668398916721,0.2472696006298065
1772807960629344000,1.536343994140625,-1.0609656819701194,0.6531164102241397,0.1224982158889994,-0.0283415615558624,0.0655487179756164,0.3104054927825928
1772807960649393200,1.55639306640625,-0.3330132264703512,0.6357679466687143,0.365670245251432,0.3043694496154785,0.2581468224525451,0.4886541068553924
1772807960669442000,1.576442138671875,0.2207417690306901,0.6451609211750328,0.3524050324216485,0.4415780007839203,0.1977330446243286,0.6373016238212585
1772807960689491000,1.596490966796875,0.8779805198818444,0.3812466576330363,0.4345478935793042,0.3803445100784302,0.0876912102103233,0.6773107647895813
1772807960709540000,1.6165400390625,1.0536726023524998,0.2156732335947453,0.4425555146744474,0.1996145099401474,-0.0651315376162529,0.609155535697937
1772807960729589000,1.636589111328125,0.8671990136265754,0.1450871008485555,0.3253869693756103,0.0282462649047374,-0.2288256585597992,0.4821787476539612
1772807960749638100,1.65663818359375,0.5105991598635912,0.3314722806386649,0.0442202134659513,-0.0551863349974155,-0.2836018800735473,0.308904230594635
1772807960769687000,1.67668701171875,0.2557248196065426,0.3918045842655003,0.0563998230161145,-0.1087287589907646,-0.1979100853204727,0.1391476988792419
1772807960789736000,1.69673583984375,-0.0678454557359218,0.2651598796889186,0.3925772856710478,-0.0840795040130615,-0.130699411034584,0.0711332038044929
1772807960809786000,1.7167861328125,-0.1476893923014402,0.4290913817390799,0.4434775614228099,0.0791924968361854,-0.0838343873620033,0.07850231975317
1772807960829835000,1.7368349609375,0.1309907709568739,0.5483692108094692,0.4122103895649314,0.2505273222923279,5.03996561747e-05,0.1279951483011245
1772807960849884200,1.75688427734375,0.4362672647178173,0.5263740904919803,0.3565336566589772,0.2723458409309387,0.0606631524860858,0.1671631336212158
1772807960869933000,1.77693310546875,0.8814192621588707,0.3161649675220251,0.3621232568269595,0.1965858787298202,0.1645794212818145,0.1677497923374176
1772807960889982000,1.79698193359375,1.1450234368383885,0.2216078843407332,0.2511731476515531,0.1298540979623794,0.2450476586818695,0.0879056230187416
1772807960910031000,1.817031005859375,1.256689329600334,0.0614886340551078,0.2143451267961412,0.0391711443662643,0.2129812836647033,-0.0267969761043787
1772807960930080000,1.837080078125,0.9992828405171632,-0.0797144649669528,0.3478124804669991,-0.0328436195850372,0.0427419878542423,-0.1270378530025482
1772807960950129200,1.857129150390625,0.5637637638181447,-0.0806793644763529,0.4271223101558163,0.0491132587194442,-0.1158000826835632,-0.1299800872802734
1772807960970178000,1.877177978515625,0.4991027833372354,0.0792146987512707,0.19965700502377,0.145193412899971,-0.1093853265047073,-0.0664914548397064
1772807960990227000,1.89722705078125,0.5399292992442846,0.0060714288681745,0.0612523776138201,0.0996678322553634,-0.0191171467304229,-0.0222058743238449
1772807961010276000,1.917276123046875,0.3060971624940634,-0.0955741512693464,-0.0077143007043749,0.0245656762272119,0.0266491379588842,-0.0522686317563056
1772807961030325000,1.937324951171875,0.3381149335235357,-0.1414464062586426,-0.1269405822506174,0.0420068316161632,0.1123460009694099,-0.1004219800233841
1772807961050375000,1.957375,0.5045090262949466,-0.1851097530268132,-0.1758910025762394,0.0514783002436161,0.1657853126525879,-0.1517976522445678
1772807961070424000,1.977424072265625,0.5736299087941646,-0.259089473734051,-0.0829735580944456,0.0033699958585202,0.1090985685586929,-0.202062726020813
1772807961090473000,1.997472900390625,0.5451408964127302,-0.4090988334156573,0.0364772894552908,-0.0118257431313395,0.0520901642739772,-0.2127586901187896
1772807961110522000,2.017522216796875,0.5763496891468763,-0.4431045633919537,0.1383998599032871,0.0323008857667446,0.0621704906225204,-0.1917525976896286
1772807961130571000,2.037571044921875,0.5518167209148407,-0.4968959209427237,0.1467777390829287,0.0353428497910499,0.0681082382798194,-0.1222665086388588
1772807961150620000,2.057619873046875,0.4438438374519348,-0.5929951189994812,0.2405720029318705,0.0201854333281517,0.0331478267908096,-0.0534156709909439
1772807961170669000,2.0776689453125,0.2575555421650409,-0.567805586554855,0.2340931805728934,-0.01660449616611,-0.0182170886546373,-0.0369285158812999
1772807961190718000,2.097718017578125,0.054577393361926,-0.6739502316772937,0.1267818114923313,-0.1581493467092514,-0.0466513931751251,-0.0818575844168663
1772807961210767000,2.11776708984375,-0.1696194845587015,-0.7614100500740111,0.1153718711404129,-0.3579128980636596,-0.048615675419569,-0.2245323210954666
1772807961230816000,2.13781591796875,-0.6236953776895999,-0.8866799591660499,0.2539201996036805,-0.4638247489929199,-0.0586917959153652,-0.365958422422409
1772807961250865000,2.157864990234375,-1.0081599744558334,-0.6011898236319423,0.2255332228246145,-0.4225618839263916,-0.0840147212147712,-0.4496627449989319
1772807961270914000,2.1779140625,-0.8898556665927171,-0.2069306858211755,-0.0206854442247189,-0.3289930522441864,0.0536145381629467,-0.4628519713878631
1772807961290963000,2.197962890625,-0.4966413616597652,-0.0079622110508382,-0.3031020357986912,-0.2278320342302322,0.3617375195026397,-0.4287111163139343
1772807961311012900,2.218012939453125,-0.2443032618820667,0.0372404741138219,-0.2627132171891629,-0.0672481432557106,0.461939126253128,-0.4118924438953399
1772807961331062000,2.23806201171875,-0.1054208608925342,-0.1474225580587983,-0.0233042826703167,0.0588119849562644,0.239486962556839,-0.4058157205581665
1772807961351111000,2.25811083984375,-0.1126379526644945,-0.0146684306912124,-0.0150909875018172,0.0624652355909347,-0.1573840230703354,-0.4149841666221618
1772807961371160000,2.27816015625,-0.3600894494444132,-0.0465783574320375,-0.0990324567633681,-0.0379920788109302,-0.4371589422225952,-0.4455221593379974
1772807961391209200,2.298209228515625,-0.6331114408105611,0.377795055874437,-0.444146108334139,-0.0857739895582199,-0.3742952644824981,-0.5018431544303894
1772807961411257900,2.3182578125,-0.9736714293986558,0.5512598176844418,-0.6488480121899396,-0.1144604012370109,-0.1790626645088195,-0.5132799744606018
1772807961431307000,2.33830712890625,-0.8600351133465767,0.6755049137733876,-0.8413613925367593,-0.0807492509484291,0.1053006649017334,-0.4579581022262573
1772807961451356000,2.35835595703125,-0.7378489956140518,0.8599228851437568,-0.8575379627685994,-0.0598302781581878,0.2449139207601547,-0.4130785763263702
1772807961471405000,2.378405029296875,-0.6580015519171952,0.8616001707062124,-0.6800967716082931,-0.038244467228651,0.1848614960908889,-0.3895412385463714
1772807961491454200,2.3984541015625,-0.0303822787821292,0.6932653191305697,-0.4503018544849008,0.0909970551729202,0.2093585729598999,-0.3391042649745941
1772807961511503000,2.418503173828125,0.5205091439813375,0.563196485324204,-0.1406549818863161,0.1990164071321487,0.2100808471441269,-0.2915140986442566
1772807961531552000,2.438552001953125,1.0587889224529266,0.3235919026523828,0.2160505059419199,0.2254058122634887,0.1636651009321212,-0.1876747757196426
1772807961551601200,2.45860107421875,1.4764403340280057,0.0600993716537952,0.3493035958075896,0.2342353165149688,0.0838171243667602,-0.0168873369693756
1772807961571650000,2.478650146484375,1.7102391530305143,-0.0579674741916358,0.3085596436174586,0.1957472562789917,-0.046442836523056,0.115059345960617
1772807961591700000,2.498699951171875,1.7738269513219591,-0.2221526587419211,0.1578416242098435,0.0979875847697258,-0.1962277889251709,0.185830146074295
1772807961611748900,2.518748779296875,1.638870199343562,-0.2561652568504214,-0.1604420524992048,-0.0279746204614639,-0.3008021116256714,0.1827950179576873
1772807961631798000,2.538798095703125,1.371137546557188,-0.2240302891820669,-0.3516537391303106,-0.1139792799949646,-0.268748015165329,0.1232524067163467
1772807961651847200,2.55884716796875,0.9505606029242276,-0.232594119387865,-0.370993559166044,-0.1531065106391906,-0.1853330582380294,0.0656982958316803
1772807961671896000,2.57889599609375,0.7533750660479068,-0.3207878050170838,-0.2892081148776225,-0.1611601412296295,-0.0705233886837959,0.0585078187286853
1772807961691945000,2.598945068359375,0.3998761009097099,-0.4826850247606635,-0.1108741487292107,-0.1640860438346862,-0.0745296478271484,0.1157448962330818
1772807961711994000,2.618994140625,0.1167050559729337,-0.5450118632055819,-0.022184240548266,-0.1618976294994354,-0.1698850989341735,0.1711673587560653
1772807961732043000,2.63904296875,-0.0612286679446697,-0.686983462382108,-0.0321807430388405,-0.1434359401464462,-0.1875874698162078,0.2001556754112243
1772807961752092200,2.659092041015625,-0.2282107897371053,-0.8267721645615994,0.0529411339296028,-0.1562675833702087,-0.1817010939121246,0.2041440308094024
1772807961772141000,2.67914111328125,-0.7503741306662559,-0.8399439269542693,0.0039788770357146,-0.2789069414138794,-0.327670007944107,0.1727272272109985
1772807961792190000,2.69918994140625,-1.328908178114891,-0.6456693090885878,-0.1267477996248751,-0.4253809452056885,-0.4758519530296325,0.0673034042119979
1772807961812239000,2.719239013671875,-1.8971803592681884,-0.2917161704421043,-0.2906463127208873,-0.4735022485256195,-0.4662014544010162,-0.0374587289988994
1772807961832288000,2.7392880859375,-1.8773194745004176,-0.1874935063581913,-0.2850317973073571,-0.2973644137382507,-0.1253882944583892,-0.0448145754635334
1772807961852337200,2.759337158203125,-1.3132657878249885,-0.0204206375423818,-0.0446419460093602,0.0486034825444221,0.3415080904960632,0.0217768941074609
1772807961872387000,2.779386962890625,-0.7224754853934049,0.0319387875091284,0.4011011126600206,0.2233648598194122,0.4125777184963226,0.1197598576545715
1772807961892436000,2.79943603515625,-0.1655120492398738,-0.2684081408951431,0.7941830233849585,0.2147159278392791,0.1870261430740356,0.2538184225559234
1772807961912485000,2.819485107421875,0.120184714782238,-0.5476334438808262,1.204527911338955,0.1757244914770126,-0.0913434401154518,0.3993523418903351
1772807961932534000,2.839533935546875,0.2620674666315317,-0.5928925354078411,1.162111349761486,0.0861411914229393,-0.257286936044693,0.5531048774719238
1772807961952583200,2.859583251953125,0.1678501367986202,-0.3744564129710197,0.7957487383317202,0.0072784656658768,-0.255156397819519,0.7030789852142334
1772807961972632000,2.879632080078125,-0.1181488250404596,-0.1892980715621262,0.7031273724533617,0.0896809324622154,-0.1760775595903396,0.8297791481018066
1772807961992681000,2.899680908203125,0.1177799917280673,-0.0083796327453106,0.7342753749109804,0.3271216154098511,-0.074833795428276,0.940613567829132
1772807962012730000,2.919730224609375,0.6923124023199081,-0.0645306320995092,0.8731393634609877,0.4257347881793976,-0.0415554158389568,0.9917704463005066
1772807962032779000,2.939779052734375,1.21693482683897,-0.369969476815313,1.0272579120270908,0.3537691831588745,-0.0076365764252841,0.960718274116516
1772807962052828200,2.959828125,1.5461954227775334,-0.7396447929896414,1.242511751165986,0.2072348296642303,0.0376844778656959,0.8888559937477112
1772807962072877000,2.979876953125,1.4001111275851723,-1.1734295932419598,1.5225620337337256,0.0699548199772834,-0.0384026989340782,0.8153831362724304
1772807962092926000,2.999926025390625,1.3735820170998572,-1.100093138874322,1.5613004913203417,-0.0952140688896179,-0.1634668856859207,0.7444850206375122
1772807962112975000,3.01997509765625,0.9104670774668454,-1.1681456614896657,1.43640935241282,-0.4071783125400543,-0.3910801112651825,0.7711482048034668
1772807962133024000,3.04002392578125,0.2620347334057092,-1.2247304491512476,1.09703630858697,-0.6091139912605286,-0.4298765361309051,0.7997899651527405
1772807962153073200,3.0600732421875,0.280006443426013,-1.2737687669560311,0.4512978067196905,-0.3863770067691803,0.0369846411049366,0.7105672359466553
1772807962173123000,3.080123046875,0.5849111812651157,-0.730806383626163,-0.0530399546615779,-0.1265488862991333,0.3735126256942749,0.441963255405426
1772807962193172000,3.100171875,-0.4622860875934362,-0.6572944996263832,-0.1772424537178129,-0.3064098954200744,-7.29180173948e-05,0.1788724809885025
1772807962213220000,3.12022021484375,-0.1663742190271616,-0.8575123899359256,-0.0267403420832008,-0.3116390407085418,0.0261208191514015,0.0588396079838275
1772807962233269000,3.14026904296875,-0.3615799802631139,-0.4114071103580295,-0.0004285276103764,-0.048450943082571,0.2792612314224243,0.0251157190650701
1772807962253318100,3.160318115234375,-0.1492933203667402,-0.2771296458806842,-0.1288700524758547,0.2947404682636261,0.5744752883911133,0.1767919212579727
1772807962273367000,3.180366943359375,0.2991360913097858,0.2033122030630707,-0.3202605662725866,0.5846637487411499,0.6912695169448853,0.2832090258598327
1772807962293416000,3.200416015625,0.5966752688169479,0.4637032609149813,-0.461982063145563,0.7586610317230225,0.5748917460441589,0.3348734676837921
1772807962313465000,3.220465087890625,0.8458867610067129,0.7504987799592315,-0.5944189047249033,0.885773777961731,0.4106335639953613,0.4146127104759216
1772807962333514000,3.240513916015625,0.8119716319233179,0.9448710129804908,-0.4836243514373898,1.0018447637557983,0.247768759727478,0.5267505049705505
1772807962353563100,3.260563232421875,0.4796165771007538,1.266935267674178,-0.2868725298032164,1.2215656042099,0.2446723282337188,0.69890958070755
1772807962373612300,3.2806123046875,0.5768494553625584,1.5194573457166551,-0.1376821948869153,1.4510071277618408,0.5419420599937439,0.954862892627716
1772807962393661000,3.300660888671875,0.3547217849314212,1.5765478909432886,-0.2655432164506986,1.404318928718567,0.7090262174606323,1.1683555841445925
1772807962413710000,3.3207099609375,0.6188491067022085,1.3445236803978682,-0.6604029139705002,1.048567533493042,0.7920973300933838,1.119843602180481
1772807962433759000,3.340759033203125,-0.3169593327701092,1.0387684632092713,-0.8391301994185895,0.1408989429473877,0.3116465508937835,0.5777919292449951
1772807962453808000,3.36080810546875,-1.7848317449390887,0.7263961659684777,-0.4156675442814826,-0.8575869798660278,-0.4000621140003204,-0.2529427111148834
1772807962473858000,3.380858154296875,-2.2189684273689982,1.1126730728536844,-0.5194196682441979,-1.04858660697937,-0.3794096410274505,-0.8822834491729736
1772807962493907000,3.400906982421875,-2.025211695897579,2.2876009418293832,-0.9826312731847168,-0.5417333841323853,0.2331775426864624,-1.096510887145996
1772807962513956000,3.4209560546875,-1.3014894253134728,2.3446387339554726,-1.1714584392994642,-0.1121697574853897,0.8966854810714722,-0.868053138256073
1772807962534005200,3.441005126953125,-1.311876379293203,1.2132736739829182,0.1570648859499953,-0.3104684054851532,0.8166636824607849,-0.5681309103965759
1772807962554054100,3.46105419921875,-1.1472837829858065,0.2556226744063198,1.1463057317338885,-0.5884373188018799,0.3081561923027038,-0.3568037450313568
1772807962574103000,3.48110302734375,-1.7265987516790628,-0.0252346867606043,0.7942458594880998,-0.6125411987304688,-0.3453076481819153,-0.1517597138881683
1772807962594152000,3.50115185546875,-1.828123774176836,0.0155294314347207,-0.2358361335163936,-0.4455645978450775,-0.6725344657897949,-0.0779948607087135
1772807962614201000,3.521201171875,-1.763887741109729,-0.0195798758693039,-0.7227692807082087,-0.247820034623146,-0.6540369987487793,-0.1917796581983566
1772807962634250200,3.541250244140625,-0.8446697864323854,0.0394670641221106,-1.2590632191248237,0.0191808380186557,-0.1729254275560379,-0.3592155277729034
1772807962654299100,3.561299072265625,-0.2434492754012346,0.2697831555753946,-1.3199771220318972,0.179052323102951,0.2481247931718826,-0.5137653350830078
1772807962674348000,3.58134814453125,0.5206476756691932,0.128540893586725,-1.0009166522640731,0.2147493660449981,0.488686054944992,-0.5038296580314636
1772807962694397000,3.60139697265625,1.4049094677776095,0.085655837714672,-0.7261202716365456,0.2209675908088684,0.5797746181488037,-0.4053048491477966
1772807962714446000,3.621446044921875,1.785340278983116,-0.1298491997063159,-0.3690636505493894,0.2096174955368042,0.4203331172466278,-0.3186576068401336
1772807962734495200,3.6414951171875,2.0576210965931416,-0.2424723931930959,-0.137142461987026,0.2041401714086532,0.1289950013160705,-0.2553769052028656
1772807962754544000,3.661544189453125,2.092102627387643,-0.2504110772378742,-0.110644659955427,0.1253982484340667,-0.1986529678106308,-0.1652508974075317
1772807962774593000,3.681593017578125,2.0027140328854323,-0.4100555496186018,-0.1341736022440716,0.0034729882609099,-0.3365474045276642,-0.0493978187441825
1772807962794642000,3.701641845703125,1.7102911754786967,-0.3381817151494324,-0.2685824745487422,-0.0809126421809196,-0.3307228088378906,0.0137028908357024
1772807962814692000,3.721692138671875,1.201237491491437,-0.3568682954408228,-0.396297804031521,-0.1049014031887054,-0.3476177453994751,0.0007732398808002
1772807962834741000,3.741740966796875,0.9062345544636248,-0.3645049277991056,-0.4417310830816626,-0.0564626902341842,-0.3092766404151916,-0.067054271697998
1772807962854790000,3.761789794921875,0.7953957601755857,-0.4148552049852907,-0.3344103068519383,0.0336476787924766,-0.1862527728080749,-0.1048196926712989
1772807962874839000,3.781839111328125,0.7562497447013855,-0.4726340247370302,-0.2480279997599311,0.0471374206244945,-0.0778543278574943,-0.0914773046970367
1772807962894888200,3.80188818359375,0.6339888081669807,-0.6204547883331776,-0.1035439976373687,0.0054724398069083,-0.012516314163804,-0.0788169428706169
1772807962914937000,3.82193701171875,0.2310924826532602,-0.6463600678317248,-0.0469898425760678,0.032048650085926,-0.0543036833405494,-0.059907890856266
1772807962934986200,3.841986328125,-0.0935322701781988,-0.6194543791189789,0.0155197137583047,0.1349999010562896,-0.09247537702322,-0.0595189183950424
1772807962955035000,3.862034912109375,-0.2096446209549903,-0.5377414338111877,-0.0227889558426104,0.2516313195228576,-0.0605837702751159,-0.0330605842173099
1772807962975084000,3.882083984375,-0.2291962936431169,-0.5753133318364619,-0.0611228512163273,0.3084156513214111,0.0657091066241264,0.0326595120131969
1772807962995133200,3.90213330078125,-0.1578852076232433,-0.6430937595121562,0.0552103392369113,0.3401109278202057,0.1893392503261566,0.125761941075325
1772807963015182000,3.92218212890625,-0.304240136450529,-0.7639704020813107,0.165983447877597,0.243321493268013,0.0854858607053756,0.220799520611763
1772807963035231200,3.942231201171875,-0.3717044839143752,-1.1968573767110704,0.4475610313441604,0.0680519640445709,-0.0278228037059307,0.3089436888694763
1772807963055279900,3.96227978515625,-0.8456734105169773,-1.0477353212580085,0.4090763293229043,-0.1214216649532318,-0.1633338928222656,0.293145090341568
1772807963075329000,3.9823291015625,-1.7891157058686018,-0.159468239030987,-0.1908643162318505,-0.2703904211521148,-0.4936291873455047,0.1088565737009048
1772807963095378200,4.002378173828125,-2.1457646594703195,0.533621139010787,-0.5758839347986504,-0.2672125697135925,-0.5627949237823486,-0.1914139986038208
1772807963115427000,4.022427001953125,-1.5163263542145489,1.0557387411020696,-0.3613164339561015,-0.0154160512611269,-0.1757987737655639,-0.3812144994735718
1772807963135476200,4.042476318359375,-1.2193430570244788,1.452849030560255,-0.2077018893893808,0.0576160885393619,0.1607203632593155,-0.3774334490299225
1772807963155524900,4.06252490234375,-1.2702122435182333,1.305781861810386,0.0698543844055384,-0.1363120675086975,0.2750610709190368,-0.1625599414110183
1772807963175575000,4.082574951171875,-0.5871569143652916,1.089343489062041,0.4567569123758003,-0.0228418372571468,0.4493996202945709,0.1776508688926696
1772807963195624200,4.102624267578125,-0.3345166167706251,0.9492445518895984,0.6835156401410698,0.2395368367433548,0.2780438065528869,0.3893037140369415
1772807963215677200,4.12267724609375,-0.0837140559971332,0.5653184459142386,0.5418595731871202,0.3397955298423767,-0.1164073273539543,0.4290879666805267
1772807963235726300,4.142726318359375,0.4555003729760646,0.451103891582787,0.4022623384591192,0.2400215417146682,-0.3185058534145355,0.2641929388046264
1772807963255775200,4.162775146484375,0.4967278708994388,0.4872236911036074,0.3917768560083582,0.0526244454085826,-0.3483794331550598,0.0259342677891254
1772807963275824400,4.182824462890625,0.4010737862616777,0.8466177056297659,0.0832111753757577,-0.0500694029033184,-0.2379200011491775,-0.0695460438728332
1772807963295873300,4.202873291015625,0.2787918069392442,1.012459717476368,-0.0011496632254682,-0.0601706877350807,-0.0411062613129615,-0.076955646276474
1772807963315922200,4.222922119140625,0.3097463326513767,0.9931111661449076,0.0883556986573617,0.0071071507409214,0.1375553905963897,-0.113601729273796
1772807963335971300,4.242971435546875,0.3938894277155399,0.9319272141247988,0.3150126922143623,0.0747793167829513,0.1643933802843094,-0.1438798457384109
1772807963356020200,4.263020263671875,0.7956359986722469,0.9067024642363192,0.3121448086278512,0.1225828826427459,0.1643606424331665,-0.0885112881660461
1772807963376069400,4.2830693359375,1.277519936183095,0.8893751895993948,0.2055167821689508,0.1014465615153312,0.1713360100984573,-0.0472430363297462
1772807963396118500,4.303118408203125,1.5927233651965855,0.700567020446062,0.1980446196573786,0.0037713178899139,0.163888469338417,-0.0885620936751365
1772807963416167200,4.323167236328125,1.6086580164313315,0.5217872010931373,0.2658354408629238,-0.0871353298425674,0.0957735776901245,-0.1568433791399002
1772807963436216300,4.34321630859375,1.553852075010538,0.4030390949852764,0.225431168955937,-0.1827860921621322,0.054650891572237,-0.2146157622337341
1772807963456265200,4.36326513671875,1.528418943068385,0.280499633770436,0.27031563675059,-0.2699407637119293,0.10577093064785,-0.2566727697849273
1772807963476314400,4.383314453125,1.291565412670374,0.2102219824515283,0.3590570741893723,-0.3742165565490722,0.119896799325943,-0.2791632413864136
1772807963496363500,4.403363525390625,0.9329489583879708,0.1182438098475337,0.3914772520072758,-0.4436667561531067,0.0656981244683265,-0.2500390112400055
1772807963516412200,4.423412109375,0.6429734941333531,0.0727975251853466,0.366628167030774,-0.4675043523311615,0.0118957022204995,-0.2002062052488327
1772807963536461300,4.44346142578125,0.1932341689020395,-0.0832259802192449,0.3026194947124458,-0.4588029384613037,-0.0466807447373867,-0.1506877392530441
1772807963556510200,4.46351025390625,-0.0808364547342062,-0.1676572445750236,0.181761428979598,-0.3645518124103546,-0.0460250750184059,-0.1414023488759994
1772807963576559400,4.483559326171875,-0.1688140133947133,-0.4316485188759863,0.2223563646204769,-0.2446110248565673,0.0134449657052755,-0.1369539201259613
1772807963596608500,4.5036083984375,-0.3743336633741855,-0.5132186947122216,0.2519701067155226,-0.1808058470487594,-0.0309491772204637,-0.1396296322345733
1772807963616658200,4.523658203125,-0.7837246116042137,-0.6706354080408811,0.2780848825125955,-0.1829453706741333,-0.2167353928089141,-0.1053919494152069
1772807963636707300,4.543707275390625,-1.1181634869635104,-0.4923933488264679,0.1295374394765589,-0.1388579159975052,-0.3612930178642273,-0.0918645709753036
1772807963656756500,4.563756591796875,-1.2779513133376836,-0.2812223950870335,-0.0410078683899017,-0.0384362153708934,-0.356673389673233,-0.0950710549950599
1772807963676805400,4.583805419921875,-1.0463064574986696,-0.0585984655715525,-0.0988177089009899,0.1610387563705444,-0.1231569796800613,-0.1185151115059852
1772807963696854300,4.603854248046875,-0.4848135612219572,-0.0086463939227163,0.1069690949815325,0.3424600660800934,0.1542347371578216,-0.1353569477796554
1772807963716903200,4.623903076171875,-0.2605377728462219,0.0030782384015619,0.366103120243363,0.2540899813175201,0.0238788854330778,-0.0844791084527969
1772807963736952300,4.643952392578125,0.38383682025671,-0.4806299919269978,0.6842226924318819,0.0205255839973688,-0.1192868426442146,0.0140720382332801
1772807963757001500,4.66400146484375,0.1352349843978881,-0.3918463775806128,0.6252079742096364,-0.3216377198696136,-0.3804138302803039,-0.0286831334233284
1772807963777050400,4.68405029296875,-0.2991471972256899,0.0580611438244581,-0.1294242066267412,-0.6946130990982056,-0.5068942308425903,-0.2289422750473022
1772807963797099300,4.704099365234375,-1.0859487320572137,0.3816400408647954,-0.5383870382383465,-0.9048210382461548,-0.3565435409545898,-0.5084452033042908
1772807963817148200,4.724148193359375,-1.5006944853186606,0.6599746055558323,-0.6394760074064135,-0.7450533509254456,0.0432485714554786,-0.649551510810852
1772807963837197300,4.744197265625,-1.5889409240484236,0.6741945618271827,-0.6541021333258599,-0.3558286726474762,0.4283863604068756,-0.5094620585441589
1772807963857246500,4.76424658203125,-1.588050697210431,0.6846973242063075,-0.5773091087635606,-0.0436222180724144,0.430381178855896,-0.2457326203584671
1772807963877295400,4.78429541015625,-1.3775702099531888,0.3491024837449192,-0.3889261792849749,0.1211771368980407,0.1474854797124862,-0.0315574407577514
1772807963897344300,4.80434423828125,-0.7049637941002845,0.2769741630580276,-0.7530612508583814,0.3025051653385162,0.0292770769447088,0.0894867479801178
1772807963917393200,4.82439306640625,0.0245697931110858,0.2176239292711019,-1.2370572851523756,0.4162231683731079,0.0816177427768707,0.1081926599144935
1772807963937442300,4.8444423828125,0.5699591113269329,0.0328776027292013,-1.4898058654271065,0.3962792456150055,0.1326460242271423,0.031573187559843
1772807963957491500,4.864491455078125,1.176470129981637,-0.0273392578244209,-1.486245688727498,0.3320205807685852,0.2158703356981277,-0.1401168704032898
1772807963977540400,4.884540283203125,1.5114134477317331,-0.0205035665854811,-1.313454588395357,0.266835868358612,0.2084034532308578,-0.3413998782634735
1772807963997589200,4.90458935546875,1.7110896323800089,-0.0345223011963069,-1.1556574243817477,0.1716381907463073,0.1469647586345672,-0.4926149547100067
1772807964017638100,4.92463818359375,1.7709838368505235,0.0124601069919765,-0.8121049029141664,0.1011005491018295,0.0659583359956741,-0.5613296031951904
1772807964037687300,4.944687255859375,1.5860726751357317,0.1044344802036881,-0.6088390962760896,0.0404336974024772,-0.0447407513856887,-0.5438598394393921
1772807964057736400,4.964736328125,1.552539238846302,0.0971739876814186,-0.5416609453424811,-0.0715228915214538,-0.0497042723000049,-0.4740315675735473
1772807964077785300,4.984785400390625,1.34239426715374,0.0349934258393943,-0.4861140493612736,-0.1550260335206985,-0.0067528462968766,-0.3940918147563934
1772807964097834200,5.004834228515625,0.9949071096509694,0.0500815432474017,-0.596205020956695,-0.1510332524776458,0.012135611847043,-0.3305901885032654
1772807964117883100,5.024883056640625,0.8781757501929998,-0.1268112933151423,-0.6347958137009293,-0.1599057018756866,0.0399738401174545,-0.2935136258602142
1772807964137932300,5.044932373046875,0.5778501568377018,-0.3407632560752332,-0.5410112857947126,-0.1975209861993789,0.0147601757198572,-0.2553237378597259
1772807964157981400,5.0649814453125,0.415931748175621,-0.3919857860513031,-0.5257423319270834,-0.1491302996873855,0.0541036203503608,-0.1797037422657013
1772807964178031000,5.085031005859375,0.3128764473706483,-0.5139876332581043,-0.4522577377930283,-0.0313317477703094,0.1067648530006408,-0.0683449655771255
1772807964198080300,5.105080322265625,0.0762830292135477,-0.711553986145556,-0.1895635906305164,0.0693210810422897,0.0391893498599529,0.0373912118375301
1772807964218125800,5.125125732421875,-0.0417535676240921,-0.6845524358429014,-0.0580155511170625,0.1855815351009369,-0.0848978087306022,0.1278912127017974
1772807964238174700,5.1451748046875,-0.2064817730098962,-0.6374693437591195,-0.0493956068098545,0.2422669529914856,-0.2280052453279495,0.2024971842765808
1772807964258223900,5.165223876953125,-0.4013321449369192,-0.4793167173713445,-0.1098386773347854,0.1880025118589401,-0.2842146158218384,0.2128769159317016
1772807964278272500,5.1852724609375,-0.7705068181127309,-0.4089505109861492,-0.2425682182503864,0.1358777433633804,-0.2270799577236175,0.1867352724075317
1772807964298321700,5.20532177734375,-0.9989590153902768,-0.2893365818291902,-0.2827709945022128,0.2141214609146118,-0.0571758709847927,0.176238477230072
1772807964318370800,5.225370849609375,-1.0654898813962936,-0.2753054261282086,-0.3476365759108215,0.3515304923057556,0.1390964835882187,0.210495114326477
1772807964338419700,5.245419677734375,-0.8200035472095012,-0.35607159210518,-0.2703239661875181,0.4086047112941742,0.2486645281314849,0.2579694092273712
1772807964358468900,5.26546875,-0.6421475647032261,-0.7032691190116107,-0.0016910400931723,0.3347198367118835,0.1499066948890686,0.2639696300029754
1772807964378517500,5.285517578125,-0.5976835690766572,-0.778751791627705,0.0760103314856998,0.1338558793067932,-0.0372862853109836,0.1604904234409332
1772807964398566700,5.305566650390625,-0.9812181915163992,-0.4483816270120441,-0.1636230023565702,-0.1210508048534393,-0.2814606130123138,-0.0584146007895469
1772807964418615800,5.32561572265625,-1.7512796039491891,-0.0488392881013452,-0.1243331488317344,-0.3377081751823425,-0.4259557127952575,-0.3070434331893921
1772807964438664700,5.345664794921875,-2.282219541051984,0.4826160511776804,-0.0555614176969043,-0.373342752456665,-0.3074783384799957,-0.4542514085769653
1772807964458713900,5.3657138671875,-2.414131518507004,0.9037022595070302,0.1351679013778921,-0.2037416398525238,0.0240814201533794,-0.4042298197746277
1772807964478762800,5.3857626953125,-1.818336539655924,1.11070922543481,0.4378695122826844,0.150934562087059,0.4080615639686584,-0.1457371860742569
1772807964498811600,5.405811767578125,-0.9229495424211024,0.975683646003902,0.8368044598847627,0.5285341739654541,0.4956189095973968,0.2404159009456634
1772807964518860800,5.42586083984375,0.0027367314875125,0.6140078041508793,1.0732123654071242,0.7729038596153259,0.3077442348003387,0.5027779340744019
1772807964538909700,5.44590966796875,1.1942325811654328,0.6913952874749899,0.8953631049025803,0.845391571521759,0.1464611440896988,0.6393896341323853
1772807964558958800,5.465958740234375,1.804569295588136,0.4547799497470259,0.8382925064854323,0.6554354429244995,-0.0155163584277033,0.594999372959137
1772807964579007700,5.4860078125,1.8825193812310692,0.1402788237839937,0.8385254384584725,0.2900068163871765,-0.2095959633588791,0.432095855474472
1772807964599056600,5.506056640625,1.494818871283531,0.1779338700480759,0.7183492723088711,-0.0406680777668952,-0.4027820229530334,0.2196488827466964
1772807964619105800,5.526105712890625,1.06668990483582,0.4420199830256402,0.3610772549053654,-0.1849077343940735,-0.4276162385940552,0.0725283473730087
1772807964639154700,5.54615478515625,0.5163017554193735,0.5885827093847096,0.2754371262164786,-0.1852547377347946,-0.4119773507118225,-0.016710452735424
1772807964659203800,5.566203857421875,0.3455225794315338,0.6423660297594964,0.16885167852398,0.0036126910708844,-0.2545013725757599,-0.0125856138765811
1772807964679252700,5.586252685546875,0.7165607083916664,0.7059633265316486,0.1002571488532703,0.2235500365495681,-0.0107346167787909,0.0332146286964416
1772807964699301600,5.606301513671875,0.7822849341899156,0.7387310391455888,0.0698497356298845,0.1502989083528518,0.0247269570827484,0.0657538101077079
1772807964719350800,5.626350830078125,0.9328291314005852,0.3193411133401095,0.2499969434790313,-0.0364313870668411,0.0242987051606178,0.0395138375461101
1772807964739399700,5.646399658203125,0.849735837650299,0.182443164166063,0.3395808413576334,-0.0993334352970123,0.0776943191885948,-0.0668125823140144
1772807964759448800,5.66644873046875,0.918698314717412,0.0847590350054204,0.3619277342548593,-0.0400047712028026,0.1738376021385193,-0.1555285602807998
1772807964779497700,5.686497802734375,0.8097428499579429,0.0433037196755409,0.4289448859404772,-0.0332395434379577,0.1196630448102951,-0.2043158113956451
1772807964799546600,5.706546630859375,0.8906757508039473,-0.0689358813211321,0.505918673897162,-0.0832355096936225,0.0341502055525779,-0.2097851932048797
1772807964819595800,5.726595703125,0.795208713170886,-0.0668977996222674,0.5496439434530214,-0.1479753702878952,0.0039179371669888,-0.1967494189739227
1772807964839644700,5.746644775390625,0.5250345124512911,-0.1564211264200508,0.5087890417017042,-0.1922942548990249,-0.0146249830722808,-0.1741714626550674
1772807964859693800,5.76669384765625,0.2207277405053377,-0.152631086487323,0.4236718043757602,-0.1815141886472702,-0.0156398266553878,-0.1724740415811538
1772807964879742700,5.78674267578125,0.0859019214302301,-0.2867451040312647,0.3539818898169323,-0.1015926897525787,0.0105371493846178,-0.1518643945455551
1772807964899791600,5.80679150390625,-0.1905225718557834,-0.3678388945274055,0.4179470335207879,-0.0213301554322242,-0.050892136991024,-0.141305074095726
1772807964919840800,5.8268408203125,-0.3815115921795368,-0.4040419884175062,0.4190739186588674,0.0502833202481269,-0.1355360895395279,-0.1184994056820869
1772807964939889700,5.8468896484375,-0.5985995148777962,-0.3551321192979812,0.2584595052674412,0.0875440090894699,-0.1960774511098861,-0.0878470465540885
1772807964959939800,5.86693994140625,-0.7008458373874425,-0.258721078813076,0.0433637564668199,0.1250687688589096,-0.1553826034069061,-0.0732094943523407
1772807964979987700,5.88698779296875,-0.7304927876323462,-0.1407820971310138,-0.1400929275567643,0.2072822153568267,-0.0368571057915687,-0.0801239609718322
1772807965000036600,5.90703662109375,-0.5740507645547389,-0.1374680041469633,-0.1774486620807089,0.3253525793552398,0.0985977724194526,-0.0784351304173469
1772807965020086800,5.927086669921875,-0.3265156811445951,-0.2324687394425272,0.0074759653287881,0.3587195575237274,0.0967743396759033,-0.0757737457752227
1772807965040135700,5.9471357421875,-0.3068640552133321,-0.17529650728181,0.1379154008545912,0.2153631746768951,-0.1184263378381729,-0.0776637122035026
1772807965060184800,5.967184814453125,-0.3634276539564132,-0.2601842832334339,0.2421780864216387,-0.0722871422767639,-0.3242993354797363,-0.1590631306171417
1772807965080233700,5.987233642578125,-0.6632102264761924,-0.0220459737218916,0.0691654340269975,-0.3467313647270202,-0.3640362024307251,-0.3232130408287048
1772807965100282600,6.00728271484375,-0.9780927529722452,0.4287926910534501,-0.325741737630032,-0.4443544745445251,-0.2081108391284942,-0.4487043619155884
1772807965120331800,6.027331787109375,-1.1763181542903185,0.664528761728853,-0.3612587854847311,-0.3365212082862854,0.0035283935721963,-0.4618713855743408
1772807965140380700,6.047380615234375,-1.0204507162302732,0.6966385949559509,-0.1487866586193908,-0.0542762912809848,0.1534027755260467,-0.3349461257457733
1772807965160429800,6.067429931640625,-0.7854758391857147,0.8113156522326171,-0.0302962901322636,0.2451125979423523,0.0528209246695041,-0.1367163509130478
1772807965180478700,6.087478759765625,-0.0445282930344343,0.6967880864292383,-0.0879184945501852,0.3592206537723541,-0.0636934638023376,0.0201037116348743
1772807965200527600,6.107527587890625,0.2880401122778654,0.5947915008969604,-0.2952585557566956,0.2855865359306335,-0.1668080538511276,0.0223602503538131
1772807965220576500,6.127576416015625,0.7381979551821947,0.5317435085706412,-0.5465733038360253,0.1673974245786667,-0.0505294539034366,-0.0811520665884018
1772807965240625700,6.147625732421875,0.6957862159103154,0.4214918665207922,-0.702236780289188,0.0816247388720512,0.0214739721268415,-0.1669229418039322
1772807965260674600,6.167674560546875,0.808425922140479,0.4088659014426171,-0.7691118566229939,0.0358230210840702,0.0112472921609878,-0.2616067826747894
1772807965280723500,6.187723388671875,0.9063421064913272,0.3276480461753904,-0.5552732911095023,0.0180304329842329,-0.0215957872569561,-0.3744855225086212
1772807965300772600,6.207772705078125,1.213585516411066,0.400427889573574,-0.3774507724814117,0.0336726903915405,0.0435555055737495,-0.4363617897033691
1772807965320821500,6.227821533203125,1.426186649084091,0.4709805584415793,-0.2044716570301912,-0.0098819322884082,0.1039599627256393,-0.4429278075695038
1772807965340870700,6.24787060546875,1.5951485465168953,0.3477021154277026,0.1527527309724595,-0.0911567658185958,0.1399458199739456,-0.4086724817752838
1772807965360919600,6.26791943359375,1.6802707157462835,0.2405005085982382,0.3315979528449475,-0.180520474910736,0.1358421593904495,-0.3301196098327636
1772807965380968400,6.287968505859375,1.6183184097021817,0.0615370032414793,0.492156653993763,-0.2600979506969452,0.0673787221312522,-0.2124950140714645
1772807965401017600,6.308017578125,1.2303081031531096,0.0076252341814339,0.4939184395018964,-0.3343243300914764,-0.0855403766036033,-0.1234554126858711
1772807965421066500,6.32806640625,0.9229495424211024,-0.1652973835758864,0.493915151566267,-0.3852103054523468,-0.143735870718956,-0.0461443066596984
1772807965441115600,6.34811572265625,0.4648346030324697,-0.31008988539204,0.3889699088288471,-0.4099708795547485,-0.1113140285015106,0.0395936518907547
1772807965461164500,6.36816455078125,0.1312573129385709,-0.3455827851861715,0.2734487288782373,-0.3828544914722442,-0.0040232427418231,0.0991329997777938
1772807965481213700,6.388213623046875,-0.2529612001121044,-0.5011361888609827,0.3211215670160949,-0.2435691505670547,0.1091308891773223,0.1715773195028305
1772807965501262600,6.4082626953125,-0.2978974894255399,-0.4599956385686993,0.3328146716909483,0.0069977673701941,0.2344623953104019,0.2747264504432678
1772807965521311500,6.4283115234375,-0.0147346277952194,-0.5807371104508638,0.4629278926283121,0.1650058180093765,0.2672542631626129,0.4109673202037811
1772807965541360600,6.448360595703125,-0.0441261419743299,-0.7154903026811779,0.568544129962474,0.1737614423036575,0.1124883741140365,0.520628809928894
1772807965561409500,6.468409423828125,-0.0520142648756504,-0.6730655577972531,0.5027971808757633,0.1572398543357849,-0.0039089564234018,0.5625499486923218
1772807965581458700,6.488458740234375,-0.1445662918448448,-0.5445167731650173,0.2927372023192234,0.0804965794086456,-0.0201091654598712,0.5049080848693848
1772807965601507600,6.508507568359375,-0.5655915637671947,-0.4116000025816261,0.2675434503572061,0.0216720066964626,-0.0059907673858106,0.4252119660377502
1772807965621556500,6.528556396484375,-0.831227536535263,-0.1998532947808504,0.1517525500871241,0.0493609793484211,0.1116630733013153,0.4294965267181396
1772807965641605600,6.548605712890625,-0.8244470826148986,-0.1062589191518724,0.0846466972047463,0.1365709900856018,0.3057363629341125,0.4933175444602966
1772807965661654500,6.568654541015625,-0.7907464730650187,-0.1484592076301574,0.166878990211524,0.209858551621437,0.3730699419975281,0.5390971899032593
1772807965681703700,6.58870361328125,-0.5277537082821131,-0.3135860569447278,0.2950342454815283,0.2134964317083358,0.3638103902339935,0.5464320182800293
1772807965701752600,6.608752685546875,-0.3253817086786031,-0.5011861654825508,0.4793599354585632,0.1107876375317573,0.2730436027050018,0.5436986684799194
1772807965721801500,6.628801513671875,-0.5712479820936918,-0.4736090072490274,0.4021723951533436,-0.1216369569301605,0.0843922346830368,0.507519006729126
1772807965741850600,6.6488505859375,-1.203143617373705,-0.3649915422722697,0.2725003786448389,-0.3554348349571228,-0.1092860102653503,0.3693946003913879
1772807965761899500,6.6688994140625,-1.6397721166193484,-0.0370518196739256,0.1054104856289923,-0.4203466475009918,-0.1105231344699859,0.232040673494339
1772807965781948700,6.68894873046875,-2.1090601919293404,0.1900662063904106,0.2910030172040685,-0.3267776370048523,-0.0385910719633102,0.1930102258920669
1772807965801997600,6.70899755859375,-1.836204789301753,0.679563395383954,0.3327756548548117,0.0528339147567749,0.2104855477809906,0.2986306250095367
1772807965822046500,6.72904638671875,-0.9031196373134852,0.8463871117442846,0.4780827185969799,0.5189825296401978,0.4955744743347168,0.5883622765541077
1772807965842095600,6.749095703125,0.0624964959233999,0.7661972843505441,0.7292761053189635,0.6714781522750854,0.451962798833847,0.8617256879806519
1772807965862144500,6.76914453125,0.947576034155488,0.5268956301480532,0.6654401044201106,0.5757423639297485,0.2582240700721741,0.9704945683479308
1772807965882193700,6.789193603515625,1.2248550984442232,0.396184114523977,0.7541938350848854,0.3640874028205871,0.0290550421923398,0.8445318341255188
1772807965902242600,6.80924267578125,1.01154201810956,0.2779382588498294,0.8403673399981111,0.1460990756750106,-0.1813736259937286,0.6329439878463745
1772807965922291500,6.82929150390625,0.5743523778498173,0.4807181086018681,0.6427871777810156,0.0600308924913406,-0.2322535663843155,0.5065984725952148
1772807965942340600,6.849340576171875,0.0818313109904527,0.7841299775347114,0.63017144183591,0.1065496057271957,-0.1737564802169799,0.4869178235530853
1772807965962389500,6.869389404296875,-0.1694967349618673,0.9103096949480474,0.6927383726470172,0.1806099414825439,-0.0838788822293281,0.544069766998291
1772807965982438700,6.889438720703125,-0.0625929420351982,1.0065800117880106,0.4105622204991057,0.2144289314746856,0.11307293176651,0.5995534062385559
1772807966002487600,6.909487548828125,0.225725402662158,0.9568694938100872,0.2421476730170659,0.2268950641155243,0.3165189623832702,0.5529037117958069
1772807966022536400,6.929536376953125,0.3950719154983759,0.7697833261437713,0.2303525144735351,0.2512528300285339,0.3390184044837951,0.4373070001602173
1772807966042585600,6.949585693359375,0.713821638816595,0.546804737971723,0.2988605805703438,0.2613758742809295,0.3144770860671997,0.3103342056274414
1772807966062634500,6.969634521484375,1.1627853035002946,0.370845236736536,0.4235810938850045,0.2302177995443344,0.3765862286090851,0.2186823785305023
1772807966082683600,6.98968359375,1.3047498884141444,0.2683148365885019,0.5307724350487814,0.1440870910882949,0.386775940656662,0.1410734057426452
1772807966102732500,7.009732666015625,1.4611884043604135,0.2800695717900991,0.4348601378662511,0.0419364422559738,0.3669991493225097,0.0716944187879562
1772807966122781400,7.029781494140625,1.4486217682540417,0.2116381328597664,0.4114012651391327,-0.0578213967382907,0.3083804845809936,0.0253794603049755
1772807966142830600,7.04983056640625,1.2148036600291727,0.1111474218457937,0.4820434023888781,-0.1366524398326873,0.1932995617389679,-0.0210924949496984
1772807966162879500,7.06987939453125,0.9746475809544324,0.0739057786881923,0.4234813233049586,-0.1368193626403808,0.0837043896317482,-0.0389189794659614
1772807966182928600,7.0899287109375,0.7994786455750464,0.1330719611451029,0.2572743506034836,-0.1232711151242256,0.0323161222040653,-0.0439876765012741
1772807966202977500,7.1099775390625,0.5933920093625784,-0.0029380992785096,0.250773517342098,-0.1252597868442535,0.0067883823066949,-0.0399327203631401
1772807966223027200,7.130027099609375,0.2595785724252462,-0.0082993340507149,0.1268994465226307,-0.1824781000614166,-0.0805524960160255,-0.070579670369625
1772807966243076400,7.150076416015625,-0.1083931547015905,-0.0402674207195639,-0.0794495304204523,-0.2502362430095672,-0.1489177793264389,-0.1395256966352462
1772807966263125500,7.17012548828125,-0.6006143618315458,0.1428977741107344,-0.1948573131244629,-0.2182815223932266,-0.1751329898834228,-0.2182933688163757
1772807966283174400,7.19017431640625,-0.811135765621066,0.3141303929544985,-0.269645719866082,-0.06694907695055,-0.0690324530005455,-0.230256900191307
1772807966303223300,7.210223388671875,-0.885928264015913,0.3393411143176257,-0.2590844322327524,0.0835468247532844,0.0318288914859294,-0.1421596854925155
1772807966323272200,7.230272216796875,-0.7606640540122985,0.2351658695720136,-0.1496500613825395,0.1965506076812744,0.0697785019874572,-0.0430639721453189
1772807966343321300,7.2503212890625,-0.513391420930624,0.003872603649646,-0.1654961940836161,0.2386650741100311,0.0890613496303558,0.0055478778667747
1772807966363370500,7.27037060546875,-0.4350391842275857,-0.0111792734012007,-0.3487657626038417,0.1520316898822784,0.0287762712687253,-0.0533325374126434
1772807966383419400,7.29041943359375,-0.5236760835796594,-0.1142526943847537,-0.4249259326227009,-0.0219044536352157,-0.0708568394184112,-0.1710897237062454
1772807966403468300,7.31046826171875,-0.5653367122232914,-0.0778695677526295,-0.5285007272571325,-0.2121746689081192,-0.0847276225686073,-0.3389970362186432
1772807966423517200,7.33051708984375,-0.766213504832983,0.1149887535743415,-0.6385425990138203,-0.3500250279903412,-0.0911618322134018,-0.4897256791591644
1772807966443566300,7.35056640625,-1.1119903512865303,0.305218479963392,-0.6592433686718344,-0.4100660681724548,-0.1337056457996368,-0.5834692716598511
1772807966463615500,7.370615478515625,-1.368826931527257,0.5334546964026987,-0.7097364883948117,-0.3554497957229614,-0.1416128575801849,-0.6377784013748169
1772807966483664400,7.390664306640625,-1.3515443728148937,0.6952893723040818,-0.7352073950640857,-0.1181777343153953,-0.0693666934967041,-0.6287806630134583
1772807966503713300,7.41071337890625,-0.9610258828371764,0.7339487733051181,-0.7649990875419229,0.2072447389364242,0.0316161997616291,-0.5233482122421265
1772807966523762200,7.43076220703125,-0.4024117568671703,0.5320929065302014,-0.7890640729360282,0.3595748543739319,0.0408986881375312,-0.4261269569396972
1772807966543811300,7.450811279296875,0.1933849755495786,0.2990250321507454,-0.8033640356410294,0.3428210318088531,-0.0189578458666801,-0.41196209192276
1772807966563860500,7.470860595703125,0.4684516244858503,0.2426917350322008,-0.9988072588946668,0.2365725487470626,-0.1008767485618591,-0.5095013380050659
1772807966583909400,7.490909423828125,0.5014069686263799,0.389572587429732,-1.1649623552784325,0.1175525933504104,-0.1515685021877288,-0.6721929907798767
1772807966603958300,7.510958251953125,0.4663374088108539,0.5313507098607718,-1.1392119010154158,0.0506879426538944,-0.1696027815341949,-0.795586109161377
1772807966624007200,7.531007080078125,0.6867559372365474,0.5040536837428808,-0.9326501215718686,-0.0040728626772761,-0.0959064811468124,-0.8370838761329651
1772807966644056300,7.551056396484375,0.8943120614796877,0.5071078106164932,-0.7595752358622848,-0.0202515665441751,0.0140209505334496,-0.8105315566062927
1772807966664105500,7.57110546875,0.9478326392650605,0.5138803734913469,-0.6866071764156222,0.0035511038731783,0.0666718780994415,-0.738532543182373
1772807966684154400,7.591154296875,1.2050865681350231,0.3627668519601225,-0.5912260635003447,0.0222891941666603,0.0970474332571029,-0.7008805274963379
1772807966704203300,7.611203369140625,1.3365502173006534,0.1670024339281022,-0.3992683442749082,-0.0076668839901685,0.0324314162135124,-0.6790623664855957
1772807966724252200,7.631252197265625,1.2388555667459964,-0.0819574215881526,-0.2911720536280423,-0.0406435653567314,-0.0871148556470871,-0.6213290095329285
1772807966744301300,7.65130126953125,1.1927940727949142,-0.0767851335167884,-0.3749243227437138,-0.0856076627969741,-0.1655305027961731,-0.5447365641593933
1772807966764350500,7.6713505859375,0.8876713082909583,-0.2379195521943271,-0.4969669403523206,-0.1867986917495727,-0.2649538516998291,-0.4719478785991668
1772807966784399400,7.6913994140625,0.4388011671096086,-0.2739297538608312,-0.6384756712574512,-0.2145866453647613,-0.3219484686851501,-0.4390128850936889
1772807966804448300,7.7114482421875,0.0927946035534143,-0.3085753891758621,-1.010212230810523,-0.1529955863952636,-0.2608360350131988,-0.3942068219184875
1772807966824497200,7.7314970703125,-0.199091078236699,-0.3325282194323837,-1.2775968008115888,-0.0468056760728359,-0.1870166957378387,-0.4125199913978576
1772807966844546300,7.75154638671875,-0.6760118403822183,-0.3978893110066652,-1.3323735161378978,0.1622016429901123,-0.1978897005319595,-0.494722306728363
1772807966864595500,7.771595458984375,-1.0252437957257032,-0.3312459245368838,-1.3943135472223165,0.3892087042331695,-0.1792235970497131,-0.5814574360847473
1772807966884644400,7.791644287109375,-1.078366898626089,-0.3483655477724969,-1.4264089135326443,0.5742766857147217,-0.0231850855052471,-0.6528985500335693
1772807966904693200,7.811693359375,-1.1483598877847194,-0.3326088834531605,-1.0797670477475971,0.6863915324211121,0.0691419169306755,-0.7252108454704285
1772807966924742100,7.8317421875,-0.7438420985490083,-0.3251329946145415,-0.8865154893193393,0.7500766515731812,0.2186947017908096,-0.7014069557189941
1772807966944791300,7.851791259765625,-0.36964404425323,-0.1262526365190744,-0.8366095948997885,0.7035952806472778,0.3341052830219269,-0.6422872543334961
1772807966964839200,7.871839111328125,-0.43074177929461,-0.1385252581149339,-0.6310093539647758,0.4896589815616607,0.2127194851636886,-0.6326677203178406
1772807966984888300,7.891888427734375,-0.4535942470937967,-0.0738905811190605,-0.3163281221944838,0.2492095530033111,-0.0442250296473503,-0.6846300959587097
1772807967004937500,7.9119375,-0.7570616456061601,0.2633914087116718,-0.2937635314259678,0.1963921040296554,-0.2652734816074371,-0.7130330204963684
1772807967024986400,7.931986328125,-0.6299135215520858,0.8581526606008409,-0.3679807141508907,0.3125175833702087,-0.2562677264213562,-0.699897050857544
1772807967045035300,7.95203515625,-0.4123685027360916,0.8835381540089845,-0.3912606135819107,0.2864504158496856,-0.2157376110553741,-0.6787311434745789
1772807967065084200,7.972084228515625,-0.2641904501348733,0.7531865577384829,-0.172991810536012,0.1049305871129036,-0.2078810334205627,-0.7335196733474731
1772807967085133300,7.99213330078125,-0.5021054722845554,0.7662929998099803,-0.2000487442877143,0.0336440689861774,-0.1987974941730499,-0.8104155659675598
1772807967105182500,8.012182373046874,-0.5855465565592051,1.110187978039682,-0.4755168136317282,0.0653445646166801,-0.1348083615303039,-0.8551365733146667
1772807967125231400,8.0322314453125,-0.47525955093503,1.2201628489747642,-0.4157205165777355,0.16767618060112,-0.0396466553211212,-0.8419795632362366
1772807967145280300,8.0522802734375,-0.4109674037665128,1.3880357821270823,-0.3474699871722608,0.3315677642822265,-0.0596674755215644,-0.7846851944923401
1772807967165329200,8.0723291015625,-0.1713642823994159,1.4356412906497715,-0.2715579101629555,0.4744117856025696,-0.1742314398288726,-0.7050296068191528
1772807967185378300,8.09237841796875,0.1409498549133539,1.4543603119060395,-0.2466145344991236,0.4864822626113891,-0.3209790885448456,-0.6723950505256653
1772807967205427500,8.112427490234374,0.3951736223071813,1.3977254014924168,-0.3846162071313709,0.4005704820156097,-0.4282733798027038,-0.6920846700668335
1772807967225475300,8.132475341796875,0.2989747632682323,1.4390002456888555,-0.5827246310062706,0.3057542145252228,-0.5120362043380737,-0.8111565113067627
1772807967245524500,8.1525244140625,0.0447714541405439,1.4659180632308124,-0.866923338490352,0.2206662893295288,-0.5645521283149719,-1.0100303888320925
1772807967265573400,8.172573486328124,-0.3244096487760544,1.383588155068457,-0.9129027801811694,0.1777959167957306,-0.5797214508056641,-1.2643663883209229
1772807967285622300,8.192622314453125,-0.4629822531640529,1.3311737849593162,-0.652779652550444,0.179067313671112,-0.4772897064685821,-1.4902210235595703
1772807967305671200,8.212671142578126,-0.5751888286739587,1.3532009078502654,-0.467018815203756,0.2198233157396316,-0.3570954501628876,-1.591465950012207
1772807967325720300,8.23272021484375,-0.5058937586516141,1.3190657062754034,-0.1796733341265469,0.2910931408405304,-0.3093775808811188,-1.6006139516830444
1772807967345769500,8.25276953125,-0.3846674258619547,1.2176795077264309,-0.019001491459459,0.3085305392742157,-0.424087643623352,-1.5547256469726562
1772807967365818400,8.272818359375,-0.4058540062755346,1.3554901878312229,-0.2177595383495092,0.1867882162332534,-0.5567004084587097,-1.5039714574813845
1772807967385867300,8.2928671875,-0.1848088703840971,1.3206506373792886,-0.2963323590006679,0.0698331892490387,-0.5188066959381104,-1.5079858303070068
1772807967405916200,8.312916259765625,-0.2914934676021337,1.3347972361534832,-0.3138365245744586,0.0632016509771347,-0.4501547515392303,-1.5413151979446411
1772807967425965300,8.33296533203125,-0.3137754420369863,1.4222130692780015,-0.5145293389193714,0.1385268419981002,-0.3981930315494537,-1.569860577583313
1772807967446014500,8.353014404296875,-0.3075187197297811,1.4380869302362205,-0.5430384442407638,0.169719249010086,-0.4686270356178283,-1.630431056022644
1772807967466063400,8.3730634765625,-0.1649701974481344,1.321179629689455,-0.4302390174042433,0.135537713766098,-0.5351256132125854,-1.7111849784851074
1772807967486112300,8.3931123046875,-0.2605260824084282,1.4110551309257744,-0.3757075820758938,0.096891388297081,-0.5851865410804749,-1.7519601583480835
1772807967506161200,8.4131611328125,-0.3666986384510994,1.4939540711477397,-0.4996428815633058,0.086836539208889,-0.5953943729400635,-1.7489808797836304
1772807967526210300,8.433210205078124,-0.4782400280505418,1.4159914182841775,-0.3757395846493542,0.1175850853323936,-0.6142416000366211,-1.7733056545257568
1772807967546259500,8.453259521484375,-0.7234481298178433,1.41010323702842,-0.4354359284602105,0.1472522467374801,-0.7352042198181152,-1.7797914743423462
1772807967566308400,8.473308349609376,-0.6164905608773231,1.335862819558382,-0.5129937999151647,0.1946009546518325,-0.7707712054252625,-1.777226805686951
1772807967586357200,8.493357177734374,-0.5409890374302864,1.2544926963388918,-0.4641304002858698,0.2325588911771774,-0.7692314386367798,-1.801653861999512
1772807967606406100,8.51340625,-0.5349924273639917,1.196140168352425,-0.5041284294795244,0.2274179309606552,-0.8313642740249634,-1.8331130743026731
1772807967626455300,8.533455322265626,-0.6206377436846494,1.2020140288218857,-0.6159083040099591,0.193443939089775,-0.9425277709960938,-1.90279221534729
1772807967646504400,8.55350439453125,-0.598068184480071,1.1383835604324937,-0.7619671725001186,0.1993417292833328,-0.946783721446991,-2.0198416709899902
1772807967666553300,8.57355322265625,-0.7170043605059385,1.1972674188166856,-0.9249242765601724,0.216910108923912,-0.9288729429244996,-2.1770808696746826
1772807967686602200,8.593602294921874,-0.6626151831924915,1.2709981331989169,-1.054695369528979,0.1898764967918396,-0.8867644667625427,-2.3612515926361084
1772807967706651100,8.613651123046875,-0.5706845029920339,1.296512805944681,-0.9999747683040796,0.1350531131029129,-0.80000239610672,-2.526509046554565
1772807967726700300,8.6337001953125,-0.6929571299642324,1.3679533635631205,-0.7607007327608764,0.091477058827877,-0.8205946087837219,-2.652297019958496
1772807967746748200,8.653748046875,-0.7717921817481518,1.5938438936591148,-0.828628971409425,0.056373082101345,-0.8619998097419739,-2.68580174446106
1772807967766797300,8.67379736328125,-0.7180740355640649,1.788676729929447,-0.967937123530358,0.0744266957044601,-0.8031005263328552,-2.6441988945007324
1772807967786846500,8.693846435546876,-0.3851227684140205,1.9357576349437235,-1.0380104844488205,0.1386551260948181,-0.6597015261650085,-2.6095218658447266
1772807967806895400,8.713895263671875,-0.2424304537475109,1.8685911013826728,-0.8617889712765813,0.1761954724788665,-0.6835820078849792,-2.5772337913513184
1772807967826944300,8.7339443359375,0.307729732131958,1.6707155364155768,-0.5477738752648234,0.1564146727323532,-0.7024860382080078,-2.505586624145508
1772807967846993200,8.7539931640625,0.4531225379288196,1.5310717956647275,-0.4599282724209129,0.0324476398527622,-0.7941316962242126,-2.388721466064453
1772807967867042300,8.774042236328125,0.2442617608278989,1.4585656546413897,-0.3568647152442485,-0.0252974294126033,-0.9135300517082214,-2.264845609664917
1772807967887091500,8.794091552734375,-0.0439689055860042,1.3982804050266742,-0.4946639971721917,-0.0367599241435527,-0.9338697791099548,-2.19263219833374
1772807967907140400,8.814140380859374,-0.2283621809065341,1.2269488558530808,-0.4620454107053577,-0.0108062643557786,-0.8599185943603516,-2.159238338470459
1772807967927189200,8.834189208984375,-0.1791454377949237,1.1772393607884646,-0.4096330864228308,0.0344106554985046,-0.7673435211181641,-2.087166547775269
1772807967947238100,8.854238037109376,-0.0627513474673032,0.905135945571959,-0.3199666248273104,0.0313153080642223,-0.7246168255805969,-1.9678564071655276
1772807967967287300,8.874287353515625,0.0772697021633386,0.6331608329102396,-0.0989841789085417,-0.0136227337643504,-0.7812191843986511,-1.87797486782074
1772807967987336400,8.89433642578125,0.0739449416548013,0.4045651355087757,-0.0518036177996546,-0.0821932256221771,-0.90641850233078,-1.7870362997055054
1772807968007385300,8.91438525390625,-0.0259819979965686,0.2821066305756569,-0.0660453475113958,-0.1327520608901977,-0.987869679927826,-1.7341768741607666
1772807968027434200,8.934434326171875,-0.3232785989195108,0.3376733272358775,-0.2278499205354601,-0.234729915857315,-1.0399121046066284,-1.6997586488723757
1772807968047483100,8.954483154296875,-0.1271557228386402,0.069978668372333,-0.2057857535697519,-0.3057143986225128,-0.8744943737983704,-1.670466423034668
1772807968067532300,8.9745322265625,-0.1310585754960775,0.2113642843544483,-0.2293555393254384,-0.1873902678489685,-0.6569731831550598,-1.669618844985962
1772807968087581400,8.99458154296875,0.1169265897691249,0.1908437666341662,-0.1284501465633511,0.0314063020050525,-0.4836560785770416,-1.6200976371765137
1772807968107630300,9.01463037109375,0.1386690504997968,0.0449438880980014,0.0492648931022733,0.0795173272490501,-0.6000792384147644,-1.5450412034988403
1772807968127679200,9.03467919921875,0.1993231334269046,-0.2652181857474148,0.1837144262108951,-0.0302034877240657,-0.7262841463088989,-1.516143560409546
1772807968147728100,9.05472802734375,0.181951727387309,-0.1786535626247525,0.027232893106807,-0.0892375260591507,-0.6525009274482727,-1.567335605621338
1772807968167777300,9.07477734375,-0.0582616348326206,-0.2239151383697986,-0.020677845440153,-0.1763028651475906,-0.5733544826507568,-1.6275064945220947
1772807968187826400,9.094826416015623,0.0198427645891904,-0.2199856899663805,-0.023185818806244,-0.2272344082593917,-0.4029130935668945,-1.6046453714370728
1772807968207875300,9.114875244140626,0.055817748811841,-0.3099664051428437,0.1316227487174794,-0.1975321024656295,-0.2336723208427429,-1.499533772468567
1772807968227924200,9.13492431640625,-0.0377893401682376,-0.2828114178441465,0.1828751623751595,-0.0786784291267395,-0.2355320304632187,-1.3526694774627686
1772807968247973000,9.15497314453125,0.2949509145796299,-0.5465075085908174,0.0745219560914672,0.0302890613675117,-0.2290026992559433,-1.2096179723739624
1772807968268022000,9.17502197265625,0.3975660704016685,-0.7157393090061843,0.2175590290750376,0.0345516316592693,-0.300710916519165,-1.1251378059387207
1772807968288071200,9.1950712890625,0.3979571155458688,-0.8858632359556853,0.2970825928460806,0.0324573591351509,-0.380213588476181,-0.9964478611946106
1772807968308120300,9.215120361328124,0.4533271205902099,-0.8338942715264857,0.1908580874204635,0.060318287461996,-0.3796942234039306,-0.8215270042419434
1772807968328168200,9.235168212890626,0.1880880381852388,-0.9627154433593154,0.1725001180289313,0.0359643436968326,-0.4650938808917999,-0.6770987510681152
1772807968348217300,9.25521728515625,-0.1664817710548639,-0.9161902774192392,-0.129128182822233,-0.066642589867115,-0.5762361288070679,-0.6546670198440552
1772807968368266000,9.275265869140624,-0.4011871835082769,-0.716266693881154,-0.2490686679192818,-0.156435415148735,-0.5732657313346863,-0.7759400606155396
1772807968388315100,9.295315185546874,-0.6432903049975633,-0.1560595996312797,-0.1688736894263885,-0.0891191363334655,-0.3934628963470459,-0.9970797896385192
1772807968408364300,9.3153642578125,-0.2797580216228962,0.0935156113043427,0.0850059224385768,0.0348528325557708,-0.0200744699686765,-1.116927981376648
1772807968428413200,9.3354130859375,-0.5855564934313296,0.0245550339333713,0.775517924273014,0.1628993898630142,-0.052274439483881,-1.0276854038238523
1772807968448462300,9.35546240234375,-0.3922802389532327,0.0069949734538793,0.6983600119210779,0.2585541009902954,-0.2301230430603027,-0.7411366105079651
1772807968468511200,9.37551123046875,-0.0599164163023233,-0.2154766881093382,0.7281389910478144,0.273155003786087,-0.2284396886825561,-0.4519851207733154
1772807968488560000,9.39556005859375,0.2121335151612758,-0.1882297847434878,0.7816052813626825,0.2392172366380691,-0.0598347075283527,-0.3621167838573456
1772807968508609300,9.415609375,0.1982423524528741,-0.1744251312747597,0.6533508765671402,0.2358337789773941,-0.0030917834956198,-0.389852225780487
1772807968528658200,9.435658203125,0.355067237368226,-0.059021805550158,0.6040820014094933,0.2266160398721695,-0.0008375440374948,-0.5157077312469482
1772807968548707300,9.455707275390624,0.817490103083849,-0.0528475008293986,0.7687957764111458,0.1529012024402618,0.1474135369062423,-0.625471830368042
1772807968568756200,9.475756103515623,0.7986679137140512,0.0201522689297795,0.8569737530145793,-0.0209055114537477,0.1975499987602234,-0.6077905297279358
1772807968588805000,9.49580517578125,0.7944821524620056,0.0320350144252181,0.9642564622562378,-0.1953574419021606,0.2186738699674606,-0.5541670322418213
1772807968608854300,9.515854248046876,0.5291542227298021,-0.0646893297925591,0.8804560431499033,-0.3250319063663482,0.4322734177112579,-0.637896716594696
1772807968628903200,9.535903076171875,0.0024427169770002,-0.0945462695263326,0.765562639708817,-0.2652683556079864,0.546297550201416,-0.7760636210441589
1772807968648952300,9.555952392578124,-0.2871487163960933,-0.0725932347849011,0.7782562631957233,-0.1132899820804596,0.3364683389663696,-0.8000737428665161
1772807968669001200,9.576001220703125,0.0273047710329294,0.0658919835805892,0.9307298210337758,0.0302852448076009,0.0588879249989986,-0.7285612225532532
