time,seconds_elapsed,accel_z,accel_y,accel_x,gyro_x,gyro_y,gyro_z
1772807992640043300,0.097043212890625,1.139143731150031,0.1063838607057929,-0.2140037660125643,0.2776159942150116,0.139295607805252,-0.1091708838939666
1772807992660092400,0.117092529296875,1.7438731270849703,0.1791862081967294,-0.1386074565056711,0.3197818994522095,0.1828286945819854,-0.0742410197854042
1772807992680141600,0.1371416015625,1.9926585028171535,0.0154866152063012,0.0192273361045867,0.2018480896949768,0.1466288417577743,-0.0182783063501119
1772807992700190200,0.157190185546875,2.039796101567149,-0.2017757872760295,0.1854046443201601,0.0158207528293132,0.0396511666476726,0.0127039346843957
1772807992720239400,0.1772392578125,1.8197732944607732,-0.2834443089202046,0.2764845894427969,-0.0950842797756195,-0.0860123187303543,0.0345803461968898
1772807992740288300,0.197288330078125,1.7270809822380542,-0.2202012324132025,0.0628556846246123,-0.1936399340629577,-0.1640080362558365,0.0981135368347168
1772807992760338400,0.21733837890625,1.6610457907944918,-0.3154699709951877,-0.1144905217286199,-0.3286119401454925,-0.1403530836105346,0.1385267376899719
1772807992780387300,0.23738720703125,1.406449682956934,-0.3802778126008808,-0.0477959895934909,-0.4267104268074035,-0.0750473365187645,0.1102184355258941
1772807992800436200,0.257436279296875,1.1374357581883667,-0.4643085333317518,0.0015597966626286,-0.4055190980434418,0.0194507576525211,0.0970926731824874
1772807992820485400,0.2774853515625,0.8576362355113029,-0.4278104020178317,-0.0945011152103543,-0.333598792552948,0.0570848956704139,0.118260845541954
1772807992840534500,0.297534423828125,0.5098661694139242,-0.5591879803352058,0.147291113698855,-0.3253968358039856,-0.0121056092903018,0.1453361511230468
1772807992860583400,0.31758349609375,0.122191378429532,-0.6611977176100016,0.2657531694069505,-0.3168263733386993,-0.0831556096673011,0.2235512733459472
1772807992880632300,0.33763232421875,-0.2590244456738233,-0.6011060908712447,0.2370022912189364,-0.2397389262914657,-0.0834183990955352,0.3098116517066955
1772807992900681200,0.35768115234375,-0.7410124280810356,-0.5663306186314672,0.2230209660090505,-0.0716597661375999,-0.0499142743647098,0.3884329795837402
1772807992920730400,0.37773046875,-0.8814724536508322,-0.4544549555763602,0.0998085009034723,0.0846829712390899,0.0068365978077054,0.4532494246959686
1772807992940779500,0.397779541015625,-1.125603281575441,-0.4614982251513749,0.0399038481041789,0.1500914990901947,0.0011073070345446,0.505670428276062
1772807992960828400,0.417828369140625,-1.0703910974413156,-0.4129956947237252,-0.1518475348941981,0.2236463725566864,0.1023036986589431,0.5347955226898193
1772807992980877300,0.437877197265625,-0.9511538926422596,-0.4385555217854678,-0.3011833061631769,0.3156368136405945,0.3005708158016205,0.557941734790802
1772807993000926200,0.45792626953125,-0.9205126706629992,-0.5487187548995017,-0.2692432765450328,0.3169843256473541,0.3653226196765899,0.5724208354949951
1772807993020975400,0.477975341796875,-0.7117629527211189,-0.7731985414147377,-0.173378910157457,0.2561532258987427,0.3542414605617523,0.5593141913414001
1772807993041024500,0.4980244140625,-0.7015776587933301,-0.8130152957573532,-0.1566797773562371,0.0335716158151626,0.2624135613441467,0.4742990136146545
1772807993061074200,0.51807421875,-1.1977613398134708,-0.5845820954412222,-0.2187902696367353,-0.3305183053016662,0.00099414633587,0.2299307584762573
1772807993081123300,0.538123291015625,-2.1023194854974747,-0.3126455612242221,-0.0277599674545228,-0.5823422074317932,-0.24423448741436,-0.0459643378853797
1772807993101172500,0.55817236328125,-2.442335868728161,0.3625629999510943,-0.1003968221854418,-0.4869368970394134,-0.1386635154485702,-0.1527557373046875
1772807993121221400,0.578221435546875,-2.468728785613179,0.9772365745343268,-0.2203266854237765,-0.1744502335786819,0.1622267216444015,-0.0664135962724685
1772807993141270300,0.598270263671875,-2.051103677523136,1.064622889303416,0.0146191481893882,0.2620058953762054,0.5285245776176453,0.2315945327281952
1772807993161319200,0.618319091796875,-0.7529922042101621,0.9461643407266588,0.4202419395249336,0.6793060898780823,0.7508902549743652,0.5965717434883118
1772807993181368300,0.638368408203125,0.1827437545478344,0.764286920684576,0.5867887751726434,0.9065487384796144,0.5890978574752808,0.8284468650817871
1772807993201417500,0.65841748046875,1.274250705254078,0.6027639410808682,0.6150596512913703,0.8922825455665588,0.3318232297897339,0.8709419965744019
1772807993221466400,0.67846630859375,1.6794979778081178,0.2704160466514527,0.6715428782746196,0.6312736868858337,0.0155718382447958,0.7886117696762085
1772807993241518600,0.6985185546875,1.5068559305578468,0.1693811457581818,0.6383862394083291,0.2706953883171081,-0.3191422522068023,0.5955740213394165
1772807993261567500,0.7185673828125,0.7955243549913168,0.3932724648609757,0.4325346540607512,0.0418490245938301,-0.5399449467658997,0.4083209335803985
1772807993281616600,0.73861669921875,0.1134843403607606,0.6835724848948419,0.1570849240910261,-0.0203716047108173,-0.5323695540428162,0.2692305147647857
1772807993301665500,0.75866552734375,-0.5281131892442703,0.7854979048870503,0.1332064742449671,0.0011502429842948,-0.387722909450531,0.1648458540439605
1772807993321714700,0.778714599609375,-0.7793658318728208,0.9321297509595752,0.1119742280587553,0.1636645495891571,-0.1021590828895568,0.1439428329467773
1772807993341764600,0.7987646484375,-0.5426005642801522,1.0272956136889757,0.0356562736622989,0.355798065662384,0.2391809374094009,0.1823608577251434
1772807993361813500,0.8188134765625,0.0686719696879386,0.8567888249017298,0.0844542068399488,0.4348779320716858,0.4541528522968292,0.1987997442483902
1772807993381862700,0.838862548828125,0.8679138838976621,0.5789293303765356,0.2213433151204138,0.3825873434543609,0.5146715641021729,0.1210494711995124
1772807993401911600,0.85891162109375,1.530707346266508,0.3041853375233709,0.2714324206197634,0.2720355689525604,0.5027145147323608,0.004267122130841
1772807993421960700,0.878960693359375,1.7125199574440717,0.0888414820134639,0.4151685087181627,0.1364721208810806,0.3691528141498565,-0.1174761280417442
1772807993442009600,0.899009521484375,1.662790588635206,0.0615729513376951,0.4861979282524436,0.017928309738636,0.1498267948627472,-0.2253688275814056
1772807993462058500,0.91905859375,1.4560779294788837,0.1313160573884844,0.4632603394530713,-0.0645835772156715,-0.003366463817656,-0.3027119636535644
1772807993482107600,0.939107666015625,1.191293020582199,0.2173109177991747,0.5268935843214393,-0.1225193068385124,-0.0196586418896913,-0.3016544878482818
1772807993502156500,0.959156494140625,0.772757811909914,0.2097385828487575,0.5414231179986149,-0.1437378674745559,-0.0381638891994953,-0.2079472839832306
1772807993522205700,0.979205810546875,0.4759738366842269,0.2777875983327627,0.4149965131521225,-0.1195834875106811,-0.0485403388738632,-0.1424432396888733
1772807993542254600,0.999254638671875,0.2273521270811557,0.1635733362622559,0.3957572308814153,-0.0729472860693931,-0.070242129266262,-0.1122723966836929
1772807993562303500,1.019303466796875,0.2499731242120265,0.1619020420491695,0.2661436482955701,-0.0243266057223081,-0.0630210191011428,-0.0983164310455322
1772807993582352600,1.0393525390625,0.3589858721166848,0.1118485558524727,0.1877747892512939,-0.0314414985477924,-0.0655305385589599,-0.116783931851387
1772807993602402600,1.059402587890625,0.2659691502451896,-0.0703029318906366,0.272502150476817,-0.1122321039438247,-0.1687769740819931,-0.1381648033857345
1772807993622451500,1.079451416015625,-0.0282096109181642,-0.1337336399242281,0.2966437265047803,-0.1342129558324813,-0.2989266812801361,-0.13672836124897
1772807993642500600,1.09950048828125,-0.3571791149556637,0.0369053969405591,0.1501245470264926,-0.0238842461258173,-0.3361673653125763,-0.1100282967090606
1772807993662549500,1.119549560546875,-0.292882291612029,-0.0331403453186154,0.0947220644846558,0.1158443838357925,-0.2385920286178589,-0.0421845875680446
1772807993682598700,1.1395986328125,0.0441699811160564,-0.1273950845524668,0.0138624846031889,0.1377441883087158,-0.1631446927785873,-0.0066388831473886
1772807993702647800,1.159647705078125,0.2015951700121164,-0.2032410375230014,-0.1331734487581998,-0.0135856736451387,-0.2448896318674087,-0.045049387961626
1772807993722696400,1.179696533203125,0.3205103032499551,-0.3525467789798975,-0.2333564089972525,-0.2643566429615021,-0.351481020450592,-0.1441012471914291
1772807993742745600,1.19974560546875,-0.2205535529822111,-0.2574325003072619,-0.4548446855463087,-0.5976184010505676,-0.5468042492866516,-0.3405455648899078
1772807993762794500,1.21979443359375,-1.208960194697976,0.0344375455223023,-0.793263424322009,-0.8815045952796936,-0.6877444982528687,-0.600479006767273
1772807993782843600,1.23984375,-1.9630337644040583,0.3040225481770932,-1.046497961482778,-0.9498679041862488,-0.5495235323905945,-0.7897441983222961
1772807993802892800,1.259892822265625,-2.263192184498906,0.7685273347333074,-1.2003355742156503,-0.6960887312889099,-0.1613486409187317,-0.8762120604515076
1772807993822941400,1.27994140625,-2.089321472236514,0.7982697081767022,-0.924857641064748,-0.2705370783805847,0.2791624963283539,-0.808117151260376
1772807993842991600,1.29999169921875,-1.498956117218733,0.724236795977503,-0.5470496526435017,0.1314203143119812,0.5162711143493652,-0.5792743563652039
1772807993863040800,1.320040771484375,-0.6211106218934058,0.5247198935441673,-0.3344762116950005,0.3961729407310486,0.4649328291416168,-0.3386877477169037
1772807993883089700,1.340089599609375,0.1867179188758134,0.3193867060475051,-0.3678778017656877,0.4949598312377929,0.2036509215831756,-0.2005171179771423
1772807993903138600,1.360138671875,0.7402823602408171,0.1176695170909166,-0.5895940783843397,0.434815376996994,-0.0577625297009944,-0.1813026219606399
1772807993923187500,1.3801875,1.070056166398525,0.237654763778299,-1.0512510742940009,0.27586629986763,-0.212129458785057,-0.3065997064113617
1772807993943236600,1.400236572265625,1.0103571922391652,0.3198474554270505,-1.3363991183921693,0.0602138936519622,-0.2761079370975494,-0.5186912417411804
1772807993963285800,1.42028564453125,0.7719692918807267,0.4118012242421507,-1.296610859491676,-0.0879544094204902,-0.2056639343500137,-0.6981281042098999
1772807993983334700,1.440334716796875,0.6302391002446412,0.5885387241125106,-1.0039967172965407,-0.0667183622717857,0.0130375428125262,-0.7606624960899353
1772807994003383600,1.460383544921875,0.7408224584668874,0.6684782300069928,-0.6556179447162896,-0.0004698007833212,0.2184234708547592,-0.6897979974746704
1772807994023432400,1.480432373046875,0.9711521400541068,0.5407981910333037,-0.2387284574244171,0.0054073492065072,0.2563974857330322,-0.5640484690666199
1772807994043481600,1.500481689453125,0.9895043738245964,0.3529441077344119,0.1098935858597978,0.0225235782563686,0.1003900468349456,-0.4573574364185333
1772807994063530800,1.52053076171875,1.2732143479436635,0.2505060620449483,0.2532266461152583,0.0564876273274421,-0.0237438920885324,-0.3402710855007171
1772807994083579600,1.54057958984375,1.377448629400134,0.0582582738317549,0.1966368900176137,-0.0292328614741563,-0.1103141382336616,-0.2185938209295272
1772807994103629600,1.560629638671875,1.551569517031312,-0.0911335384733974,0.1343600647268816,-0.1628196835517883,-0.0892563685774803,-0.1197423264384269
1772807994123678700,1.5806787109375,1.2072270872950552,-0.2221704866595566,0.0144533631684258,-0.2660121917724609,-0.1084896326065063,-0.0607370808720588
1772807994143727600,1.6007275390625,1.0161696779102087,-0.273072260248661,-0.1991930773064494,-0.2863320708274841,-0.0942672938108444,-0.0357166193425655
1772807994163776500,1.620776611328125,0.7588269017130136,-0.4527439138747751,-0.2659358324974775,-0.32216277718544,-0.0809494107961654,-0.0575947761535644
1772807994183825400,1.640825439453125,0.4545920259594917,-0.5273394283927977,-0.1145644272150471,-0.299020379781723,-0.0788135826587677,-0.0730083808302879
1772807994203874600,1.66087451171875,0.1520925956964492,-0.4826731881923973,-0.1708272894458845,-0.2288005352020263,-0.0424800254404544,-0.0188567787408828
1772807994223923700,1.680923828125,0.0575450109958648,-0.5343512068510056,-0.112000458478555,-0.1719789952039718,0.0611030720174312,0.0665241405367851
1772807994243969800,1.7009697265625,-0.203414202132821,-0.6255624867357313,-0.028783794076927,-0.0899978578090667,0.0931867063045501,0.1479649394750595
1772807994264018400,1.721018310546875,-0.282346869072318,-0.6150516141153871,-0.1291453988185152,0.0410340167582035,0.1091212034225463,0.1990865617990493
1772807994284067600,1.741067626953125,-0.2583814715951681,-0.6526411939278245,-0.216015873019956,0.1151998490095138,0.1246695592999458,0.2045740932226181
1772807994304116500,1.761116455078125,-0.3125888626009225,-0.637010347945243,-0.3438649484176188,0.1488446444272995,0.1163119822740554,0.1624408662319183
1772807994324165600,1.78116552734375,-0.3516799330174923,-0.5275085013493895,-0.5607354289729147,0.1270882040262222,0.1355863809585571,0.0869079008698463
1772807994344215600,1.801215576171875,-0.41140170353055,-0.4645188150815665,-0.687698113457486,0.0291023850440979,0.1562690287828445,0.0286569446325302
1772807994364264400,1.821264404296875,-0.3140875767260789,-0.4817044892907142,-0.6176413383476436,-0.1224617511034011,0.1958920657634735,0.0172747075557708
1772807994384313600,1.841313720703125,-0.05805763669312,-0.5462244538657367,-0.4744354846684261,-0.2656585872173309,0.2025952041149139,0.0477014370262622
1772807994404362800,1.86136279296875,-0.6508668777316808,-1.018860524429381,0.0848433157553896,-0.2884320020675659,0.0650840178132057,0.0623805895447731
1772807994424411600,1.88141162109375,-1.399772689411044,-0.9255154473863542,0.239914415805973,-0.034045148640871,-0.042489368468523,0.0112914592027664
1772807994444460500,1.90146044921875,-1.3083844455242155,-0.585804038451612,-0.0104335696004331,0.2160388678312301,0.0770023763179779,-0.0234188344329595
1772807994464509400,1.921509521484375,-1.4789730673760175,-0.1632695310100912,-0.1025202623465098,0.0832444205880165,0.0136601831763982,-0.0377504453063011
1772807994484558600,1.94155859375,-1.7977075931251048,0.3962143635317683,-0.2960191648656502,-0.2065588533878326,-0.1493864506483078,-0.0700357928872108
1772807994504607700,1.961607666015625,-2.2686370059013363,0.8255033136695623,-0.4428923088807612,-0.3370418548583984,-0.1789111196994781,-0.0824401304125785
1772807994524656600,1.98165673828125,-2.596972303688526,0.9484744442999362,-0.1013112701492384,-0.0272543802857399,-0.0954286977648735,0.0076817758381366
1772807994544705500,2.00170556640625,-1.4448732293754816,1.1350339577436446,-0.1057511522928252,0.6195017695426941,0.3248929381370544,0.2609288096427917
1772807994564754400,2.02175439453125,-0.3098135526686906,1.234040859940648,-0.0448990625755861,1.0402432680130005,0.4659280776977539,0.5394982099533081
1772807994584803600,2.041803466796875,0.7010270391732454,0.90581486774683,0.1862648596123792,1.0917335748672483,0.2411790788173675,0.6901037096977234
1772807994604853500,2.061853515625,1.462938462898135,0.695079382815212,0.3862366844726726,0.9489412307739258,-0.013819046318531,0.6449398398399353
1772807994624902400,2.08190234375,1.6774603345006702,0.4057693967320024,0.5441900254286826,0.6384735107421875,-0.2557283937931061,0.4628935754299164
1772807994644951600,2.10195166015625,1.634545321881771,0.5071048880070448,0.5073358472187072,0.2930521965026855,-0.3601410388946533,0.2293424606323242
1772807994665000700,2.122000732421875,1.1197563091129064,0.6804108059935271,0.3636896658934652,0.0886751487851142,-0.339652806520462,0.0660880953073501
1772807994685049600,2.142049560546875,0.6165817462921143,0.8408877836756408,0.5067132583409547,0.0253075025975704,-0.242312952876091,-0.0490652993321418
1772807994705098800,2.1620986328125,0.1244067163914442,0.9303279622346162,0.6847283769316971,0.0315761864185333,-0.153024360537529,-0.1071383655071258
1772807994725147400,2.1821474609375,0.2748766793221235,0.9399024307876824,0.6807379921212792,0.1320913434028625,0.0672785863280296,-0.0493615269660949
1772807994745196500,2.202196533203125,0.34092297668159,1.052815254870802,0.578184320695512,0.1597373038530349,0.1597026735544204,0.0442101694643497
1772807994765245700,2.22224560546875,0.6626455783307552,0.785907070209831,0.4317542808054014,0.0857836306095123,0.1784868836402893,0.0833559483289718
1772807994785294600,2.242294677734375,0.953847954031825,0.6181060332499444,0.2990445040361955,-0.0002477075904607,0.2283119559288025,0.0055974451825022
1772807994805343700,2.26234375,1.1909288634449242,0.3306573109939694,0.3511493698047473,-0.0664368197321891,0.2899365127086639,-0.1167879104614257
1772807994825392400,2.282392333984375,1.2296908480376003,0.1815308716267347,0.4683990540483966,-0.1536790430545807,0.2470329701900482,-0.2205965965986251
1772807994845441500,2.302441650390625,1.0304957249045372,0.0636010961644351,0.526794032937102,-0.2625163197517395,0.086770623922348,-0.2450025230646133
1772807994865491700,2.32249169921875,0.766743081665039,0.0746266403086483,0.5171630118912086,-0.3069450557231903,-0.0465134792029857,-0.2103601396083831
1772807994885540600,2.34254052734375,0.48898587847054,0.0833769329972565,0.4196279723450541,-0.3242568671703338,-0.0944798812270164,-0.1476461589336395
1772807994905589500,2.362589599609375,0.2847533456921577,-0.0218038355290889,0.2397022160937078,-0.3241010308265686,-0.0760225653648376,-0.0840460956096649
1772807994925638700,2.382638671875,0.090329674744606,-0.096101828405261,-0.0038667949633672,-0.3181712329387665,-0.0691766440868377,-0.0656678825616836
1772807994945687600,2.4026875,0.1096802719026803,-0.3514073996864259,-0.1954818382309749,-0.2999114692211151,-0.0217758640646934,-0.0739367604255676
1772807994965736700,2.42273681640625,0.2187561481714248,-0.6253314544588328,-0.1108177880326286,-0.2336843162775039,0.0227250456809997,-0.1145651191473007
1772807994985785600,2.44278564453125,0.2027981160610914,-0.7555569401316344,-0.0611530454251915,-0.1370082944631576,-0.0557815581560134,-0.1358170509338379
1772807995005834500,2.46283447265625,0.302515212354064,-0.8036514012150466,-0.0846141831746324,-0.0540454126894474,-0.1696387678384781,-0.122604101896286
1772807995025883600,2.482883544921875,0.512509377399087,-0.9085849169820548,-0.0418903457462787,-0.0599473156034946,-0.2187744081020355,-0.1350575685501098
1772807995045932500,2.5029326171875,0.5330816253066063,-0.9477357547618448,0.1215812471745535,-0.109443724155426,-0.2253867387771606,-0.1694777309894561
1772807995065981700,2.522981689453125,0.3631798166751861,-0.8874709634132683,0.1577131389919668,-0.1238706856966018,-0.2071171998977661,-0.1823835223913192
1772807995086030600,2.543030517578125,0.2355962238132953,-0.9355494962751864,0.331513891290687,-0.0857917070388794,-0.168049156665802,-0.1805679947137832
1772807995106079500,2.56307958984375,-0.0454003996938467,-0.971941390735656,0.5631811416245996,-0.021293306723237,-0.2402727752923965,-0.150789275765419
1772807995126129700,2.583129638671875,-0.2196796927571296,-0.8735423913039266,0.5775708649722859,0.0555431768298149,-0.3402999937534332,-0.1068192198872566
1772807995146178600,2.603178466796875,-0.2082698254704475,-0.7949753428064287,0.5278808417931199,0.0303237251937389,-0.3604058623313904,-0.1166569963097572
1772807995166227500,2.6232275390625,-0.2580658297747373,-0.6693479985788464,0.5005122848089784,-0.1170363947749137,-0.336709052324295,-0.1806700080633163
1772807995186276600,2.643276611328125,-0.5148620780050754,-0.4192052168883383,0.3289838978890329,-0.3537957072257995,-0.3149269819259643,-0.2515073418617248
1772807995206325500,2.663325439453125,-1.0298007283776998,-0.1457112240962684,0.1793858224220574,-0.5887468457221985,-0.3455352783203125,-0.3409349322319031
1772807995226374700,2.683374755859375,-1.639254230225086,0.0579850098483264,0.0851888777900487,-0.6578981280326843,-0.3400271534919739,-0.3833557963371277
1772807995246422800,2.7034228515625,-2.1204829186975958,0.4263867989555001,-0.0010996318049728,-0.5318878293037415,-0.2767753601074219,-0.3684404790401459
1772807995266471700,2.7234716796875,-2.196160383233428,0.5966032264940441,-0.0621687252737581,-0.2846031486988067,-0.0752177610993385,-0.2903939187526703
1772807995286520800,2.743520751953125,-1.5949778661251066,0.6562010783664882,-0.1649161291733384,-0.0289617870002985,0.3237495720386505,-0.1785726845264434
1772807995306569700,2.76356982421875,-1.1708353389650583,0.5784200656801461,0.0010446136821061,0.2650028467178345,0.4510994851589203,-0.0564018003642559
1772807995326618600,2.78361865234375,-0.3154115188062191,0.5589873431965708,0.1169119767218828,0.5301082134246826,0.3208150565624237,0.0365368351340293
1772807995346667800,2.803667724609375,0.3890314662903547,0.4419438490495085,0.0211108848288655,0.5796158313751221,0.0855738073587417,0.1490157842636108
1772807995366716700,2.823716552734375,0.788869573277235,0.2694802271060645,-0.1407232796158641,0.4377149641513824,-0.1140461042523384,0.1801452487707138
1772807995386765800,2.843765869140625,1.0320558138281106,0.2687181566923856,-0.4245752925541252,0.2895285785198211,-0.1521695107221603,0.0985592156648635
1772807995406815700,2.863815673828125,0.9013970513045788,0.4155291587240993,-0.7771808159839362,0.1826211810111999,-0.0977459177374839,-0.0362608768045902
1772807995426864600,2.88386474609375,0.8509867144942284,0.6406175786569714,-0.9568944821208716,0.1108985021710395,-0.0077593480236828,-0.1709334105253219
1772807995446913800,2.903913818359375,0.9709306062579154,0.6115861299619079,-0.8364075695216655,0.0006933603435754,0.1184824183583259,-0.2966058552265167
1772807995466962700,2.923962646484375,0.9391747010350228,0.4238054041601717,-0.3082703418146819,-0.0926830917596817,0.2072567045688629,-0.3644424676895141
1772807995487011600,2.944011474609375,0.9432990874886512,0.3678919398888945,0.0653260202609002,-0.0501328147947788,0.2568461894989013,-0.3157199919223785
1772807995507060700,2.964060791015625,1.0269073450237511,0.365907634203881,0.2516620636796579,0.0014467253349721,0.2201565653085708,-0.1693297177553177
1772807995527109600,2.984109619140625,1.1006143862694502,0.1600502767026424,0.4292980832923203,-0.0205924939364194,0.0944833680987358,-0.007727107964456
1772807995547158800,3.00415869140625,1.0175707768797877,0.0213698280259966,0.5309155333139002,-0.029844582080841,-0.040441159158945,0.1300592571496963
1772807995567208000,3.0242080078125,1.053090418550372,-0.0239034381568431,0.2570249424196779,-0.0242047775536775,-0.0474670603871345,0.2384173572063446
1772807995587256600,3.044256591796875,1.22952367477715,-0.0961595499418675,-0.000226319569163,-0.0900958925485611,0.036971878260374,0.2869676947593689
1772807995607305700,3.0643056640625,0.9987100090652704,-0.3039217181511223,-0.0142937886925414,-0.1984283626079559,0.0097242882475256,0.2909359931945801
1772807995627354600,3.084354736328125,0.7421633516818285,-0.400639632628113,-0.0684823288673534,-0.2251503318548202,-0.0430145896971225,0.278603732585907
1772807995647403800,3.10440380859375,0.4207908786445856,-0.4941404847547411,-0.1169773701082915,-0.1957514435052871,-0.0913375988602638,0.2840266227722168
1772807995667453000,3.124452880859375,0.1158323647916317,-0.5606830411985516,-0.0159616853721439,-0.1362063437700271,-0.1114631816744804,0.3120873272418976
1772807995687501600,3.14450146484375,-0.1711959400951862,-0.5331966299884021,-0.0689461104542017,-0.0107107628136873,-0.0702314898371696,0.3611060678958893
1772807995707551700,3.1645517578125,-0.2391805120408535,-0.5771205273889005,-0.0655600482124835,0.119828350841999,0.0370690859854221,0.4259184598922729
1772807995727601000,3.184600830078125,-0.2244955686062574,-0.6887165697850287,-0.020249153432995,0.2134250402450561,0.0653926432132721,0.4862233698368072
1772807995747649800,3.20464990234375,-0.120753454580903,-0.7542249608755112,-0.0853797972522675,0.2300441712141037,0.0365271158516407,0.4937558472156524
1772807995767698700,3.22469873046875,-0.1077484270572662,-0.7962528153963386,-0.160987630617991,0.2038780748844146,-0.0053607071749866,0.4383966624736786
1772807995787747600,3.24474755859375,-0.3281377293884754,-0.6594936901710927,-0.2462310881394892,0.1687321364879608,-0.0492231547832489,0.3402200937271118
1772807995807796700,3.264796630859375,-0.5167214421361684,-0.4797076163850724,-0.3493805700339377,0.158125415444374,0.0309413634240627,0.2535569071769714
1772807995827846000,3.284845947265625,-0.5754261445611715,-0.3125312871947884,-0.4044206855367869,0.2121002525091171,0.2540882229804992,0.2195877879858017
1772807995847894800,3.304894775390625,-0.4670172077685594,-0.2870683446362614,-0.2452007952436804,0.3434680998325348,0.5015155673027039,0.2653050720691681
1772807995867943700,3.324943603515625,-0.0133230074316263,-0.4134175733976066,0.0160651822792366,0.4564563035964966,0.6379061937332153,0.3869764804840088
1772807995887992600,3.34499267578125,0.247109551474452,-0.6844312936812639,0.1662037578310817,0.3741322159767151,0.4976052939891815,0.508621335029602
1772807995908041700,3.365041748046875,0.525560582152009,-1.1979387422069907,0.2312773011682554,0.06197951734066,0.3908577859401703,0.551496148109436
1772807995928091000,3.3850908203125,0.8850766156226396,-1.6698247250556946,0.2389423924360424,-0.4040915071964264,0.7576745748519897,0.4811412096023559
1772807995948139800,3.405139892578125,-0.3893342486292123,-1.5635652213819324,-0.1193288468715734,-0.8559420704841614,0.8176504373550415,0.280502051115036
1772807995968188700,3.425188720703125,-1.8247160115599632,-0.644880935189873,-0.8491773269847035,-0.930816650390625,0.5110824704170227,-0.0094394832849502
1772807995988237600,3.445237548828125,-3.1331583247512578,0.1033491691850125,-0.7853736209202558,-0.6618027687072754,-0.0592170245945453,-0.2994849681854248
1772807996008287700,3.465287841796875,-3.090564214649796,0.3077317779585719,-0.2436454372941516,-0.0283924527466297,-0.3170029520988464,-0.3129722774028778
1772807996028336600,3.485336669921875,-2.2981267197579145,0.7043890629522502,0.0989676935646217,0.608757734298706,-0.241779014468193,-0.0347646959125995
1772807996048385500,3.505385498046875,-1.1484861445128918,0.9052876290023326,0.2780726806181482,0.8209591507911682,-0.0541224926710128,0.3678779900074005
1772807996068434700,3.5254345703125,-0.0552682982355356,0.6576010082922875,0.5750114628130569,0.7302446365356445,0.0774446576833725,0.678133487701416
1772807996088483800,3.54548388671875,0.364908832424879,0.7348376849688589,0.4564107292866334,0.6242146492004395,0.0224041566252708,0.6806015968322754
1772807996108532700,3.56553271484375,0.5628612620204687,0.6035445700645446,0.359874528052099,0.5480650663375854,-0.0966830998659133,0.4585346281528473
1772807996128582000,3.585581787109375,0.2634025146275758,0.5790400972746312,0.4727855255043134,0.4717282950878143,-0.3460413217544555,0.1642661988735199
1772807996148630500,3.605630615234375,0.0947843160659074,0.7967175102986395,0.3657934332396835,0.4293925762176513,-0.5050488710403442,0.0157423559576272
1772807996168679700,3.6256796875,-0.0981634371101856,1.1278734184645116,0.2427067864708602,0.461625725030899,-0.4786883592605591,-0.0190484747290611
1772807996188728800,3.645728759765625,0.0287596460163593,1.2904492681220172,0.3313752134723589,0.5619656443595886,-0.3073626756668091,0.0023460288066416
1772807996208777700,3.66577783203125,0.4066320049107074,1.4256819144323467,0.1830524917034432,0.5979058146476746,-0.0635251998901367,0.0710192397236824
1772807996228827000,3.685826904296875,0.9492249704062938,1.3009937507510183,0.1897909696456045,0.5525739192962646,0.1589516848325729,0.1172091662883758
1772807996248876500,3.70587646484375,1.378358729982376,1.1573296684429049,0.2767821841498836,0.4875767529010772,0.2444859892129898,0.0835482776165008
1772807996268925400,3.725925537109375,1.812761369872093,0.9165008046731352,0.3424013056058436,0.4098678231239319,0.2328568994998932,0.0222101286053657
1772807996288974600,3.745974609375,2.0919448064774278,0.7661065373271704,0.3412522817011922,0.265093594789505,0.183624118566513,-0.0748564973473548
1772807996309023500,3.7660234375,2.2227005996346474,0.6246957869037986,0.5786930739352479,0.0670989230275154,0.0938412770628929,-0.2116973996162414
1772807996329073400,3.786073486328125,1.8311252940803768,0.576495819619298,0.7472486921221018,-0.1292302012443542,-0.098203033208847,-0.2987901568412781
1772807996349122600,3.80612255859375,1.5711901633024214,0.6673202921435236,0.6878964855737983,-0.2608619630336761,-0.1201186925172805,-0.3045922517776489
1772807996369171500,3.82617138671875,1.0888602355897423,0.6369280764892697,0.7089113626822828,-0.3038451969623565,-0.0495907366275787,-0.2467381209135055
1772807996389220400,3.846220458984375,0.6518395221561193,0.5960971766680478,0.7567251071281731,-0.2915154993534088,0.0059989653527736,-0.1769759058952331
1772807996409269500,3.86626953125,0.4234925388187169,0.5201850265935063,0.6573989098489285,-0.2875992655754089,0.0133583806455135,-0.1254997849464416
1772807996429318400,3.886318359375,0.230734755256772,0.4372612441912293,0.6110749655693769,-0.2847011983394623,-0.0119160786271095,-0.1333387643098831
1772807996449367600,3.906367431640625,-0.0470417371600866,0.3618737025126814,0.6362536843590438,-0.2675493657588959,-0.0807702094316482,-0.1529989242553711
1772807996469416400,3.92641650390625,-0.1861228755921125,0.3314569369390606,0.5946662670820951,-0.250994473695755,-0.1322075128555297,-0.1288836300373077
1772807996489465600,3.946465576171875,-0.3900865283012389,0.3026052287250757,0.6140015205405652,-0.2410930097103119,-0.1430623233318328,-0.0840802416205406
1772807996509514500,3.966514404296875,-0.5158090034663677,0.2788626802183687,0.5392589622346684,-0.1649853736162185,-0.067716583609581,-0.0057663242332637
1772807996529563400,3.9865634765625,-0.5608849935114384,0.1565991133354604,0.4837198111684992,-0.0528724752366542,0.0243122018873691,0.0975122302770614
1772807996549612500,4.006612548828125,-0.483506570276618,-0.0975539269097149,0.3893875497190281,0.079832024872303,0.0537649579346179,0.2189128398895263
1772807996569661400,4.026661376953125,-0.3015530893236398,-0.3308839593566954,0.2253351977681741,0.193435400724411,-0.0065913740545511,0.3228775560855865
1772807996589710600,4.046710693359375,-0.1575327409237623,-0.3377946155279874,-0.1085192652992904,0.1627504527568817,-0.1105588525533676,0.349444568157196
1772807996609759500,4.066759521484375,-0.078346976006031,-0.5173068408086896,-0.2670726545076817,-0.043025929480791,-0.1437191516160965,0.2322035133838653
1772807996629808400,4.086808349609375,-0.2468050155699253,-0.6245612007386983,-0.3745094217998906,-0.3872621357440948,-0.1714280694723129,-0.0225745998322963
1772807996649857500,4.106857421875,-0.6823042185246944,-0.4462105665832758,-0.5469041432255879,-0.7725651264190674,-0.2131855338811874,-0.374832808971405
1772807996669906400,4.126906494140625,-1.2618529959738254,-0.1866388622902333,-0.6077598862046375,-1.0014773607254028,-0.1628105789422989,-0.6525527834892273
1772807996689955600,4.14695556640625,-1.877162238112092,0.154170571014285,-0.5389764920314773,-0.995975375175476,-0.1126880720257759,-0.7597920894622803
1772807996710005500,4.167005615234375,-1.9745652122437956,0.3001797551438212,-0.3353273486316204,-0.6860201954841614,0.0581769496202468,-0.6471354365348816
1772807996730054400,4.187054443359375,-1.6463777984946966,0.5268745873600245,-0.2088156593175605,-0.1693975627422332,0.2717456221580505,-0.3873796463012695
1772807996750103600,4.207103515625,-1.3935194742351769,0.4694146242991089,-0.0109696492385119,0.2422228455543518,0.1757345050573349,-0.0484773367643356
1772807996770152400,4.22715234375,-0.7500403686672449,0.3475228133380413,-0.0854013514969497,0.4707450270652771,-0.0516906753182411,0.2106010764837265
1772807996790201300,4.247201416015625,-0.0469078816473484,0.1557210153266787,-0.3752568426337093,0.5530679821968079,-0.181220144033432,0.3070782721042633
1772807996810250500,4.26725048828125,0.3961129489839077,0.1333788351371884,-0.820544814479351,0.5065388083457947,-0.1784040927886963,0.2235030233860016
1772807996830299400,4.28729931640625,0.6737766286760568,0.136480162153393,-1.148003475562483,0.358046293258667,-0.12832573056221,0.0237015597522258
1772807996850348500,4.3073486328125,0.6294383052557706,0.174348997298628,-1.111158795833215,0.2056764364242553,-0.1282480806112289,-0.2113440781831741
1772807996870397400,4.3273974609375,0.6594137568026781,0.3060239511273801,-1.0029569259200244,0.1581354737281799,-0.0823418647050857,-0.3820405602455139
1772807996890446300,4.3474462890625,0.9047101213753224,0.36567163349092,-0.8093152721956371,0.1549610197544098,0.0468289442360401,-0.4484535455703735
1772807996910495500,4.36749560546875,0.9517582882761956,0.4556254606604575,-0.4639905534237623,0.1596100628376007,0.1174689456820488,-0.4310026168823242
1772807996930544400,4.38754443359375,1.178137186411023,0.4573552070625126,-0.1643804879266768,0.1635719388723373,0.2137178778648376,-0.390159547328949
1772807996950593500,4.407593505859375,1.3347189102202652,0.3668126202195882,0.0231696805221959,0.1081746891140937,0.2443939745426178,-0.3202219605445862
1772807996970642700,4.427642578125,1.298373923641443,0.2604555013902485,0.2131086803363636,0.069053828716278,0.1577613204717636,-0.2382805943489074
1772807996990691300,4.44769140625,1.3342448629677297,0.171250300630927,0.2773941237694584,0.0749392807483673,0.0340982228517532,-0.1281782388687133
1772807997010740500,4.467740478515625,1.202260989320278,0.1144973167955875,0.1761458541201427,0.0998157784342765,-0.1841357946395874,-0.0144558902829885
1772807997030789400,4.487789306640625,1.2282318814009427,-0.043087154315412,0.2150203591765835,0.0458248071372509,-0.3179990649223327,0.0755866914987564
1772807997050838500,4.507838623046875,1.3693746285378932,-0.1195038929112255,0.0241464531324803,-0.0544912405312061,-0.2265082895755767,0.125011458992958
1772807997070887700,4.5278876953125,1.2771458421736954,-0.2497097971007227,-0.0687136534051969,-0.219212532043457,0.0095484256744384,0.1317358613014221
1772807997090937300,4.547937255859375,1.0008709864914416,-0.3999554497562348,-0.0282613411054015,-0.3620305359363556,0.2552968859672546,0.1405999362468719
1772807997110986500,4.567986572265625,0.5613935275554657,-0.5205550289496779,0.0324394670402631,-0.3538775742053985,0.3700692355632782,0.2007291913032531
1772807997131035600,4.58803564453125,0.135182961949706,-0.6477626281060278,0.1522333193413913,-0.2280555367469787,0.3015580177307129,0.2859699428081512
1772807997151084500,4.60808447265625,-0.1745323910415172,-0.7594972021900117,0.1618181814243085,-0.1040855422616005,0.1550046503543853,0.3799920380115509
1772807997171133400,4.628133544921875,-0.432405328592658,-0.7892132721483707,0.0435747369029559,-0.0286262910813093,0.0026968484744429,0.4149525463581085
1772807997191182300,4.648182373046875,-0.5818757590919733,-0.709991997525841,-0.1545456879369914,-0.0198028907179832,-0.0767196342349052,0.3951670825481415
1772807997211231500,4.6682314453125,-0.9019885874569415,-0.6209590845935047,-0.3628551147654652,-0.0072846449911594,-0.0485096722841262,0.3449417948722839
1772807997231280600,4.68828076171875,-1.1738397814780472,-0.4326688018344342,-0.5812142629759386,0.112713798880577,0.1624390333890915,0.2728506624698639
1772807997251329500,4.70832958984375,-0.8653262054920196,-0.2973044919684529,-0.6976202994696795,0.3429465293884277,0.561378002166748,0.2805333435535431
1772807997271378400,4.72837841796875,-0.7577069577723741,-0.339877705412358,-0.6191760736342519,0.4707861542701721,0.7066329121589661,0.3860296010971069
1772807997291427600,4.748427490234375,-0.5303863948732614,-0.4291533410593867,-0.2657841125344857,0.4228758811950683,0.5695735812187195,0.4467736184597015
1772807997311476500,4.7684765625,-0.3119908967077732,-0.5321979743398726,-0.0414206778413383,0.3112364411354065,0.3719137907028198,0.4321584701538086
1772807997331525600,4.788525634765625,-0.4379495187163352,-0.2870931868165731,0.0024857489761954,0.1134051829576492,0.1326687484979629,0.331641286611557
1772807997351574500,4.808574462890625,-0.5256161117315292,0.0289377790622413,-0.1584687796648591,-0.0817879140377044,0.0204939376562833,0.2300238162279129
1772807997371623400,4.82862353515625,-0.8520680799901484,0.3447698613680899,-0.3882394756624475,-0.2935784161090851,0.0282248333096504,0.1453175097703933
1772807997391672600,4.848672607421875,-1.3709995993912218,0.4567234850302338,-0.3021870033130049,-0.4164295792579651,0.0857501700520515,0.1214024722576141
1772807997411721500,4.868721435546875,-1.844333735221624,0.6025425534151494,-0.2261215806392021,-0.3602340817451477,0.1242243349552154,0.1653929948806762
1772807997431770600,4.8887705078125,-2.0898539716780182,0.8258546113252639,-0.1548739700432866,-0.1191942691802978,0.1271535158157348,0.2511374652385711
1772807997451819500,4.908819580078125,-1.5401590652227402,1.017702732696384,-0.0694681204677326,0.288897842168808,0.2458865940570831,0.3717371225357055
1772807997471868400,4.928868408203125,-0.4361082747638225,0.9863128843069076,0.1093224349083378,0.5659787058830261,0.393344521522522,0.4615080952644348
1772807997491917600,4.94891748046875,0.6603828940957784,0.8210808210521936,0.269721616380196,0.6277260780334473,0.4746852815151214,0.5071684122085571
1772807997511966500,4.968966552734375,1.364958565661311,0.7575909301772713,0.327187296795845,0.5460528135299683,0.459517627954483,0.5111497640609741
1772807997532015600,4.989015625,1.4128285703390835,0.5438061406776309,0.4374578627418726,0.3320493996143341,0.2138500958681106,0.4689657688140869
1772807997552064500,5.009064453125,1.2830524358689783,0.449190459176898,0.4560660440348088,0.1219304576516151,-0.1199094578623771,0.3648391366004944
1772807997572113400,5.029113525390625,0.912785875803232,0.5292117981359362,0.4239749155081808,0.0053732395172119,-0.3389056324958801,0.2620219588279724
1772807997592163600,5.04916357421875,0.7008055053770542,0.7024032959625125,0.1397878984618931,-0.0235471595078706,-0.2606580853462219,0.2058462351560592
1772807997612212500,5.06921240234375,0.7037175934314728,0.7551663333788514,0.0592749400610104,-0.0146457850933074,0.0104981735348701,0.1526059359312057
1772807997632261600,5.08926171875,0.647075084233284,0.665118982706964,0.150724074689066,-0.0181480851024389,0.1525886058807373,0.1100051701068878
1772807997652310500,5.109310546875,0.6624994478583336,0.5590221222490072,0.22186459904816,-0.0360654406249523,0.0853622183203697,0.0729291588068008
1772807997672359400,5.129359375,0.7795692454904317,0.4253852206975221,0.3173890659568831,-0.0419093780219554,-0.0251081958413124,0.0268504917621612
1772807997692408600,5.14940869140625,0.9476046757280826,0.3442404306665063,0.3587354044869542,-0.0827851295471191,-0.0629855766892433,-0.0432047769427299
1772807997712457500,5.16945751953125,0.9976432566165924,0.2346481293082237,0.4414930730747058,-0.1257195472717285,-0.0190269015729427,-0.1044380441308021
1772807997732506600,5.189506591796875,0.7745166382759809,0.2810872244000434,0.4994898464260622,-0.128623366355896,-0.0213323459029197,-0.1257846802473068
1772807997752555500,5.209555419921875,0.6732002900928259,0.1939163059473037,0.5725952685168013,-0.138151079416275,-0.0593434609472751,-0.104360781610012
1772807997772604400,5.2296044921875,0.4056599450081586,0.0840092395514249,0.5666030058320611,-0.1789575219154358,-0.1434468179941177,-0.0693293064832687
1772807997792653600,5.249653564453125,0.2281108364939689,0.0538701218754053,0.3811397266598418,-0.1827394664287567,-0.1691851615905761,-0.0636460408568382
1772807997812702500,5.269702392578125,0.1390910753041505,-0.0697267394378781,0.203413160953205,-0.1895861029624939,-0.148479089140892,-0.0947822779417038
1772807997832751600,5.289751708984375,-0.0174865568518638,-0.0945135363005101,0.0248355793242459,-0.2111612558364868,-0.1062866672873497,-0.1754461526870727
1772807997852800500,5.309800537109375,-0.1959983729183674,-0.0716403179742395,-0.0559762729749549,-0.2172718346118927,-0.0913904979825019,-0.2525040507316589
1772807997872849400,5.329849365234375,-0.3097884182274341,-0.0996624434962868,-0.0110073680250614,-0.1743189990520477,-0.1031371131539344,-0.2679738998413086
1772807997892898600,5.349898681640625,-0.3552279808878898,-0.0462443031720817,-0.0844529281983152,-0.1013452783226966,-0.0898858234286308,-0.2318326532840728
1772807997912947500,5.369947509765625,-0.3068476886004209,-0.0802400962762534,-0.1194971617763396,-0.0209218338131904,-0.0683103650808334,-0.1960916519165039
1772807997932996600,5.38999658203125,-0.1956307086497545,-0.1268047174438834,-0.0853141390043776,0.0741109997034072,-0.0863978713750839,-0.1713743209838867
1772807997953045500,5.41004541015625,-0.0808966604888439,-0.1455858441509306,-0.1229040750098414,0.1495184153318405,-0.1462082117795944,-0.1659659743309021
1772807997973094400,5.430094482421875,-0.010772153905034,-0.178384098033607,-0.0492070802341215,0.1898052394390106,-0.2141267210245132,-0.1922803372144699
1772807997993143600,5.4501435546875,0.0471592260599136,-0.1443161164760589,0.1003556225253734,0.1880002468824386,-0.2316227555274963,-0.2332056015729904
1772807998013192400,5.4701923828125,-0.0043529345124959,0.0612171236373484,0.3001708411850035,0.0464286506175994,-0.261866956949234,-0.3282557725906372
1772807998033241600,5.49024169921875,-0.12006897944808,0.0459114179559052,0.3973725205909461,-0.1315477788448333,-0.2832091152667999,-0.3501495718955993
1772807998053290500,5.51029052734375,-0.3623246611505746,0.2024263601392507,0.1077524456452578,-0.3469875454902649,-0.3114749789237976,-0.3070206940174103
1772807998073339400,5.53033935546875,-0.7623357866168021,0.3108110392734408,-0.4578697324559092,-0.5785583853721619,-0.3331027626991272,-0.304260790348053
1772807998093388500,5.550388427734375,-1.127577211996913,0.3795093124464154,-0.7103085891943425,-0.6362725496292114,-0.2212986946105957,-0.4295877516269684
1772807998113438700,5.570438720703125,-1.0039946714699268,0.4382042241297662,-0.7946618929430842,-0.440459281206131,0.0683745965361595,-0.5474832653999329
1772807998133487400,5.5904873046875,-0.7333651281982659,0.5034441735424101,-0.7483383870549499,-0.1188915967941284,0.2214359641075134,-0.5268710255622864
1772807998153536500,5.61053662109375,-0.3471510574162006,0.4268098466731607,-0.343519130654633,0.1042405441403389,0.0879701822996139,-0.4392368197441101
1772807998173585400,5.63058544921875,0.1354080028772354,0.1618715007804334,-0.0274757802182808,0.1522972881793975,-0.1561202108860016,-0.3511034250259399
1772807998193634600,5.650634521484375,0.3926046486020088,-0.0292709565393626,0.0100028865655884,0.0594989471137523,-0.3190761506557464,-0.2873737514019012
1772807998213683700,5.67068359375,0.3246791133671999,0.1056378646440804,-0.3530870964016765,-0.0612059384584426,-0.3189054429531097,-0.2945441007614136
1772807998233732400,5.690732421875,-0.0329255335241556,0.1813666209757328,-0.6814692290052771,-0.1679394245147705,-0.2544394135475158,-0.34678515791893
1772807998253781500,5.710781494140625,-0.3772083420276642,0.1205396656997501,-0.7940219876043498,-0.2028467357158661,-0.2167886942625045,-0.4426902830600738
1772807998273830400,5.730830322265625,-0.4488327317804098,0.2312975037060677,-0.8356935029681771,-0.0776023566722869,-0.083199642598629,-0.5051261186599731
1772807998293879600,5.750879638671875,0.0134878426045179,0.3190872847095131,-0.6631850189696997,0.1030963286757469,0.1420732140541076,-0.4971159994602203
1772807998313928400,5.770928466796875,0.5770522844582796,0.2483585286222398,-0.3060075845144689,0.1768735200166702,0.2532539665699005,-0.4317351877689361
1772807998333977300,5.790977294921875,0.9468547341436148,0.0656532063886523,0.1041967807239852,0.1104405745863914,0.1710135638713836,-0.3616938292980194
1772807998354026500,5.811026611328125,1.3276982178032397,-0.1200011749088764,0.3678790073420852,0.0656204968690872,0.1128901019692421,-0.2867541909217834
1772807998374075400,5.831075439453125,1.38612877946198,-0.1981622729539871,0.4483156491037458,0.0484477654099464,0.0556124933063983,-0.1964059174060821
1772807998394124500,5.85112451171875,1.2614870852708815,-0.2098787219718098,0.445226743177697,0.0096593629568815,-0.0320750549435615,-0.0876267850399017
1772807998414173400,5.87117333984375,1.238621173468232,-0.2887720798142254,0.4051375285692513,-0.0617491379380226,-0.0440573468804359,0.0199300795793533
1772807998434222300,5.891222412109375,0.8566010472446679,-0.3114417383924126,0.3001320618108846,-0.112993985414505,-0.0625828728079795,0.0962968841195106
1772807998454271500,5.911271484375,0.5815571946620941,-0.3397920729555189,0.1558207493741065,-0.1020067110657692,-0.0460297502577304,0.123170405626297
1772807998474320400,5.9313203125,0.3732020289957523,-0.4785154839910566,0.142041787469061,-0.0777871683239936,-0.0072722840122878,0.1069393679499626
1772807998494369500,5.95136962890625,0.3389741807013749,-0.4953551212415099,0.0992957290757447,-0.0514148250222206,0.1316020786762237,0.1223242431879043
1772807998514418400,5.97141845703125,0.0660012891739606,-0.6173218971349299,0.2901038033420219,-0.016008973121643,0.2068079560995102,0.1785266399383545
1772807998534467600,5.991467529296875,-0.1144371110409498,-0.6032461716398596,0.4178632642274722,0.0994249284267425,0.2298405170440673,0.3195858895778656
1772807998554516500,6.0115166015625,-0.1705792695015668,-0.651344870506972,0.3920825244240462,0.2312467098236084,0.2132302820682525,0.5131038427352905
1772807998574565400,6.0315654296875,-0.3235755360394716,-0.6662094082921743,0.2399051182546652,0.3080416321754455,0.1364513039588928,0.65850830078125
1772807998594614500,6.051614501953125,-0.3113450000196695,-0.5641074626892805,-0.0676092586601385,0.3459263443946838,0.0891242548823356,0.6651861071586609
1772807998614663400,6.071663330078125,-0.4519055633544921,-0.4535539150834083,-0.2166509560531005,0.3186629712581634,0.0336999595165252,0.5767924189567566
1772807998634712600,6.091712646484375,-0.6418365990579128,-0.3080027038544416,-0.4009157826883718,0.3057245314121246,0.0639396607875824,0.5009108185768127
1772807998654761500,6.111761474609375,-0.6589128215432166,-0.1244802200190722,-0.4930439216896891,0.3384895920753479,0.208882987499237,0.4544161558151245
1772807998674810400,6.131810302734375,-0.7042763963580131,-0.0183612938597798,-0.5175998689385131,0.3486479520797729,0.2957749366760254,0.4507019519805908
1772807998694859500,6.151859619140625,-0.7024643784999847,0.0849216782212257,-0.4991581667862832,0.2798125147819519,0.3190093338489532,0.4663160145282745
1772807998714908400,6.171908447265625,-0.631985067129135,-0.0931497006013989,-0.2726593503325246,0.1706975698471069,0.3079141080379486,0.4645223021507263
1772807998734957600,6.19195751953125,-0.6835223621428013,-0.0857394243448972,0.0218354727763682,0.0469710938632488,0.1762294322252273,0.429234504699707
1772807998755006500,6.21200634765625,-0.805354259610176,-0.0906377177804708,0.2109759060913696,-0.1078373491764068,-0.03809280321002,0.4265582263469696
1772807998775055400,6.232055419921875,-1.0367343270331622,0.0844394476622343,0.1390055067793931,-0.227713331580162,-0.1745774447917938,0.3680552542209625
1772807998795104500,6.2521044921875,-1.3715280071794986,0.4909072019219398,-0.419655992863141,-0.2795712351799011,-0.23474682867527,0.2675042748451233
1772807998815153400,6.2721533203125,-1.3166098375558852,0.7225453357592224,-0.5799932332810014,-0.2375445216894149,-0.1429052352905273,0.1766479164361953
1772807998835202600,6.29220263671875,-1.1078624577015637,0.877254982086271,-0.4389859490919858,-0.0740618556737899,0.0415434725582599,0.1618546694517135
1772807998855251500,6.31225146484375,-0.3467746253192424,0.9085584673665464,-0.1209149104866199,0.2228505611419677,0.2925682067871094,0.2767836451530456
1772807998875300400,6.33230029296875,0.61306467808187,0.8313014785543084,0.1896812256608158,0.4317215085029602,0.4694960713386535,0.4714789986610412
1772807998895349500,6.352349609375,1.1725158393979072,0.5880448031157255,0.4210209610734134,0.4483906328678131,0.370236188173294,0.592326819896698
1772807998915398400,6.3723984375,1.614388084515929,0.4179299362555146,0.5848165617842227,0.3621152937412262,0.1672952026128769,0.5772230625152588
1772807998935447600,6.392447509765625,1.5880249782472848,0.1588043682947754,0.7668713842198253,0.2391343116760254,-0.1038719415664672,0.5006014108657837
1772807998955496400,6.412496337890625,1.511016557368636,0.1652148198589682,0.672666621607542,0.163546934723854,-0.2669214010238647,0.3978897631168365
1772807998975545300,6.43254541015625,1.2992629814356564,0.2760401701435446,0.5413406273469329,0.0510107092559337,-0.3072315156459808,0.2828598022460937
1772807998995594500,6.452594482421875,1.025991983744502,0.3703726507887244,0.4238390141688287,-0.0946716889739036,-0.2527841925621032,0.1843770891427993
1772807999015644700,6.472644775390625,0.7311912912905216,0.5662488586321472,0.2783133575062267,-0.2284118384122848,-0.1170763745903968,0.0757149830460548
1772807999035693300,6.492693359375,0.5986363397568464,0.5416378567278385,0.2876086803243495,-0.2631781995296478,0.0453854799270629,0.0046161320060491
1772807999055741400,6.512741455078125,0.3763362353682518,0.6240782395273446,0.3521734886880964,-0.2410876750946045,0.076885774731636,-0.0568478852510452
1772807999075791400,6.532791259765625,0.4149240324378013,0.5124482948616147,0.5207946098592132,-0.2104575484991073,0.0629983767867088,-0.0925700291991233
1772807999095840500,6.552840576171875,0.6163087745696306,0.3984031057476997,0.6713152800638228,-0.1964873224496841,0.104248896241188,-0.106218084692955
1772807999115889700,6.5728896484375,0.9677046299487352,0.3096820352435112,0.6618801469162107,-0.2069157809019088,0.2257335931062698,-0.0993377044796943
1772807999135938300,6.592938232421875,0.9207774590790272,0.199740189795196,0.7873358609039336,-0.2383980602025985,0.2050918340682983,-0.1056866496801376
1772807999155987500,6.612987548828125,0.8242471761286259,0.2147266003943979,0.6444136099390685,-0.2127429842948913,0.108777604997158,-0.1164390295743942
1772807999176036400,6.633036376953125,0.7772130377531051,0.0558272472925484,0.6303863266956061,-0.2120897769927978,0.0328847765922546,-0.1173856854438781
1772807999196085500,6.65308544921875,0.4896136549800634,-0.039621085640043,0.5833262501612305,-0.2949431836605072,-0.0606043078005313,-0.1302472352981567
1772807999216134700,6.673134765625,0.1398445240199566,-0.1070646825768053,0.4047747231388464,-0.3194210529327392,-0.0818598419427871,-0.1212513670325279
1772807999236183300,6.693183349609375,-0.1392260998606681,-0.021281565220654,0.3492976775234565,-0.1991061419248581,-0.03707966953516,-0.1268064677715301
1772807999256237600,6.713237548828125,-0.3492296172559261,-0.0423538716048002,0.2979538044563494,-0.1178682744503021,-0.0941004380583763,-0.1358629614114761
1772807999276286700,6.73328662109375,-0.6032914720863104,-0.0542982841596007,0.0741616622785572,-0.1576478630304336,-0.2421639710664749,-0.15741728246212
1772807999296335600,6.753335693359375,-0.7045119586795568,-0.0172791977114975,0.0309467168650124,-0.1538634598255157,-0.2374333441257476,-0.2228242456912994
1772807999316384500,6.773384521484375,-0.71023150537014,0.0406685488663613,-0.0416962114136666,-0.0798697993159294,-0.0871429815888404,-0.2710001766681671
1772807999336433700,6.79343359375,-0.6113754098206758,0.0514510780349373,-0.0504606239591725,0.0080814464017748,0.0350887179374694,-0.2643489837646484
1772807999356482600,6.813482666015625,-0.6630027212053538,-0.0765944332502782,0.1750887462826445,0.0476558431982994,-0.0381852649152278,-0.2286807000637054
1772807999376531700,6.83353173828125,-0.6986848599612713,-0.1734476645447313,0.2024587097725831,0.0238864663988351,-0.1829765737056732,-0.2034852355718612
1772807999396580600,6.85358056640625,-0.8771101667881012,-0.1264861530140042,0.0117939712334424,-0.0533614046871662,-0.2073156684637069,-0.207391157746315
1772807999416629500,6.87362939453125,-0.998348774537444,-0.0841973094694316,0.0436400754904374,-0.0709957107901573,-0.027113078162074,-0.2456022650003433
1772807999436678700,6.8936787109375,-0.944786111176014,-0.1955634886324405,0.116077151599247,-0.0651090145111084,0.2131410837173462,-0.2644600570201874
1772807999456727600,6.9137275390625,-0.9560890109568834,-0.0965972107067704,0.2525232470862567,-0.1187286525964737,0.2162722647190094,-0.3048339188098907
1772807999476776700,6.933776611328125,-0.9617097734481096,-0.1641656030669808,0.3928131402535363,-0.2086597383022308,0.0292435940355062,-0.2937240302562713
1772807999496825600,6.95382568359375,-0.8348375437259674,0.0731546680599451,0.2133298488063737,-0.238030269742012,-0.0682450085878372,-0.2394872158765792
1772807999516874500,6.97387451171875,-0.6813461871474981,0.3607505437016487,-0.1821239969479851,-0.1969496756792068,-0.0051543992012739,-0.1873280704021453
1772807999536923600,6.993923583984375,-0.5652981337785721,0.6018124855749308,-0.429700672743842,-0.1450347304344177,0.0754220485687255,-0.1616234928369522
1772807999556972500,7.01397265625,-0.3344908978074788,0.5947524840608239,-0.5372041120640934,-0.0553588680922985,0.1601084470748901,-0.108928807079792
1772807999577021700,7.034021728515625,0.0056423898011446,0.3982010073043406,-0.4194843260906636,0.1101444810628891,0.2091473042964935,-0.015767415985465
1772807999597070600,7.054070556640625,0.1165238541871309,0.2986491845756769,-0.3113177466865628,0.2564877271652221,0.0669061839580535,0.0729131996631622
1772807999617119500,7.074119384765625,0.4980588272422552,0.0225675133779644,-0.3143478350974619,0.3569271564483642,-0.0839205756783485,0.1701209396123886
1772807999637168600,7.094168701171875,0.7886135526895522,-0.1422735047325491,-0.4201765096059068,0.3152631819248199,-0.2392236441373825,0.2008145004510879
1772807999657217500,7.114217529296875,0.9113093735098838,0.0434276383161544,-0.7386792358931153,0.1492919325828552,-0.3406610190868377,0.0949284508824348
1772807999677266700,7.1342666015625,0.8793599915415048,0.1436024152487516,-0.9619219548940658,-0.0993473678827285,-0.3070963323116302,-0.0991305783390998
1772807999697315600,7.154315673828125,0.8016220873445272,0.2162855202741921,-0.9483165503244848,-0.2360085844993591,-0.089841790497303,-0.2645390331745147
1772807999717364500,7.174364501953125,0.7668529717803001,0.2866108101271092,-0.6651189096417278,-0.1708666384220123,0.1719164699316024,-0.3335657119750976
1772807999737413600,7.19441357421875,0.6188333246111869,0.3016549422629177,-0.228061663589999,-0.0128135364502668,0.2059733569622039,-0.2668391466140747
1772807999757462500,7.214462646484375,0.7612608508616685,0.2817936191037297,-0.1018138676428236,0.1045443415641784,0.0758009478449821,-0.0977592840790748
1772807999777511700,7.23451171875,1.0914870769619942,0.154980133831501,0.0570829921078402,0.0988659486174583,-0.0334638096392154,0.0387971550226211
1772807999797560600,7.254560546875,1.3686977521896362,0.0329281638726592,-0.00737757499672,0.0304772146046161,-0.0449036508798599,0.1366312652826309
1772807999817609500,7.274609375,1.508328925719857,0.0162419636182487,-0.4557317705791443,-0.0667272806167602,0.030274299904704,0.1776737868785858
1772807999837658600,7.29465869140625,1.2569535334944724,-0.0765370039746165,-0.6612132805053145,-0.2055656760931015,0.0085165929049253,0.1296536326408386
1772807999857707500,7.31470751953125,0.963896469837427,-0.2881178536891937,-0.6727522540643811,-0.2735119462013244,-0.0344875901937484,0.0563933253288269
1772807999877756700,7.334756591796875,0.6546037261724472,-0.2190310195900499,-0.7181927665729075,-0.2375294268131256,-0.0258723217993974,-0.0060576139949262
1772807999897805600,7.3548056640625,0.3940788128077984,-0.1955368928864598,-0.6207096398770808,-0.1458208113908767,0.0082711614668369,-0.0047705392353236
1772807999917854500,7.3748544921875,0.4143757509052753,-0.2082458600729703,-0.5531814333967864,-0.0938135832548141,0.0677078962326049,0.0337454490363597
1772807999937903600,7.394903564453125,0.1893500209450721,-0.2968826132945716,-0.3536005988817662,-0.0931151658296585,0.0493651330471038,0.0679216980934143
1772807999957952500,7.414952392578125,-0.0274801275998353,-0.2022156399980187,-0.4537007031429558,-0.079112522304058,-0.0213288944214582,0.0874445661902427
1772807999978001700,7.435001708984375,-0.1684755752205848,-0.2194134430363774,-0.6506732548557221,-0.0841539800167083,0.0019563811365514,0.0765800103545188
1772807999998050800,7.45505078125,-0.4367383893609046,-0.2484083591133356,-0.6100440881516784,-0.0141580747440457,0.1211268305778503,0.0419016033411026
1772808000018099500,7.475099365234375,-0.608445201587677,-0.1983705088771879,-0.644229412478581,0.1340842545032501,0.2243082523345947,0.0455490872263908
1772808000038148600,7.495148681640625,-0.5125280820995569,-0.2685465995177626,-0.6501088989712297,0.221610426902771,0.2775863707065582,0.0658404901623725
1772808000058197500,7.515197509765625,-0.4411673117190599,-0.3211426098041236,-0.5708244594519958,0.2008932083845138,0.2430761158466339,0.0245696157217025
1772808000078246700,7.53524658203125,-0.8628075006693601,-0.2668121769405901,-0.3683490360066294,0.1081234961748123,0.0863918289542198,-0.0699383988976478
1772808000098295800,7.5552958984375,-1.0888076286196708,-0.2216118298634886,-0.2095597191505133,0.1412336081266403,0.1067408546805381,-0.1144906133413314
1772808000118344400,7.575344482421875,-1.0936012926369905,0.1366331607580184,-0.3324888372700661,0.2558169066905975,0.2741188108921051,-0.1335638016462326
1772808000138393600,7.5953935546875,-0.9081716600060462,0.2780925726287067,-0.2859754896319471,0.2843015789985657,0.3858726918697357,-0.153602734208107
1772808000158442500,7.6154423828125,-0.8093366072446108,0.3542496373750269,-0.1253040488236583,0.171301931142807,0.2787645161151886,-0.2286655008792877
1772808000178491600,7.63549169921875,-1.1160334891974926,0.5784197734192014,-0.0584844472704455,0.0077067883685231,0.0552811957895755,-0.3138328194618225
1772808000198540800,7.655540771484375,-1.483952024832368,0.9629897302560508,-0.0908694807097315,-0.0735096782445907,-0.0756270512938499,-0.3553847670555115
1772808000218589400,7.67558935546875,-1.354654613789916,1.3836195731200276,-0.2879410358175635,0.0216054264456033,0.0943872928619384,-0.3279325664043426
1772808000238638600,7.695638671875,-0.9433002565324304,1.5846479030296206,-0.2998115428859367,0.2578965127468109,0.3413094580173492,-0.1880276501178741
1772808000258681900,7.715681884765625,-0.292968216329813,1.4238405243493617,-0.0146901675989851,0.4551019966602325,0.3626079261302948,-0.0239350944757461
1772808000278730800,7.735730712890625,0.2232265715837478,1.142620175088942,0.1588078388934954,0.4681514799594879,0.1248743683099746,0.0337465442717075
1772808000298779600,7.755779541015625,0.8332499822735786,0.9951641531519592,0.1384558096079155,0.3751300573348999,-0.0555617548525333,-0.0035661119036376
1772808000318828800,7.775828857421875,0.9129062873125076,0.8061744899518788,0.2238309672176837,0.1833495795726776,-0.23860664665699,-0.0852946266531944
1772808000338878000,7.7958779296875,0.7706769139826297,0.7091033781230449,0.3231944277673959,-0.0049319523386657,-0.3709646463394165,-0.1978752166032791
1772808000358926800,7.8159267578125,0.7233832478880882,0.8298834284499287,0.3130399673692882,-0.0886158868670463,-0.2980987727642059,-0.3215157389640808
1772808000378975700,7.835975830078125,0.6372106928229332,1.0834472706303,0.2136593730216845,-0.0981511995196342,-0.1269016563892364,-0.4197608530521393
1772808000399024600,7.856024658203125,0.3526309501320123,1.191228869304806,0.3112191816829144,-0.0808362141251564,-0.0901106894016265,-0.4672848880290985
1772808000419073800,7.87607373046875,0.3920218802779913,1.2646889500521123,0.1094597610197961,-0.0883964896202087,-0.0220821388065814,-0.556270956993103
1772808000439123000,7.896123046875,0.2384405073285102,1.2255395735770462,0.232761840637587,-0.1946016550064087,-0.0079052485525608,-0.6472569704055786
1772808000459171800,7.916171875,0.2512923901170492,0.8834504757255315,0.2778582524161785,-0.1971603482961654,0.0751812234520912,-0.5828170776367188
1772808000479221000,7.936220947265625,0.237368494182825,0.7275817224912345,0.1148723606530576,-0.0358340330421924,0.1643901020288467,-0.4586246311664581
1772808000499269600,7.95626953125,0.6686182229995727,0.551717352193594,-0.0508456594876945,0.130281925201416,0.2258235663175583,-0.4109579026699066
1772808000519318800,7.97631884765625,0.9365735786259174,0.3151914463147521,-0.2778749112900346,0.1275596469640731,0.108172096312046,-0.4834645390510559
1772808000539368000,7.996367919921875,1.1164297950387,0.3191996590428054,-0.7076078788682818,-0.0409958139061927,-0.0726849883794784,-0.6547970175743103
1772808000559416800,8.016416748046876,0.987310078650713,0.2066474849656224,-0.7756728956390172,-0.2543819546699524,-0.216645061969757,-0.8726986050605774
1772808000579466000,8.036466064453125,0.4385620976567268,0.1944904525734484,-0.5893296552944928,-0.3544879555702209,-0.3190481066703796,-1.037426233291626
1772808000599514600,8.0565146484375,0.0207663091748952,0.3070093089029193,-0.6229522311720996,-0.2843137085437774,-0.3005737662315368,-1.059276461601257
1772808000619563800,8.076563720703126,-0.4412169960796833,0.4182579991661012,-0.5918942085528746,-0.1593646705150604,-0.3478963971138,-1.0343477725982666
1772808000639613000,8.096613037109375,-0.9300304405927656,0.4268209525890648,-0.5701669819239527,-0.0755219683051109,-0.5306697487831116,-1.0330588817596436
1772808000659661800,8.116661865234375,-0.8016583277016878,0.4150716242149472,-0.7438597072709351,-0.0198060162365436,-0.5256762504577637,-1.0790799856185913
1772808000679710000,8.1367099609375,-0.5860609358221293,0.4886351653367281,-0.8476224987581372,-0.0375535003840923,-0.3708307445049286,-1.1915408372879028
1772808000699758800,8.1567587890625,-0.5492085842430591,0.4869974811322987,-0.7850437313787638,-0.0417548157274723,-0.2668661773204803,-1.3010247945785522
1772808000719807700,8.176807861328125,-0.4122364007890224,0.401402433694154,-0.5855589776493608,0.0753369629383087,-0.2163140475749969,-1.3592902421951294
1772808000739856600,8.196856689453124,-0.1062105499655008,0.1782369446478784,-0.1622912970950827,0.2135491222143173,-0.1909920275211334,-1.3785035610198977
1772808000759905800,8.21690576171875,-0.0259977800875902,0.0198820736862719,0.0795279294189065,0.2552897930145263,-0.3027468919754028,-1.372666597366333
1772808000779955000,8.236954833984376,-0.1026361986100673,0.0792820648990571,-0.0673326473755761,0.1740818321704864,-0.4176515936851501,-1.3778282403945925
1772808000800003800,8.25700390625,-0.1307815121203661,0.2518902098797261,-0.3237282058505341,-0.0155944488942623,-0.3132887482643127,-1.4959286451339722
1772808000820052700,8.277052734375,-0.5856465098023415,0.4184866933554411,-0.6432850443005561,-0.2789638638496399,-0.194403737783432,-1.739960551261902
1772808000840102000,8.297101806640624,-1.2051502810209989,0.9183065389208496,-0.9681427291050552,-0.3717275559902191,-0.1239359006285667,-2.024564743041992
1772808000860150800,8.31715087890625,-1.3838117346912622,1.2567683861859142,-1.0999477390542625,-0.2190201878547668,0.0061585833318531,-2.2108466625213623
1772808000880200000,8.337199951171876,-1.2666495826005937,1.4697767844855785,-0.9828856863372027,0.0237310752272605,0.0847144052386283,-2.1938915252685547
1772808000900248800,8.357248779296874,-0.8210591937422752,1.4629418238990008,-0.848868699426949,0.2141541540622711,0.1174055337905883,-2.034235954284668
1772808000920298000,8.377298095703125,-0.2923538838237524,1.4674552096702158,-0.9173406895633788,0.3240943849086761,0.117705762386322,-1.9031333923339844
1772808000940347000,8.397346923828126,0.1216921967357397,1.4932033989109097,-0.946100335579738,0.4084079265594482,0.0940719544887542,-1.881654977798462
1772808000960395800,8.417395751953125,0.2400438508719205,1.464884482399374,-0.9430069726742804,0.3987787365913391,-0.0719687938690185,-1.8994903564453125
1772808000980445000,8.43744482421875,0.3148953859776258,1.4143239234633742,-1.0284867962349205,0.3387676775455475,-0.2758738696575165,-1.8860597610473635
1772808001000493800,8.457493896484374,0.2626706932216882,1.4538649296045305,-1.2226267548702656,0.2570088803768158,-0.3796716630458832,-1.872501373291016
1772808001020543000,8.47754296875,0.1541302390038967,1.5014274757683277,-1.5028005176872017,0.1700100302696228,-0.395995557308197,-1.903109073638916
1772808001040592000,8.497591796875,-0.015712532916665,1.4100149742230772,-1.4836615174531935,0.1451693177223205,-0.3452528417110443,-1.987990379333496
1772808001060640800,8.517640869140624,-0.1577870079457759,1.3586331620320675,-1.5128087014824152,0.1145596951246261,-0.261119931936264,-2.1042397022247314
1772808001080690000,8.53768994140625,0.0197293673425912,1.3571632356099783,-1.570687474477291,-0.0129826432093977,-0.0056701810099184,-2.257660388946533
1772808001100738800,8.55773876953125,-0.1526648426264524,1.2112966748215257,-1.5039868048623204,-0.0682226866483688,0.3100904524326324,-2.3860301971435547
1772808001120788000,8.5777880859375,-0.4600976376384496,1.4763145156912505,-1.326477736097574,0.0165376998484134,0.4051672220230102,-2.459324598312378
1772808001140836900,8.5978369140625,-0.498818121176958,1.445443868870288,-1.285376056510955,0.0501624159514904,0.3755230903625488,-2.428621530532837
1772808001160885800,8.6178857421875,-0.7863011840939521,1.3984887870803475,-1.1397038492508231,0.0620634146034717,0.1437622010707855,-2.3342204093933105
1772808001180935000,8.637934814453125,-1.3912228877305983,1.4210942943811415,-0.962378758750856,0.1004693508148193,-0.3281339704990387,-2.233872413635254
1772808001200983800,8.65798388671875,-1.1699199776858091,1.122317976294458,-0.8727711146704852,0.2761303782463074,-0.4177284836769104,-2.076524496078491
1772808001221033000,8.678032958984375,-0.69385670915246,1.0263809830620885,-0.8422830374263226,0.5095898509025574,-0.1821570396423339,-1.9427733421325684
1772808001241081900,8.698081787109375,-0.2588584414571523,1.0099361903481183,-0.91964377887398,0.632506251335144,-0.0546981394290924,-1.8018113374710083
1772808001261134600,8.718134521484375,0.0230424374133348,0.873658272768557,-0.8882172517359256,0.6111504435539246,-0.2039522379636764,-1.7319138050079346
1772808001281183500,8.73818359375,0.1419102243781089,0.7183914309501648,-0.7458987388178706,0.5189273953437805,-0.4198135435581207,-1.767858862876892
1772808001301232600,8.758232666015624,0.1924485714823007,0.7057645890891552,-0.6659757456667721,0.4462438821792602,-0.5289080739021301,-1.808920979499817
1772808001321281800,8.77828173828125,0.0466658895850181,0.8649598563976585,-0.6812821820005774,0.3654438257217407,-0.5199399590492249,-1.805139422416687
1772808001341330400,8.798330322265626,-0.0660439592719078,0.933124753346294,-0.7408945007897914,0.3099789619445801,-0.312888503074646,-1.770771861076355
1772808001361379600,8.818379638671875,-0.1402116037666797,0.9231095552884042,-0.688050945483148,0.3019171059131622,-0.0540804490447044,-1.6823393106460571
1772808001381428500,8.838428466796875,-0.1328594874382019,0.759666421277076,-0.4582698376893997,0.3310957252979278,0.0420172773301601,-1.547492742538452
1772808001401477600,8.8584775390625,-0.0676040481954813,0.5482433924727141,-0.2345749179415404,0.372965008020401,-0.0647231861948967,-1.398548603057861
1772808001421526800,8.87852685546875,0.1185445463597774,0.3885014510668814,-0.1189801612980663,0.4071075320243835,-0.2214265763759613,-1.2507576942443848
1772808001441575400,8.898575439453126,0.143663205525279,0.2820177832484245,-0.175438253840059,0.4033491015434265,-0.3280898928642273,-1.154816508293152
1772808001461624600,8.91862451171875,0.1655447824656963,0.2428971944764256,-0.3027712329417467,0.3700355589389801,-0.3179199695587158,-1.132881999015808
1772808001481673500,8.938673583984375,0.0791471864730119,0.2454052317745983,-0.3661559098765253,0.3112805485725403,-0.2821909487247467,-1.1203254461288452
1772808001501722600,8.95872265625,-0.1735673454016447,0.2544404788844287,-0.294637318585813,0.2613779604434967,-0.2781035900115967,-1.0683361291885376
1772808001521771800,8.978771728515625,-0.1858820525735616,0.2268022381134331,-0.2798411698617041,0.2455431371927261,-0.2084663659334182,-0.9352850317955016
1772808001541820400,8.9988203125,-0.3708317927330732,0.1569111018940806,-0.2050279209397733,0.2077404558658599,-0.2313379794359207,-0.8253334760665894
1772808001561869600,9.01886962890625,-0.3830681739717722,-0.0719112438701093,-0.1170711128063499,0.2257460802793502,-0.2331541180610656,-0.7418280839920044
1772808001581918500,9.03891845703125,-0.6373796196490525,0.0354183732531964,-0.2227935869939625,0.2479843646287918,-0.3927914202213287,-0.7264891862869263
1772808001601967600,9.058967529296876,-0.4623118065565824,0.0633946138069033,-0.5592193983867764,0.3086069822311401,-0.4505608975887298,-0.7162413001060486
1772808001622016800,9.079016845703125,-0.3268663942784071,0.0601112082220613,-0.4987444714188575,0.3812289834022522,-0.4226911962032318,-0.7731407880783081
1772808001642065400,9.0990654296875,-0.1355716690063476,0.0326718510240316,-0.3674811671309173,0.4739947319030761,-0.3722198903560638,-0.8511087894439697
1772808001662114600,9.119114501953124,0.0941688145160675,0.0808490219548344,-0.2744590384319424,0.5113829970359802,-0.3709097504615783,-0.9110985994338988
1772808001682163500,9.13916357421875,0.2538660399973392,0.1337188807465135,-0.2198771150253713,0.4692695438861847,-0.3641757667064667,-0.980575442314148
1772808001702212600,9.159212646484375,0.3492091589897871,0.3098055154927074,-0.1613321332067251,0.4447298943996429,-0.3592956960201263,-1.0291903018951416
1772808001722261800,9.17926171875,0.5115507615000009,0.2806380193278193,-0.1273911390297114,0.4114508330821991,-0.3491538465023041,-1.0218909978866575
1772808001742310400,9.199310302734377,0.5195949517458677,0.4489037511900067,-0.1625597753055393,0.389466255903244,-0.3833130002021789,-0.9764770865440368
1772808001762358800,9.21935888671875,0.7049427513122558,0.6044992404408752,-0.3600143383815884,0.3432667851448059,-0.4129579365253448,-0.9800031185150146
1772808001782407400,9.239407470703124,0.8634761937111616,0.6562512011185289,-0.3750225224211811,0.249893769621849,-0.4277617633342743,-1.0766228437423706
1772808001802456600,9.25945654296875,0.8979694149434566,0.7767230622790754,-0.2789033044897019,0.0735002681612968,-0.443825900554657,-1.2485814094543457
1772808001822505500,9.27950537109375,0.93498367908597,0.8474751992419362,-0.1687299883730709,-0.1108779087662696,-0.3992684185504913,-1.3662481307983398
1772808001842554600,9.2995546875,0.994044355341792,0.8204812477238476,0.1212524901442229,-0.2230816781520843,-0.2989672720432281,-1.4451959133148191
1772808001862603800,9.319603759765624,0.9375292719155548,0.724515759049356,0.3056982263043523,-0.239206463098526,-0.1698050051927566,-1.48948073387146
1772808001882652400,9.33965234375,0.9459621692180632,0.7615979738615453,0.4158940465137362,-0.1892567574977874,-0.090270809829235,-1.462555170059204
1772808001902701600,9.35970166015625,0.911488237208128,0.5453507397711277,0.5545489223577081,-0.2009948045015335,-0.138650506734848,-1.3814949989318848
1772808001922750500,9.37975048828125,0.9631927054822444,0.3030618864513933,0.733508628322184,-0.2574280798435211,-0.1906033456325531,-1.3537867069244385
1772808001942799600,9.399799560546874,0.8216822940766811,0.1624757502838969,0.7989576904408633,-0.3458501100540161,-0.2919693291187286,-1.3692724704742432
1772808001962848800,9.419848876953123,0.5582610747486353,0.0424243064925074,0.6915374724246561,-0.4166460335254669,-0.3541501462459564,-1.358871579170227
1772808001982897400,9.4398974609375,0.242051683562994,0.050785892124474,0.7192927637040615,-0.3734977841377258,-0.3828635513782501,-1.3363113403320312
1772808002002946600,9.459946533203125,0.0921387699931859,-0.0076969842433929,0.6332543564125895,-0.2818014323711395,-0.3453229069709778,-1.296990156173706
1772808002022995500,9.479995361328124,-0.0053507133781909,-0.2076977246709168,0.4511638050764799,-0.2505480051040649,-0.3003371357917785,-1.2576028108596802
1772808002043044600,9.500044677734374,-0.1413426536232233,-0.1809814210504293,0.2992915741324424,-0.1894671767950058,-0.2671988010406494,-1.2508827447891235
1772808002063093800,9.52009375,-0.1429144329845905,-0.2483813249759376,0.1435936474204063,-0.1341835558414459,-0.2223716378211975,-1.286093831062317
1772808002083142400,9.540142333984376,-0.1399994223207235,-0.4671265133619308,0.1844615182511508,-0.1269690841436386,-0.2477877885103225,-1.292107343673706
1772808002103191600,9.560191650390625,-0.0227858323037624,-0.5930195227883756,0.2224362979888915,-0.1295725405216217,-0.2671050429344177,-1.3002431392669678
1772808002123240400,9.580240478515623,-0.0098304891407489,-0.6354979706209153,0.1654393493298441,-0.0888386592268943,-0.2552670538425445,-1.3153103590011597
1772808002143289600,9.60028955078125,0.0046995559930801,-0.6472383850362151,0.0934308556303381,-0.0417903289198875,-0.2511142790317535,-1.3078514337539673
1772808002163338800,9.6203388671875,-0.1549590910434722,-0.7586101171571761,0.1904423462264239,0.0147224878892302,-0.3475801050662994,-1.254004955291748
1772808002183387400,9.640387451171875,-0.2774988445192575,-0.8039397166371345,0.2212300640042871,0.1338469237089157,-0.4276845455169678,-1.1945507526397705
1772808002203436500,9.6604365234375,-0.4707458729028702,-0.8552235483463854,0.1762856644496321,0.2529585659503937,-0.4436268508434295,-1.1599280834197998
1772808002223485700,9.680485595703123,-0.3455179032564163,-0.8514956869296729,0.1778830166436731,0.3407824039459228,-0.3250468373298645,-1.1928377151489258
1772808002243534600,9.70053466796875,-0.3358621861606836,-0.7940194303210825,0.3365173621337861,0.3319212198257446,-0.2587998509407043,-1.2441612482070925
1772808002263580700,9.72058056640625,-0.5631038386046886,-0.7275340839572251,0.5422849224597215,0.2140552401542663,-0.3503942191600799,-1.250269889831543
1772808002283629800,9.7406298828125,-0.902864201247692,-0.5620213040649891,0.6626635523788631,0.1158031225204467,-0.4347787201404571,-1.239008903503418
1772808002303679000,9.760678955078124,-1.1109417190164328,-0.3749366707686334,0.7174927285447716,0.1566755026578903,-0.4218936562538147,-1.1946216821670532
1772808002323728000,9.780727783203124,-1.1283809295952318,-0.1944583038695156,0.7346617438800632,0.3032321333885193,-0.3263729512691498,-1.1082992553710938
1772808002343777000,9.800777099609377,-0.8261930494993924,-0.1068655067428946,0.859285610153526,0.4480127394199371,-0.213789016008377,-1.0030895471572876
1772808002363826000,9.820825927734376,-0.486052163106203,-0.0829452635817229,0.9647354048795996,0.429041177034378,-0.2514017522335052,-0.895294189453125
1772808002383874800,9.840874755859376,-0.2197118414610624,0.0020410043083131,0.9827264041222632,0.2149755507707595,-0.3929243981838226,-0.809631884098053
1772808002403924000,9.860924072265624,-0.3196744369477033,-0.0281710324734449,0.8435891515888273,-0.046945534646511,-0.503966748714447,-0.7697170972824097
1772808002423972900,9.880972900390624,-0.382253350457549,0.1207144377447664,0.6931623702127486,-0.1178520247340202,-0.3763869106769562,-0.796850860118866
1772808002444022000,9.90102197265625,-0.6547562863856554,0.2956784982018172,0.5234568148057908,-0.0091854184865951,-0.2414387464523315,-0.802025556564331
1772808002464070000,9.92106982421875,-0.8290326568394899,0.326925284858793,0.3457567535135895,0.1624466478824615,-0.1503010690212249,-0.7496795058250427
1772808002484119000,9.941119140625,-0.4608054936468601,0.2957901418827474,0.1838201881403103,0.3489397466182709,0.0429832823574543,-0.6684228777885437
1772808002504167700,9.961167724609377,-0.1743745701313018,0.3544857842184603,0.056916394236125,0.4522298574447632,0.1123207062482833,-0.6277158856391907
1772808002524216800,9.981216796875,0.1982195560991764,0.3875961727902293,-0.2865096878401935,0.4140522181987762,0.0539299510419368,-0.6243659257888794
1772808002544266000,10.001265869140624,0.1739800178557634,0.4233984307944774,-0.5724195831563323,0.2661035060882568,-0.1218589171767234,-0.658315896987915
1772808002564315000,10.02131494140625,0.0976508114129304,0.4841982058025896,-0.7505953722015023,0.1199229881167411,-0.2402839511632919,-0.7676061391830444
1772808002584364000,10.041364013671876,0.2339484566062688,0.549532263239473,-1.2328642173767088,0.0107940975576639,-0.0833223462104797,-0.8606749176979065
1772808002604412700,10.06141259765625,0.1498340031147003,0.8377763736568391,-1.37973600968495,0.0661966875195503,0.1254514455795288,-0.9428378343582152
1772808002624461800,10.0814619140625,0.4481780672639608,0.7389725928165018,-1.287234397728741,0.2219564914703369,0.3281435072422027,-0.9453356266021729
1772808002644511000,10.101510986328124,0.866942408517003,0.5356320404417813,-1.308829558943212,0.3056292831897735,0.3799842000007629,-0.8663594722747803
1772808002664559900,10.121559814453123,1.1865063708275556,0.2806979328215122,-1.009331940844655,0.2751103043556213,0.2442731857299804,-0.8388290405273438
1772808002684609000,10.141609130859376,1.533111484798789,-0.0028013211563229,-0.7567907927755266,0.2195173054933548,0.1169907972216606,-0.8267392516136169
1772808002704658000,10.161657958984376,1.632859560751915,-0.1285484923712909,-0.8170322032485157,0.1580160409212112,0.015606764703989,-0.7653575539588928
1772808002724706800,10.181706787109375,1.7117758610785003,-0.1512561448723077,-0.9332821358650922,0.0711303204298019,-0.0616409741342067,-0.7031362056732178
1772808002744756000,10.201755859375,1.555547773012519,-0.3677500472001731,-0.9544393440537154,-0.0463056676089763,-0.1418862789869308,-0.657063901424408
1772808002764804900,10.221804931640625,1.2746247992634772,-0.4267779902301728,-0.9325907195348292,-0.1012380272150039,-0.2028341293334961,-0.6419442892074585
1772808002784854000,10.24185400390625,1.066865845924616,-0.4261991674289107,-1.1564501821946351,-0.1211310848593711,-0.1519431173801422,-0.6165488958358765
1772808002804903000,10.26190283203125,0.7259756024688482,-0.416687973370403,-1.156479919745773,-0.1464630365371704,-0.0902622416615486,-0.6233543753623962
1772808002824951800,10.281951904296877,0.5438005877196789,-0.5828760221756994,-0.9194926069002598,-0.1691752672195434,-0.0075171031057834,-0.628542959690094
1772808002845001000,10.3020009765625,0.1628659186452627,-0.5921781035281718,-0.571127789780125,-0.1052305474877357,0.0701867640018463,-0.5709360241889954
1772808002865049900,10.3220498046875,-0.1739472846299409,-0.6025478141121566,-0.1630282696001231,-0.010819049552083,0.1016955077648162,-0.4566610753536224
1772808002885099000,10.34209912109375,-0.7749012536793947,-0.6432948350422084,0.0617528379492461,0.0192026309669017,-0.0324111953377723,-0.3021019995212555
1772808002905148000,10.36214794921875,-0.4723439557492733,-0.6720441057950258,0.0034969752702862,0.0379776954650878,0.117145150899887,-0.1008666828274726
1772808002925196800,10.38219677734375,-0.6824585323035717,-0.7233627896219491,0.1147484420124441,0.1076148375868797,0.2799026370048523,0.134074717760086
1772808002945246000,10.402245849609375,-0.7804483664125204,-0.5591380037136375,0.5118931451968849,0.4711723625659942,0.4730018079280853,0.0610426515340805
1772808002965293800,10.4222939453125,-1.2159756264179944,-0.5428169835098088,0.0559255931004881,0.4455864727497101,0.0699557960033416,0.0514058917760849
1772808002985343000,10.442343017578125,-0.9110159435212613,-0.5008233235195279,0.0339069457769393,0.2534653544425964,-0.3784035146236419,0.0393414907157421
1772808003005392000,10.462391845703126,-0.7143640751302242,-0.1002145244210958,0.0363280354440212,0.0435290075838565,-0.530929684638977,-0.1085957437753677
1772808003025441000,10.48244091796875,-0.9876818345725537,0.0954771206356585,-0.0177981070190668,-0.3430074453353882,-0.3992955088615417,-0.264679491519928
1772808003045489700,10.50248974609375,-1.514089973464608,0.3846212486326694,0.4511411548532545,-0.6718633770942688,-0.2135466784238815,-0.4281123578548431
1772808003065538800,10.522538818359376,-1.8725544520556925,0.7217445407703519,0.9376461762934922,-0.6941359639167786,-0.1734468191862106,-0.50669264793396
1772808003085588000,10.542587890625,-2.205837143117189,0.9206469645671546,0.997539138654992,-0.4068790376186371,-0.5144530534744263,-0.4141744673252105
