time,seconds_elapsed,accel_z,accel_y,accel_x,gyro_x,gyro_y,gyro_z
1772807981495845400,0.093845458984375,0.578856703531742,0.5251901414044201,0.0909280059639364,0.377584308385849,0.2197869718074798,0.1402059346437454
1772807981515894300,0.113894287109375,1.1553554457604884,0.142375357671827,-0.0556961682587862,0.2092982977628708,0.0879367217421531,0.1988767087459564
1772807981535943200,0.133943115234375,1.179181727027893,0.027405162667483,-0.3273357653558254,0.068687304854393,-0.1499880999326706,0.1509453058242797
1772807981555992300,0.153992431640625,0.6933043359667063,-0.0107201314568519,-0.4771967660753056,0.0231705866754055,-0.3980367183685303,0.0213709436357021
1772807981576041200,0.174041259765625,0.7964262722671032,0.2391309738107025,-1.0188451807297765,-0.0059901000931859,-0.3373254537582397,-0.1416594237089157
1772807981596089300,0.19408935546875,0.9844576118290423,0.3905775266885757,-1.1101567791838198,-0.0993475764989852,-0.0668083578348159,-0.3282952904701233
1772807981616138200,0.21413818359375,1.066674122744799,0.4449975375317037,-0.7076527409233152,-0.1654643267393112,0.2011431753635406,-0.4550048112869262
1772807981636187400,0.2341875,1.056727313748002,0.3988200159855187,-0.2309583348795771,-0.1731370389461517,0.2741203904151916,-0.4227695763111114
1772807981656236300,0.254236328125,1.0315390964776276,0.3690321959652006,0.1585264281362295,-0.1425960659980774,0.18743796646595,-0.2962945103645324
1772807981676285200,0.27428515625,1.122483688250184,0.1645192388102412,0.4582897844988852,-0.1274255961179733,0.0167127456516027,-0.1299732029438018
1772807981696334300,0.294334228515625,1.0841863985598086,-0.0374393576867878,0.5714147900279611,-0.1371792554855346,-0.1155022829771041,0.0168048664927482
1772807981716383200,0.31438330078125,0.9651426705062388,-0.1382926184028386,0.3889423267021775,-0.2222614735364914,-0.2525607347488403,0.1280751526355743
1772807981736431400,0.334431396484375,0.7016308502852916,-0.2861794329725206,0.166987126761116,-0.2956959009170532,-0.2408399581909179,0.1792481541633606
1772807981756480300,0.354480224609375,0.5146937357008456,-0.2601288997843861,-0.1510582111474126,-0.3242564797401428,-0.1078961938619613,0.1664048284292221
1772807981776529400,0.374529296875,0.3444301080197096,-0.3447437040135264,-0.2183494305340573,-0.3127722144126892,0.047248188406229,0.1380567699670791
1772807981796578000,0.394578125,0.2296674182862043,-0.4196116057321429,-0.2508870241865515,-0.263035386800766,0.119669608771801,0.1507811844348907
1772807981816627200,0.414627197265625,0.1053232457369565,-0.5453732438638806,-0.1710614269953221,-0.1711877137422561,0.1022393330931663,0.1681627035140991
1772807981836676400,0.43467626953125,0.0423345823824405,-0.6603356939531863,0.004441672241874,-0.0486644096672534,0.0565502569079399,0.1980637609958648
1772807981856725200,0.454725341796875,-0.1173942072808742,-0.7085293776273727,-0.0221781122015789,0.0335261039435863,0.0133952489122748,0.2604871690273285
1772807981876774400,0.4747744140625,0.1389835232764482,-0.7156791032515466,-0.1887227558922022,0.0699910521507263,0.0947015881538391,0.2885536849498749
1772807981896822300,0.494822265625,0.095378190305829,-0.7778069119930267,-0.3426311688389629,0.067005805671215,0.158286839723587,0.2389456182718277
1772807981916871400,0.514871337890625,-0.0918792422741651,-0.7294321726635098,-0.4625491224437952,0.0825216695666313,0.1491179168224334,0.1501402854919433
1772807981936920000,0.534920166015625,-0.2558341251999139,-0.754163586077094,-0.5783546722937375,0.1255601644515991,0.1505605429410934,0.0937706977128982
1772807981956969200,0.55496923828125,-0.2853624175012111,-0.7338431209735572,-0.6233139771565794,0.1765935570001602,0.1645482927560806,0.0583716668188571
1772807981977018400,0.575018310546875,-0.4002238914340734,-0.740591133929044,-0.6499259436197579,0.2566550970077514,0.1801389753818512,0.0381087400019168
1772807981997067300,0.5950673828125,-0.4018617217689752,-0.682259356469661,-0.7281590109225362,0.3540331721305847,0.2163906693458557,0.0268966555595397
1772807982017116400,0.615116455078125,-0.2108487360477447,-0.7449256560020149,-0.8212124846078455,0.4154614508152008,0.2853576838970184,0.0352871604263782
1772807982037165000,0.6351650390625,-0.1410901401668786,-0.8567946701206266,-0.726920262907818,0.4330811500549316,0.2789241671562195,0.0488710962235927
1772807982057213200,0.655213134765625,0.0041132805377244,-0.9855625043310224,-0.624361878774315,0.417778730392456,0.216569498181343,0.069959633052349
1772807982077262000,0.675261962890625,0.120029816481471,-1.1675479878574608,-0.4635126337137073,0.317399650812149,0.1152665838599205,0.0952657908201217
1772807982097311200,0.695311279296875,-0.0433335302919149,-1.1874525656364858,-0.6423320544246583,0.0377710200846195,-0.1524085104465484,0.0347439721226692
1772807982117360400,0.7153603515625,-0.792556737357378,-0.7681989795617759,-1.0193858634777366,-0.3306199014186859,-0.470682680606842,-0.298756867647171
1772807982137409300,0.7354091796875,-1.1453922701507806,-0.1233328035496175,-1.2277971432454884,-0.5893961787223816,-0.3122086226940155,-0.6770177483558655
1772807982157458400,0.75545849609375,-1.7022855636775494,0.5634491449110209,-1.1979256635297089,-0.5974825024604797,-0.0622557699680328,-0.8730244040489197
1772807982177507000,0.775507080078125,-2.166400620263815,1.071611140755564,-0.8964828296475111,-0.285223513841629,0.1380840539932251,-0.7140367031097412
1772807982197556200,0.79555615234375,-2.372159339696169,1.3672846705213189,-0.5393302373725921,0.1662871390581131,0.0943682417273521,-0.3374964892864227
1772807982217604000,0.81560400390625,-1.6238433106034993,1.0710007537722588,0.0075812763086985,0.6997359991073608,0.0922367870807647,0.093993991613388
1772807982237653500,0.835653564453125,-0.3989624931961297,1.1774261155322194,0.2036839224522933,0.9323581457138062,-0.006919159553945,0.2817732393741607
1772807982257702700,0.85570263671875,0.5177700744062662,0.9417676401376724,0.3081128862306475,0.8175491094589233,-0.1252923011779785,0.2646169364452362
1772807982277751600,0.87575146484375,1.0526087725132702,0.6857585967622697,0.4326721263026818,0.4909321069717407,-0.2511319816112518,0.1131137982010841
1772807982297800400,0.895800537109375,0.923825156211853,0.5459995590686798,0.4904129886642098,0.2245060056447982,-0.3580563068389892,-0.0917860865592956
1772807982317849300,0.915849365234375,0.7187018120735883,0.8284551492124795,0.3025213863665237,0.1602687090635299,-0.3512961864471435,-0.2317739278078079
1772807982337898500,0.9358984375,0.4027998794019222,0.9333274363115428,0.3365206135367974,0.1533435732126236,-0.3488747179508209,-0.2858182787895202
1772807982357947600,0.95594775390625,0.0255330851852893,1.0097697477400305,0.535451715438813,0.1249370574951171,-0.3809607326984405,-0.2921242415904999
1772807982377995500,0.97599560546875,0.0032534488379955,1.136197448565066,0.3960106576532125,0.1417881101369857,-0.2487124651670456,-0.306005984544754
1772807982398044700,0.996044677734375,0.2274818909406661,1.2844237242221832,0.2024932148303836,0.1936127245426178,0.0115054845809936,-0.3371659219264984
1772807982418093600,1.016093505859375,0.7361585583090782,1.1759043127924202,0.2626009889863431,0.2157208025455474,0.2269366085529327,-0.3537497520446777
1772807982438142500,1.036142578125,1.1724012731075286,0.9743658414036036,0.390496533874236,0.1432968527078628,0.2218058109283447,-0.3886396586894989
1772807982458191400,1.05619140625,1.454678584074974,0.7999100227296352,0.428373661923781,0.033350259065628,0.1149667724967002,-0.4479682445526123
1772807982478240500,1.076240478515625,1.5924562386929988,0.5954401740640402,0.6001932138100267,-0.0450205355882644,-0.0017755867447704,-0.4993327558040619
1772807982498289700,1.09628955078125,1.5541069265544414,0.5587479814827442,0.5860545060813427,-0.0848254933953285,-0.0734619498252868,-0.4810220599174499
1772807982518338600,1.116338623046875,1.535561800560355,0.5705637992218137,0.4280238255728036,-0.1684994846582412,-0.0873233005404472,-0.4527577757835388
1772807982538387500,1.136387451171875,1.287322368273139,0.494976351056993,0.3795854829551652,-0.2653028964996338,-0.1153376772999763,-0.4422346949577331
1772807982558435300,1.156435302734375,0.9071014004260302,0.3984925375968217,0.2432857371362857,-0.3253010809421539,-0.158327966928482,-0.4383106529712677
1772807982578484500,1.176484375,0.6545452739834785,0.3252174580276012,-0.022699396129325,-0.365663468837738,-0.1446980088949203,-0.4869789779186249
1772807982598533400,1.196533447265625,0.3150941234201193,0.2676284617595374,-0.174272388398461,-0.3936193585395813,-0.1244057714939117,-0.5838028788566589
1772807982618582500,1.21658251953125,-8.70937615633e-05,0.1095237661667168,-0.1556113078745082,-0.3334095776081085,-0.0898239165544509,-0.6321171522140503
1772807982638631700,1.236631591796875,-0.261802093693614,0.1666074432611465,-0.178481165199913,-0.2330109775066375,-0.1155297756195068,-0.6206974983215332
1772807982658680300,1.256680419921875,-0.5005611654520035,0.1094675059348344,-0.189422392061539,-0.2065704613924026,-0.2450361400842666,-0.5829465985298157
1772807982678729500,1.2767294921875,-0.8293664188385009,0.157427965375036,-0.293294690071512,-0.2021590769290924,-0.3596196174621582,-0.5571122169494629
1772807982698778400,1.2967783203125,-0.8170674937576055,0.22525062475726,-0.6067652856767177,-0.13991479575634,-0.2284562140703201,-0.5456297993659973
1772807982718827500,1.31682763671875,-0.6008540158063173,0.1936833739742636,-0.806665999795869,0.0038903828244656,0.0716377645730972,-0.5507526397705078
1772807982738876700,1.336876708984375,-0.0648304918289184,0.2761677420459688,-0.7334301562584936,0.0951465815305709,0.1267309486865997,-0.62991863489151
1772807982758924500,1.356924560546875,0.1319020405828952,0.2358288635253906,-0.379844316554442,-0.0096463533118367,-0.0373587310314178,-0.7056757807731628
1772807982778973700,1.3769736328125,0.6050982292473316,0.0621647797510027,0.0356419711423106,-0.2820500135421753,-0.177610844373703,-0.8160365223884583
1772807982799022300,1.397022216796875,0.5583072519779205,0.0690995474502444,0.1375179625022225,-0.7001363635063171,-0.3611582815647125,-0.8802343010902405
1772807982819071500,1.417071533203125,-0.011691606837511,-0.1565267787516117,0.0123388186998665,-1.068258285522461,-0.5725541710853577,-0.8668795824050903
1772807982839120400,1.437120361328125,-1.1316980913192034,0.2183291549310088,-0.5180636505253613,-1.1845759153366089,-0.7205906510353088,-0.9067009091377258
1772807982859169500,1.45716943359375,-2.0563374865233897,0.2657525848850607,-0.8006941588446498,-0.992164671421051,-0.7352885007858276,-0.9657220840454102
1772807982879218700,1.47721875,-2.539906600642204,0.6240586580440401,-1.0419031079731882,-0.5324820280075073,-0.4862737357616424,-0.9577342867851256
1772807982899267300,1.497267333984375,-2.052556214419007,0.6421297367855906,-1.125956040535867,0.0058370698243379,-0.0128168687224388,-0.8125927448272705
1772807982919316500,1.51731640625,-1.2420388729572296,0.4594606549091637,-0.9339059668518602,0.4107583165168762,0.2352388501167297,-0.5876481533050537
1772807982939365400,1.537365478515625,-0.3986784155577421,0.2992573796018958,-0.8544888043310492,0.5958258509635925,0.1450827717781067,-0.4360507130622864
1772807982959413500,1.55741357421875,0.5172065953046083,0.1228456045545637,-1.0144666003193703,0.5904213190078735,-0.0288011170923709,-0.4466822445392608
1772807982979462400,1.57746240234375,0.8794476698249578,0.1157892563022673,-1.295640114763379,0.3725066781044006,-0.224431112408638,-0.6579172015190125
1772807982999511600,1.597511474609375,1.1065905380696055,0.0752387808576226,-1.4659572261974214,0.0611870400607585,-0.2987459897994995,-0.9987913966178894
1772807983019560400,1.617560546875,0.913789499887824,0.2061475726194679,-1.4900370438344777,-0.1948737800121307,-0.2605491280555725,-1.2683143615722656
1772807983039609300,1.637609375,0.3912000425010919,0.3629677813597023,-1.4978075317054986,-0.3082318603992462,-0.22987762093544,-1.3153337240219116
1772807983059658500,1.657658447265625,-0.2180149744153022,0.5378960398510099,-1.3718676143974065,-0.3039794266223907,-0.2323238849639892,-1.2579748630523682
1772807983079707600,1.677707763671875,-0.4114186546653509,0.5128798181466758,-1.1682498525165022,-0.1336850225925445,-0.1187547296285629,-1.135114073753357
1772807983099756500,1.697756591796875,-0.3810568341493606,0.4623708432674407,-0.9770163559123872,0.0978151634335517,0.0225822944194078,-0.9628700613975524
1772807983119805700,1.7178056640625,-0.0285556478768587,0.3573860357046127,-0.8756563147179782,0.262751042842865,0.0655554011464119,-0.8017812371253967
1772807983139854300,1.737854248046875,0.3708674485683441,0.173159202992171,-0.7772747048124671,0.3031880557537079,-0.015838224440813,-0.7145788669586182
1772807983159903500,1.757903564453125,0.7920563866198063,-0.0146608319066464,-0.8475455610644071,0.2898962795734405,-0.0878043696284294,-0.6878823041915894
1772807983179951400,1.777951416015625,0.984172949668765,-0.1164097262881696,-1.0589604796275496,0.209488183259964,-0.142393946647644,-0.6934811472892761
1772807983200000500,1.79800048828125,0.8677303440243005,-0.1842972676001489,-1.3062421727985143,0.1080927103757858,-0.2225738912820816,-0.7490113377571106
1772807983220049700,1.818049560546875,0.7044137590020895,-0.0346073491312563,-1.5766374689228833,0.0415195301175117,-0.2068109959363937,-0.8632360100746155
1772807983240097800,1.838097900390625,0.5591945562064647,0.019646803625673,-1.6977026198014615,0.0069309351965785,-0.1213034614920616,-0.9650981426239014
1772807983260147000,1.85814697265625,0.4110346237838268,0.0966106547102332,-1.6065952386826277,0.0277597047388553,-0.0223421268165111,-1.0030313730239868
1772807983280195800,1.87819580078125,0.2377069323569536,0.2179004081249237,-1.6325148389674722,0.0745625346899032,0.0404258891940116,-1.0065701007843018
1772807983300244700,1.89824462890625,0.1794704319655895,0.2433043139725923,-1.5011064271204173,0.1158720254898071,0.1056777462363243,-1.0097804069519043
1772807983320294000,1.9182939453125,0.1530021117568016,0.090158117569983,-1.2186930686831474,0.205176904797554,0.1347109228372573,-0.9634299874305724
1772807983340342800,1.9383427734375,0.1321452016890049,0.102699180843681,-1.1330321894671769,0.3191919922828674,0.1177406534552574,-0.8846182823181152
1772807983360392000,1.958391845703125,0.279851545125246,-0.066477966775,-0.8905995437625795,0.3721881210803985,0.1013644188642501,-0.8229047656059265
1772807983380440800,1.97844091796875,0.4755155715227127,-0.2410932137943804,-0.6762365159835666,0.3100611567497253,0.0651401951909065,-0.7646165490150452
1772807983400489700,1.99848974609375,0.4409270732223987,-0.3959514748118817,-0.4491747866837307,0.1540184170007705,-0.1101898998022079,-0.7417470812797546
1772807983420537600,2.01853759765625,-0.0324012173891067,-0.3162001849658787,-0.3455300320856272,0.0127671286463737,-0.3307345807552337,-0.8146069645881653
1772807983440586800,2.038586669921875,-0.2004430773675441,-0.0094698391348123,-0.384160864579305,0.007715462706983,-0.2928594350814819,-0.9602445363998412
1772807983460636000,2.058635986328125,-0.2527285604000091,0.3865126153372228,-0.4342197210708632,0.0929010659456253,-0.0245965179055929,-1.054469108581543
1772807983480684800,2.078684814453125,0.0889279912531375,0.4962333653807639,-0.0723049467622768,0.1496102213859558,0.1963738054037094,-1.038523554801941
1772807983500734000,2.09873388671875,0.0008282675176858,0.5914370759025216,0.2043094156731851,0.0525539964437484,0.0703933238983154,-0.9706345796585084
1772807983520782600,2.118782470703125,-0.0549555790245532,0.5901189790412783,0.3395091643609106,-0.0736677497625351,-0.1296305060386657,-0.906356394290924
1772807983540831700,2.138831787109375,-0.3498480414152145,0.6917302185177803,0.3323030689070001,-0.1508820652961731,-0.2494124323129654,-0.878989040851593
1772807983560881000,2.158880859375,-0.4683049094915389,0.851082576084137,0.0621772647732403,-0.0566147863864898,-0.1244024336338043,-0.8371941447257996
1772807983580929800,2.1789296875,-0.603195025974512,1.0668537170954049,-0.1347807012917473,0.1337804198265075,0.0111948726698756,-0.7890598773956299
1772807983600979000,2.19897900390625,-0.497760721078515,1.1243712555624543,-0.1487201053223572,0.2718463242053985,0.0025529956910759,-0.7083336114883423
1772807983621027600,2.219027587890625,-0.2811024219691753,1.0853699092559517,-0.170240356403403,0.2677811086177826,-0.1708731651306152,-0.6673471927642822
1772807983641076700,2.23907666015625,-0.0564320813179016,0.9805926069639622,-0.1057114596032537,0.200068399310112,-0.3228098750114441,-0.7015434503555298
1772807983661126000,2.2591259765625,-0.0244727624773979,1.0198010201498866,-0.180581370615866,0.1106093004345893,-0.4195368587970733,-0.8134041428565979
1772807983681173800,2.279173828125,-0.1175730709791183,1.0944146548464893,-0.2929195914151147,0.0566574558615684,-0.3876301050186157,-0.927944004535675
1772807983701223000,2.299222900390625,-0.2216524541348218,1.133501925870776,-0.2054727420978248,0.0588799081742763,-0.3672643899917602,-1.0119293928146362
1772807983721271800,2.319271728515625,-0.4895516956597566,1.2390002359136938,-0.0692994630696717,0.0319279171526432,-0.4067378342151642,-1.0577635765075684
1772807983741321000,2.339321044921875,-0.367588865289092,1.2145622524887325,-0.1050290942291263,-0.0296869277954101,-0.3679721653461456,-1.1160805225372314
1772807983761369600,2.35936962890625,-0.3880085529834032,1.225008827701211,-0.1388452655832283,-0.0977367386221885,-0.3072115182876587,-1.21642005443573
1772807983781418800,2.379418701171875,-0.2918400890827178,1.1559072344243526,-0.1350535725495312,-0.1103057041764259,-0.2277791947126388,-1.3136438131332395
1772807983801468000,2.399468017578125,-0.2509071901917457,1.1949835456632076,-0.0655777482659556,-0.0733343139290809,-0.2278845012187957,-1.380704045295715
1772807983821516800,2.419516845703125,0.017696984732151,1.19468558562994,-0.0292190893548075,-0.0288148466497659,-0.2156721502542495,-1.4178199768066406
1772807983841566000,2.43956591796875,0.2741664852261543,1.1946516833603382,-0.1073845256483182,-0.0615156106650829,-0.1951367855072021,-1.4895248413085938
1772807983861614600,2.459614501953125,0.5226899951517582,1.0762016834162176,-0.0501219848556444,-0.08217104524374,-0.1310963481664657,-1.593228101730347
1772807983881663700,2.479663818359375,0.6618827772647142,1.083891507266462,0.0769947759457863,-0.0657520368695259,-0.1429495811462402,-1.638923406600952
1772807983901713000,2.499712890625,0.6929670668363571,1.0656460948713122,0.0983335877790115,-0.1108868047595024,-0.2906645536422729,-1.6633821725845337
1772807983921761800,2.51976171875,0.7061211474418639,1.0123518731877208,0.184557580770459,-0.2045544385910034,-0.4199950397014618,-1.7024059295654297
1772807983941811000,2.53981103515625,0.5596177500545978,0.9745601949319244,0.1423841802990995,-0.2819339632987976,-0.4553855359554291,-1.7858444452285769
1772807983961859600,2.559859619140625,0.3622656244397163,0.9963983711220324,0.0880794846650213,-0.3171955645084381,-0.3761329352855682,-1.8681888580322263
1772807983981908700,2.57990869140625,0.0620703794658184,0.9511711360380052,0.1766871944552287,-0.3142585158348083,-0.3679966032505035,-1.8915859460830688
1772807984001956600,2.59995654296875,-0.2550269004702568,0.9469291145540774,0.2603193808551877,-0.2600759863853454,-0.4173672199249267,-1.880462408065796
1772807984022005800,2.620005859375,-0.3841571382522583,0.879963802653551,0.3364196373803541,-0.1686814427375793,-0.4443980455398559,-1.8785189390182493
1772807984042055000,2.640054931640625,-0.3455009521216154,0.7292240828707813,0.4553063847739249,-0.1031159162521362,-0.4563468694686889,-1.8691498041152956
1772807984062103800,2.660103759765625,-0.3148398563981056,0.6410317124158144,0.4719089983981102,-0.1008532047271728,-0.5136644244194031,-1.859402775764465
1772807984082153000,2.680153076171875,-0.2788730554819107,0.5224008029468358,0.4818070728823542,-0.0949697121977806,-0.5395359992980957,-1.8838837146759035
1772807984102201600,2.70020166015625,-0.4866635730028152,0.6568536970563232,0.4022008175302297,-0.0816761031746864,-0.6052442789077759,-1.9454632997512815
1772807984122250800,2.720250732421875,-0.4178343669265508,0.728283002628386,0.2701631861352361,-0.0614358931779861,-0.5833993554115295,-1.9887285232543943
1772807984142300000,2.7402998046875,-0.5024018248826265,0.9172799723520876,0.265619240828976,-0.0824294090270996,-0.6249471306800842,-2.025396585464477
1772807984162348800,2.760348876953125,-0.4121382011115551,1.1374622078038752,0.0566172514593461,-0.1341691315174102,-0.6198502779006958,-2.0408639907836914
1772807984182398000,2.78039794921875,-0.36270635394454,1.3403821966789662,-0.2183313834207132,-0.2454405725002288,-0.5829101800918579,-2.103074550628662
1772807984202446600,2.800446533203125,-0.2182838544845581,1.4663963482670486,-0.2991440188879147,-0.3210757970809936,-0.4699747264385223,-2.227195978164673
1772807984222495700,2.820495849609375,-0.2616243990391492,1.611008232819289,-0.3547803467182442,-0.3473678231239319,-0.3724150359630584,-2.345701217651367
1772807984242545200,2.840545166015625,-0.2532996382862329,1.678788660494983,-0.2607695540417917,-0.3253781497478485,-0.3366409838199615,-2.399300575256348
1772807984262594000,2.860593994140625,-0.3799029879391193,1.7020871184960007,-0.122592186915921,-0.2466681897640228,-0.3539978861808777,-2.36346173286438
1772807984282643200,2.880643310546875,-0.1950537855446338,1.6749786006875336,-0.1732360858869738,-0.1565688401460647,-0.3136335909366607,-2.2732021808624268
1772807984302691800,2.90069189453125,0.055163084295392,1.435894096367061,-0.3304546645613387,-0.1071497127413749,-0.2383875995874405,-2.1687874794006348
1772807984322741000,2.920740966796875,0.2709557064861059,1.303882604060322,-0.5307984097402543,-0.1474209725856781,-0.3205688893795013,-2.134552001953125
1772807984342790100,2.9407900390625,0.1282084467619657,1.0602940663188696,-0.7608907754402607,-0.2324600517749786,-0.4732913374900818,-2.151859760284424
1772807984362839000,2.960839111328125,0.0545025745600461,1.093343664614111,-1.1654632905378937,-0.346188873052597,-0.5000028610229492,-2.276578426361084
1772807984382888200,2.98088818359375,-0.0816793352991342,1.1804045468211173,-1.3875881844900548,-0.4501054584980011,-0.3979037702083587,-2.45498275756836
1772807984402936000,3.00093603515625,-0.345158422294259,1.287673812059313,-1.2671591395579278,-0.4538536071777344,-0.2490213364362716,-2.5491943359375
1772807984422985000,3.02098486328125,-0.4086258090764283,1.279905370014906,-1.0236279580269008,-0.339216947555542,-0.1154984012246131,-2.5019047260284424
1772807984443033900,3.041033935546875,-0.3182102096140384,1.1300297927808016,-0.7145463728945702,-0.2111671566963195,-0.1570748090744018,-2.3607988357543945
1772807984463083000,3.0610830078125,-0.0777343970656394,0.8578509011752903,-0.5268973471811041,-0.1553002893924713,-0.2884606420993805,-2.21958065032959
1772807984483132200,3.081132080078125,0.2499497433364391,0.6113770172558725,-0.5043289935529232,-0.1799982637166977,-0.3831783235073089,-2.135349035263061
1772807984503181000,3.10118115234375,0.4398363553762435,0.3295811331298202,-0.6358766677401959,-0.2692424058914184,-0.4625298380851745,-2.0978200435638428
1772807984523230000,3.12122998046875,0.001801496464014,0.25808409608379,-0.8120505423784256,-0.4028041362762451,-0.6136741638183594,-2.1362223625183105
1772807984543278800,3.14127880859375,-0.2985521539419889,0.2524621645487845,-0.8964826104518026,-0.3568991124629974,-0.5063574910163879,-2.160980463027954
1772807984563328000,3.161327880859375,-0.3482330074340105,0.4111919332373887,-0.937154666449502,-0.2126396596431732,-0.3410892188549042,-2.153880834579468
1772807984583377200,3.181377197265625,-0.3644266018658876,0.3314084216222167,-0.8582354435134678,-0.0956358388066291,-0.1995952725410461,-2.097135305404663
1772807984603426000,3.201426025390625,-0.1737608221471309,0.1977342568002641,-0.5341121373981237,-0.0554779544472694,-0.2191299349069595,-2.03239107131958
1772807984623475200,3.22147509765625,-0.1203980652719736,0.0843661632303148,-0.324049108367972,-0.0135734705254435,-0.2372961789369583,-1.9597033262252808
1772807984643523800,3.24152392578125,0.2102987009495496,0.1081821422994136,-0.2985246814131737,0.0080614313483238,-0.1954895704984665,-1.913286089897156
1772807984663573000,3.261572998046875,0.4457990631729364,0.019355346398428,-0.1971349026676267,-0.0240904204547405,-0.1456501334905624,-1.867633938789368
1772807984683622100,3.2816220703125,0.4829588732659816,-0.0029332769729197,-0.0811301039185374,-0.0915788859128952,-0.1657617092132568,-1.8364487886428835
1772807984703671000,3.301671142578125,0.2513724696159363,-0.0591960661385208,0.0354946168271824,-0.0449657030403614,-0.1819878369569778,-1.7660812139511108
1772807984723720200,3.32172021484375,0.1659983714520931,0.0667727119378745,0.0353537105191499,0.003771347226575,-0.1475922167301178,-1.6766462326049805
1772807984743768800,3.341768798828125,0.1428822842806577,-0.024796149212867,0.1210312486089766,-0.0273360591381788,-0.1122717335820198,-1.5872313976287842
1772807984763818000,3.36181787109375,0.0644558132976293,-0.074428633518517,0.1463764465393498,-0.0441228970885276,-0.071841612458229,-1.5001749992370603
1772807984783867100,3.3818671875,-0.1115817216098308,-0.1299599666044116,0.3213986669244244,0.0018035797402262,-0.0558413751423358,-1.383858323097229
1772807984803916000,3.401916015625,-0.1146171437829732,-0.1442983616236597,0.3089116719255224,0.0484711304306983,-0.0477760881185531,-1.2380040884017944
1772807984823965200,3.421965087890625,-0.1035661729365587,-0.2287406588301062,0.3402568043904379,0.094742976129055,-0.0608045496046543,-1.0893187522888184
1772807984844013800,3.442013916015625,-0.2027899327546358,-0.2991331687003374,0.3769672632807865,0.172997385263443,-0.0600202903151512,-0.9549258351325988
1772807984864063000,3.46206298828125,-0.0907628054648637,-0.3509923160795122,0.2775599087904207,0.2578272819519043,0.0032945515122264,-0.8155210018157959
1772807984884112100,3.482112060546875,-0.0163490772545337,-0.420885644255951,0.2405293693665414,0.2927569150924682,-0.0060540349222719,-0.6802747845649719
1772807984904161000,3.5021611328125,-0.024054829326272,-0.5679777282513677,0.203853981789574,0.3281138241291046,-0.0503903403878212,-0.5545000433921814
1772807984924210200,3.522210205078125,-0.1059504377245903,-0.7072883645903318,0.2325990878239273,0.3301137387752533,-0.1828455030918121,-0.482561707496643
1772807984944258800,3.5422587890625,-0.5032078805685043,-0.638329686915502,0.1838722105884924,0.2647673487663269,-0.3738436996936798,-0.5053651928901672
1772807984964307000,3.562306884765625,-0.6046855567932129,-0.4961783472578972,0.170240392936021,0.2669922411441803,-0.3513986468315124,-0.5675973892211914
1772807984984355800,3.58235595703125,-0.6087310327917337,-0.1629940750695765,0.3325340281186625,0.3457818031311035,-0.2165235877037048,-0.5969312787055969
1772807985004405000,3.602405029296875,-0.5592956784933805,-0.0337679756976664,0.6364275065559893,0.3951564729213714,-0.1571490317583084,-0.5398855209350586
1772807985024454100,3.6224541015625,-0.3698141401231288,-0.0341042219147086,1.0708853106990457,0.3229259550571441,-0.2523987293243408,-0.4612472653388977
1772807985044503000,3.6425029296875,-0.4059755868285894,-0.0105037122271955,1.1660482508189975,0.1874050498008728,-0.3908971548080444,-0.4148499667644501
1772807985064552200,3.66255224609375,-0.3929635450422764,-0.046245472215861,1.155481117966771,0.217106431722641,-0.301565021276474,-0.3807848691940307
1772807985084601000,3.68260107421875,-0.2438146015822887,0.0616378332674503,1.1515528386071323,0.3535449504852295,-0.1481350809335708,-0.3062454462051391
1772807985104650000,3.70264990234375,0.054780806979537,0.0751224610015749,1.1687765067391096,0.4057686030864715,-0.0598308220505714,-0.1904431730508804
1772807985124699100,3.72269921875,0.5288619617849588,0.0273855811841785,1.1964744418080897,0.3547952771186828,-0.0423963814973831,-0.116359494626522
1772807985144748000,3.742748046875,0.8757990841895341,-0.1247217736899852,1.267987553206086,0.1961241066455841,-0.0655098855495452,-0.1124144047498703
1772807985164797200,3.762797119140625,0.8995300883889198,-0.3299472630284726,1.3563228392630815,-0.0269706286489963,-0.1178909987211227,-0.1575932204723358
1772807985184846000,3.78284619140625,0.5465425799041986,-0.3870249487735331,1.4099188203722235,-0.1177667528390884,-0.1487172245979309,-0.2020416408777237
1772807985204895000,3.80289501953125,0.0872808085680007,-0.2881165385149419,1.4011325795874,-0.0515038929879665,-0.0831146836280822,-0.1707599014043808
1772807985224944000,3.822944091796875,-0.0821732562959194,-0.2973778494656086,1.3439406198129058,0.0286199282854795,0.0510847717523574,-0.0662195459008216
1772807985244996600,3.84299658203125,-0.0831096603631973,-0.4020565136887133,1.3068477374762295,0.011464599519968,0.1344539523124694,0.004674810450524
1772807985265045500,3.86304541015625,-0.082280223801732,-0.5334815844096243,1.2033948156557976,-0.0315335616469383,0.1303277909755706,-0.0201009884476661
1772807985285094400,3.883094482421875,-0.1018389107525348,-0.508147821188718,1.0363852213345468,-0.0107982736080884,0.1806435734033584,-0.0811132118105888
1772807985305143600,3.9031435546875,0.2956622777193785,-0.6130699387788773,1.0639556575663387,0.1074666306376457,0.3481061160564422,-0.0816294699907302
1772807985325192400,3.9231923828125,0.6766665048986673,-0.6643271016769111,1.1514389299038796,0.1399640291929245,0.3961297273635864,-0.0332512855529785
1772807985345241600,3.94324169921875,0.9549293195277452,-0.7879026279412209,1.24057859114632,0.1148214414715766,0.3103982508182525,0.0227925200015306
1772807985365290500,3.96329052734375,1.088756775215268,-0.7737953382641076,1.24903209284544,0.0935239642858505,0.1817438304424286,0.0519246086478233
1772807985385339400,3.98333935546875,1.142093813127279,-0.8614607622355223,1.1997399464100598,0.0524463430047035,0.1022220253944397,0.0466393232345581
1772807985405388500,4.003388427734375,1.133619999292493,-0.8319852230347693,1.0938148623224346,0.0087387645617127,0.0665358081459999,0.0303911659866571
1772807985425437400,4.0234375,0.7609294269502163,-0.7459010769054293,1.0735261805966496,0.0274756997823715,0.0188767369836568,0.0756495371460914
1772807985445486600,4.043486572265625,0.5464905574560165,-0.668293228828907,0.9227269857116044,0.066946230828762,0.0286726038902997,0.1338375210762024
1772807985465535500,4.063535400390625,0.490268904018402,-0.6824174696408212,0.7978777862496673,0.0704955086112022,0.0516559667885303,0.1360692083835601
1772807985485584400,4.08358447265625,0.3165519210129976,-0.7366109782516956,0.7362418526783585,0.0724395290017128,0.0350937023758888,0.1172095760703086
1772807985505633500,4.103633544921875,0.2535983289718628,-0.6476262883752584,0.4947861622471362,0.0436592400074005,0.0147691974416375,0.0822234973311424
1772807985525682400,4.123682373046875,0.1898030254095792,-0.6282211845509708,0.282634490374662,-0.008778222836554,0.0221373997628688,0.0195483602583408
1772807985545731600,4.143731689453125,0.0286292976349592,-0.5601600402377546,0.2354814748598262,0.0195772070437669,0.0624795407056808,-0.0379306264221668
1772807985565780500,4.163780517578125,0.0672808075904846,-0.5260584486715495,0.3147842537533492,0.139666736125946,0.1410101801156997,-0.0076715829782187
1772807985585829400,4.183829345703125,0.0650713148474693,-0.4013793450795114,0.3267396991588175,0.1882873177528381,0.0862048268318176,0.0613612309098243
1772807985605878500,4.20387841796875,0.1060433767050504,-0.5328367106348276,0.3874235196370631,0.1569729298353195,-0.0613402873277664,0.0973362103104591
1772807985625927400,4.223927490234375,0.1468254689484834,-0.583055032004416,0.2721735030443407,0.1240275427699089,-0.1044556871056556,0.0640074983239173
1772807985645976600,4.2439765625,0.1264642334431409,-0.5416840339571237,0.0822519292890094,0.1513552069664001,-0.0691744685173034,0.0213501211255788
1772807985666025500,4.264025390625,0.0330798473030328,-0.5780164533153176,0.0825476425662636,0.2020319104194641,-0.0839314758777618,0.0354812182486057
1772807985686074400,4.284074462890625,-0.0555903697967529,-0.7376594643913209,0.2320436093656346,0.1736080050468444,-0.1820592731237411,0.0834967121481895
1772807985706123500,4.30412353515625,-0.160810155159235,-0.7518665611810982,0.2249669855102896,0.0022866802755743,-0.3135027587413788,0.0743643194437027
1772807985726172400,4.32417236328125,-0.3009755816966295,-0.561413401299715,0.008470927757956,-0.2280474156141281,-0.3435823023319244,-0.0702377334237098
1772807985746221600,4.3442216796875,-0.7257546531945467,-0.2029099058724939,-0.2073019668189808,-0.4274799227714538,-0.2274002283811569,-0.3004432022571563
1772807985766270500,4.3642705078125,-0.8710288010478019,0.0331413682319223,-0.013028335333988,-0.4208936095237732,0.0817235931754112,-0.4275469481945038
1772807985786319600,4.384319580078125,-1.12159638402164,0.2246265015095472,0.3380808120582252,-0.1920942962169647,0.2593309283256531,-0.2737233936786651
1772807985806368500,4.404368408203125,-1.0346709647625685,0.4284878628879785,0.4322347577987238,0.0622224025428295,0.175963744521141,0.0154525823891162
1772807985826417400,4.42441748046875,-0.7606313207864761,0.3288382788732648,0.5379954085722566,0.1841799169778823,-0.0100934812799096,0.1885742992162704
1772807985846466600,4.444466552734375,-0.259172329711914,0.2575521811641753,0.4940963898846879,0.1848011016845703,-0.0622946582734584,0.1877245903015136
1772807985866515500,4.464515380859375,-0.0423024336785078,0.2584912155799567,0.1642141183838248,0.1257570832967758,-0.0212983042001724,0.1386409401893615
1772807985886564600,4.484564697265625,0.0319645795375108,0.2983202448822558,0.0168407697616145,0.0429155528545379,0.0582911856472492,0.0996048673987388
1772807985906613500,4.504613525390625,0.0636029958605766,0.2138774362191557,0.0339061055267229,-0.018614076077938,0.1231348514556884,0.1141773983836174
1772807985926662400,4.524662353515625,-0.0632289018511772,0.1754701102830469,-0.0735993430875241,-0.0060197673738002,0.1193830370903015,0.152871549129486
1772807985946711600,4.544711669921875,-0.1438338859170675,0.2813520128160715,-0.1804828969437628,0.0996207296848297,0.0667706504464149,0.1512052416801452
1772807985966760400,4.564760498046875,0.054116790112853,0.271846079454571,-0.3481503341192379,0.1791324168443679,0.1031270325183868,0.1159569472074508
1772807985986809600,4.5848095703125,0.5010907422840595,0.2569622524470091,-0.3207554736500606,0.201262891292572,0.1854795515537262,0.0589965917170047
1772807986006858500,4.6048583984375,0.8818471321821212,0.1234174130931496,-0.1148449246568605,0.2104026973247528,0.2456301599740982,0.0483321882784366
1772807986026907400,4.624907470703125,1.1177022991925478,0.1737431403599679,-0.0109573742788285,0.2070812284946441,0.2435194849967956,0.056878563016653
1772807986046956500,4.64495654296875,1.426416366186738,0.1129028872109949,0.0806931920723058,0.1625010222196579,0.1979963928461074,0.086155392229557
1772807986067005400,4.66500537109375,1.5462024370402097,0.0040443069547414,0.1434893833283335,0.0902620702981948,0.1230899915099144,0.119398757815361
1772807986087054600,4.6850546875,1.4201637355327603,-0.0559102494008839,0.1080850751331076,0.0364837981760501,0.0342468433082103,0.1436067372560501
1772807986107103500,4.705103515625,1.459579800119996,-0.1205102934747934,-0.0176053791922517,-0.0192982610315084,0.0664619877934455,0.15142323076725
1772807986127152400,4.72515234375,1.3106710951566696,-0.1906485363230109,-0.0700042594713158,-0.1551450192928314,0.0745777040719986,0.120557002723217
1772807986147201500,4.745201416015625,1.146018293094635,-0.2676128257989883,-0.0160534005098976,-0.2838351726531982,0.0787993296980857,0.0755444020032882
1772807986167250400,4.76525048828125,0.7343342654913664,-0.3531745554894209,0.0564557179218158,-0.2891390025615692,0.0778317749500274,0.0868570730090141
1772807986187299600,4.785299560546875,0.4718056110888719,-0.4311918611496687,0.1189915229422971,-0.1751352846622467,0.115800954401493,0.1627033799886703
1772807986207348500,4.805348388671875,0.2321019519567489,-0.5207607806548475,0.2589309587040916,0.0040559004992246,0.1303297579288482,0.2887004911899566
1772807986227397400,4.8253974609375,0.1878133128970861,-0.6055787062406539,0.367283525666967,0.1665318310260772,0.0983748361468315,0.4192713797092438
1772807986247443500,4.845443359375,0.26033611279428,-0.6463384405218064,0.2884902306655422,0.1622350066900253,-0.0207557845860719,0.4758366048336029
1772807986267492400,4.865492431640625,0.0970312182098627,-0.719741091993451,0.0959519533394835,0.0442322120070457,-0.1112807020545005,0.4230824410915375
1772807986287541500,4.88554150390625,-0.2473679101496934,-0.5638618173651397,-0.1478946690825745,-0.0651343986392021,-0.1029735431075096,0.2868886590003967
1772807986307590400,4.90559033203125,-0.7521504926890135,-0.3622454584345221,-0.321397826674208,-0.0677307173609733,0.0630575940012931,0.186045303940773
1772807986327639300,4.925639404296875,-0.9461270043909548,-0.1014347138658165,-0.3450979242786764,0.0944209918379783,0.3598258197307586,0.1847970336675644
1772807986347688400,4.9456884765625,-0.9488035301238298,-0.032569413562864,-0.1377380806594621,0.2418118119239807,0.492162138223648,0.2823246717453003
1772807986367737300,4.9657373046875,-0.9345762673288583,-0.0323116394095122,0.0687333216534694,0.2862873077392578,0.3690976500511169,0.389786422252655
1772807986387786500,4.985786376953125,-0.4904302320599555,-0.1488620893426239,0.2482911442081443,0.2838928699493408,0.3009715974330902,0.4202029109001159
1772807986407835400,5.00583544921875,-0.1084106903582811,-0.2082330005913972,0.4423623667225241,0.2014365643262863,0.2325298488140106,0.3829330801963806
1772807986427884300,5.02588427734375,0.0411205304175615,-0.146034464701265,0.4749108470952138,-0.0072573064826428,0.0987828746438026,0.331935167312622
1772807986447933400,5.045933349609375,-0.0151268419831991,-0.1331729373015463,0.4893730146246031,-0.2933914363384247,0.0043870639055967,0.2712126970291137
1772807986467983400,5.0659833984375,-0.6771563342422247,-0.013341273740679,0.4582717373855411,-0.5725204348564148,-0.1143246069550514,0.1678524613380432
1772807986488032300,5.0860322265625,-1.4528940387457607,0.2646028303280472,0.180185594497621,-0.6107302308082581,-0.0634387359023094,0.0877666696906089
1772807986508081400,5.106081298828125,-1.9745067600548267,0.46086160774827,0.1385204997414257,-0.3225660026073456,0.0758445337414741,0.1150912493467331
1772807986528130300,5.12613037109375,-1.86368199429214,0.5889062422506511,0.3664150722693651,0.1168895438313484,0.2543650269508362,0.2833970785140991
1772807986548179500,5.146179443359375,-0.953898222914338,0.4491498349055647,0.6492112194791436,0.3940139412879944,0.3678052127361297,0.5039464235305786
1772807986568228600,5.166228515625,-0.08953881662786,0.2360696865439414,0.7640209632247686,0.3750775158405304,0.2600789964199066,0.6006529331207275
1772807986588277200,5.18627734375,0.5620470230281353,0.122280810278654,0.7308782798185944,0.1925244778394699,0.0552916154265403,0.5164922475814819
1772807986608326400,5.206326416015625,0.5700444515228271,-0.0432050816066563,0.8416233314085751,-0.0022136908955872,-0.2172234654426574,0.3627700805664062
1772807986628375300,5.226375244140625,0.1970902598083019,0.1738527382142841,0.6584014379549771,-0.0366748496890068,-0.3271825611591339,0.2718976438045501
1772807986648424400,5.246424560546875,0.0845990221381187,0.5932480708472431,0.1844343014506623,0.0525096915662288,-0.1297705620527267,0.2337191849946975
1772807986668473600,5.2664736328125,0.3412555696368217,0.5822552599288523,0.2541010725959204,0.1600275188684463,0.2076812982559204,0.2291140109300613
1772807986688522200,5.286522216796875,0.6002858605295419,0.5569732268951832,0.383863160274364,0.1801416128873825,0.292718231678009,0.2492631673812866
1772807986708571400,5.3065712890625,0.8102589827865362,0.4389356071442365,0.4195078530967235,0.1472967267036438,0.1505943387746811,0.2624231874942779
1772807986728620300,5.326620361328125,0.9708300684928892,0.2832112308166921,0.4223763942703604,0.1086779981851577,0.0180280469357967,0.2201338559389114
1772807986748669400,5.34666943359375,1.1327022999256848,0.1052861285969614,0.3830146902188658,0.1275154948234558,0.0466238781809806,0.120130755007267
1772807986768718600,5.366718505859375,1.3142349251180887,0.0645956601597368,0.3573104862503707,0.1295294016599655,0.119899533689022,0.0389578267931938
1772807986788767200,5.386767333984375,1.2453303157180546,-0.0387285207144916,0.487132396090962,0.0600094199180603,0.0915980413556099,-0.0005140909925103
1772807986808816400,5.40681640625,1.0405974322021008,-0.0613479104101657,0.6059664634492248,0.0201365053653717,0.0229048430919647,0.0197302997112274
1772807986828865300,5.426865234375,0.8243132271021604,-0.1473984465308487,0.6297868264324963,-0.0003141791094094,-0.0466731302440166,0.0509801767766475
1772807986848914400,5.44691455078125,0.4470534471482038,-0.1576101900741457,0.5700302768670023,0.022383265197277,-0.0857844874262809,0.0516553483903408
1772807986868963600,5.466963623046875,0.3238216197550296,-0.1504781462371349,0.3632184681851416,0.0611508674919605,-0.052425317466259,0.0216217935085296
1772807986889012200,5.48701220703125,0.1675695662915706,-0.15970497039631,0.2041353377479128,0.0873279049992561,0.0419953428208828,-0.0327329561114311
1772807986909061400,5.507061279296875,0.238619955548644,-0.1461656898654997,0.253293446007464,0.1288916021585464,0.118656001985073,-0.0757137909531593
1772807986929110300,5.5271103515625,0.2744546545177698,-0.05701309607625,0.2523855191159993,0.1117047145962715,0.0666945129632949,-0.0820371657609939
1772807986949159400,5.547159423828125,0.2921042929768562,-0.1380082485035061,0.3011766572266817,0.0367828011512756,0.0116741340607404,-0.0650565847754478
1772807986969208600,5.56720849609375,0.1208218436419963,-0.089857673318684,0.3393705596078187,-0.0074463514611124,-0.0310893319547176,-0.0943089723587036
1772807986989257200,5.58725732421875,0.0558300237715244,0.0052864159703254,0.2438011393125168,0.0450032390654087,0.006611889693886,-0.1047338619828224
1772807987009306400,5.607306396484375,0.0120510877996683,0.0523573792248964,0.3501058886338025,0.0769401639699935,-0.0244002360850572,-0.074055291712284
1772807987029356500,5.6273564453125,-0.0949935749024152,0.1206128770664334,0.4251847662219777,0.0055584292858839,-0.1628004163503646,-0.037228163331747
1772807987049405400,5.647405517578125,-0.1678957295060157,0.1308303196981549,0.2891312502491288,-0.0911195576190948,-0.2096121311187744,-0.0080456621944904
1772807987069454300,5.667454345703125,-0.1063204400807619,0.0713996410861611,0.2304940783686935,-0.1741355806589126,-0.1693053841590881,-0.0320423953235149
1772807987089503200,5.687503173828125,-0.2274415589302778,0.3499197914771735,0.0230392773418687,-0.2746939957141876,-0.1860894858837127,-0.0842515975236892
1772807987109552400,5.707552490234375,-0.1264694941401481,0.4261901073396205,-0.1651729169460013,-0.3607767522335052,-0.1916782557964325,-0.1215796172618866
1772807987129601500,5.7276015625,-0.2390630231410264,0.5187678532719612,-0.2565069464275613,-0.3999701142311096,-0.2414917945861816,-0.2160064429044723
1772807987149650400,5.747650390625,-0.3330091348171234,0.6520727463901043,-0.4528417482260614,-0.3071469068527221,-0.2316884547472,-0.2815197110176086
1772807987169699300,5.76769921875,-0.220687993016839,0.6065351301826536,-0.4050041845131665,-0.1982551515102386,-0.1809262335300445,-0.3066483438014984
1772807987189748200,5.787748291015625,-0.1794803688377141,0.780649588073045,-0.4039053564257919,-0.2466991096735,-0.1109939441084861,-0.3024939298629761
1772807987209797400,5.80779736328125,-0.0328197350621223,0.5022049871362746,-0.2225281409908086,-0.2853434681892395,-0.020992949604988,-0.1897266209125518
1772807987229846500,5.827846435546875,-0.2412251696109771,0.391813498224318,-0.1429870050304569,-0.2710390985012054,-0.0763635337352752,-0.1001325622200965
1772807987249895700,5.847895751953125,-0.5792512558072805,0.2818438879862427,-0.2895921822917647,-0.2952509224414825,-0.2258681654930114,-0.124424010515213
1772807987269944300,5.8679443359375,-0.6464414625048637,0.3056450348123908,-0.5399261209065094,-0.3036170899868011,-0.1884876191616058,-0.2339699566364288
1772807987289993500,5.887993408203125,-0.6775234139889478,0.3106834673710167,-0.5361482463356108,-0.270755410194397,-0.0433358326554298,-0.304845780134201
1772807987310042600,5.908042724609375,-0.6072860946804285,0.2162777753591537,-0.3706859545215964,-0.1597806960344314,0.1087072938680648,-0.2462691217660904
1772807987330091500,5.928091552734375,-0.2954582795798778,0.2363254148706793,-0.3743917502369731,0.0537610277533531,0.2216242104768753,-0.0986445024609565
1772807987350140700,5.948140625,0.5480927319556474,0.182907566807419,-0.2392173917188309,0.1899284124374389,0.2471391558647155,-0.0043257800862193
1772807987370189300,5.968189208984375,1.1603069306880236,-0.1035962758138775,-0.0817129270414821,0.1499963849782943,0.1132077425718307,0.0080781802535057
1772807987390238500,5.988238525390625,1.5781629249244928,-0.2412912205845117,-0.1197208783964626,0.0597123801708221,0.0317584574222564,-0.0270849429070949
1772807987410288600,6.00828857421875,1.809799012935161,-0.2879742074348032,-0.1808639321506023,-0.0740647166967392,-0.0395892672240734,-0.0696675404906272
1772807987430337500,6.028337646484375,1.4961293693602085,-0.4787932780191302,-0.0352344223878812,-0.207894816994667,-0.1798960864543914,-0.0993402004241943
1772807987450386400,6.048386474609375,1.0284247638493775,-0.4367332747943699,-0.0120014856374356,-0.2394511550664901,-0.2125820368528366,-0.0829538032412529
1772807987470435600,6.068435546875,0.6148638364583253,-0.4134966299831867,-0.0838094609293155,-0.1989479213953018,-0.1315058916807174,-0.0290659572929143
1772807987490484500,6.088484375,0.245809574791789,-0.3185496707014739,-0.1881393847799859,-0.1645212471485138,0.0036138789728283,0.0039764936082065
1772807987510533600,6.10853369140625,0.0209691382706165,-0.418056923636049,-0.1226393779253587,-0.1372541636228561,0.1368979066610336,0.0265974402427673
1772807987530582500,6.12858251953125,-0.1581166782915592,-0.5473956896021962,0.0206043874782975,-0.0423026569187641,0.2173011004924774,0.0749552547931671
1772807987550631400,6.14863134765625,-0.4203337825268506,-0.5927741697251796,0.1393161892969161,0.0893364176154136,0.1622991114854812,0.1750617325305938
1772807987570680600,6.1686806640625,-0.500030419576168,-0.7249038815841078,0.1877439191889949,0.2222576439380645,0.0485619902610778,0.2913515567779541
1772807987590729500,6.1887294921875,-0.5712906521916389,-0.7177408580869435,0.1489609374740626,0.2612018287181854,-0.089760273694992,0.3294597864151001
1772807987610778600,6.208778564453125,-0.602301876527071,-0.5781137762099504,-0.0562585696482099,0.1725358068943023,-0.1430884003639221,0.2828016281127929
1772807987630827500,6.22882763671875,-0.7302081254720687,-0.3734695938907563,-0.3187844658380374,0.0782346650958061,-0.0394320972263813,0.2268876731395721
1772807987650876400,6.24887646484375,-0.7210673721611499,-0.1659988098435103,-0.4907692182233557,0.1326895952224731,0.2104238271713256,0.1917976289987564
1772807987670925600,6.268925537109375,-0.7680097405999898,-0.0831936853848397,-0.3487951348287984,0.3012652695178985,0.4053027331829071,0.1839352250099182
1772807987690974500,6.288974365234375,-0.4082996458619832,-0.0396278076417744,-0.1882571659407578,0.3786597549915313,0.3937204480171203,0.2295836210250854
1772807987711023600,6.309023681640625,0.0018435820400714,-0.2924864241622388,0.1453907965028658,0.2954070270061493,0.22919961810112,0.257894903421402
1772807987731072800,6.32907275390625,0.2435749476075172,-0.4919757079362869,0.4005812169717624,0.0855930894613266,0.008718978613615,0.2446646094322204
1772807987751122400,6.349122314453125,0.2000941177994012,-0.5342816487461328,0.2521733742026612,-0.2461664080619812,-0.1578983068466186,0.1664753556251526
1772807987771171600,6.369171630859375,-0.162602299273014,-0.45690790168643,-0.0166357350090751,-0.5274150967597961,-0.1693362891674041,0.0029821095522493
1772807987791220500,6.389220458984375,-0.7997580470383167,-0.0233459504045546,-0.2988410904185846,-0.6282934546470642,-0.1173990443348884,-0.1499758958816528
1772807987811269600,6.40926953125,-1.3549129724651574,0.3588359422519803,-0.5412143706187605,-0.5230145454406738,0.0078470632433891,-0.1608476787805557
1772807987831318500,6.429318603515625,-1.3800146804958582,0.495249468909949,-0.4497024272870272,-0.1652393043041229,0.1795716732740402,-0.0193113423883914
1772807987851367400,6.449367431640625,-0.8676625394850969,0.6191359608195722,-0.1888389113514684,0.2280091941356659,0.2726099789142608,0.1951135247945785
1772807987871416600,6.46941650390625,-0.0450187068998813,0.3340134895540774,0.2325628474667668,0.4710061252117157,0.1716196984052658,0.3911524415016174
1772807987891465700,6.4894658203125,0.6613970395743847,0.1926899790227413,0.524649093330279,0.5109071135520935,-0.1179598644375801,0.4394095838069916
1772807987911514600,6.5095146484375,1.1784382151842117,0.1132642678692936,0.5978714197989553,0.3610749542713165,-0.3878480792045593,0.384441614151001
1772807987931563500,6.5295634765625,1.1869552836388348,0.0193757315993309,0.5370591506354511,0.0965500697493553,-0.5917247533798218,0.3123787641525268
1772807987951612400,6.5496123046875,0.8446452365130186,0.1773964021705091,0.2433136115239001,-0.0288201719522476,-0.6185888648033142,0.22341088950634
1772807987971661600,6.56966162109375,0.7156868481665849,0.3230368991181254,0.0191880270075052,0.0517856292426586,-0.3466563820838928,0.1725362241268158
1772807987991710700,6.589710693359375,0.8645265795469284,0.4288184100165963,-0.2147566667390987,0.1739401221275329,-0.0631123110651969,0.1040110737085342
1772807988011759600,6.609759521484375,0.7072294009447098,0.5326284747116268,-0.2728482422344386,0.0279106721282005,-0.1778437197208404,-0.0639806017279625
1772807988031809500,6.6298095703125,0.3505553129017353,0.524256075424701,-0.0949225189602002,-0.2180262207984924,-0.3828034996986389,-0.202486053109169
1772807988051858700,6.649858642578125,0.0733797089874744,0.3984402228876948,0.2053329317683354,-0.1918302029371261,-0.2269771844148636,-0.258211076259613
1772807988071907600,6.669907470703125,-0.0136374802082777,0.4697086388096213,0.3367350965376943,0.0458281487226486,0.0827226340770721,-0.227679967880249
1772807988091956700,6.689956787109375,0.0277560219317674,0.423340416996926,0.4902434407835826,0.2411323189735412,0.1904868930578231,-0.1571636646986007
1772807988112005400,6.71000537109375,0.4816986440718174,0.3959773399055004,0.5591085218908265,0.2723568975925445,0.1010342463850975,-0.1420037597417831
1772807988132054500,6.730054443359375,0.9203454974025488,0.3248170605331659,0.4268336294075474,0.1998293101787567,0.0549013577401638,-0.1938599497079849
1772807988152103700,6.750103759765625,1.198681961789727,0.2346115966901183,0.3800928479554131,0.0671260803937912,0.0144255673512816,-0.2838974893093109
1772807988172152600,6.770152587890625,0.9955705419957636,0.155563778938353,0.4013341176982968,0.0071763298474252,-0.0604979544878006,-0.3127053380012512
1772807988192201700,6.79020166015625,0.7209037060320377,0.2409725100241601,0.1895163904879242,0.0206306986510753,-0.1075277477502822,-0.3186903297901153
1772807988212250400,6.81025048828125,0.4446569074004888,0.1905126349836587,0.1974694683842361,0.0546457096934318,-0.1242228597402572,-0.3265538513660431
1772807988232299500,6.830299560546875,0.1586006624162197,0.1775217821158468,0.0576233734617009,0.0186051242053508,-0.1557239890098571,-0.3506357967853546
1772807988252347600,6.85034765625,-0.1958861447155475,0.2081744022719562,-0.1317134592082351,-0.0986678078770637,-0.2115599066019058,-0.4206413924694061
1772807988272396500,6.870396484375,-0.6523673454225063,0.3133370506197214,-0.2725180238993838,-0.1239948719739914,-0.1850118041038513,-0.4812774956226349
1772807988292446700,6.89044677734375,-0.9895300927877424,0.4439578192204236,-0.474405966312997,-0.0347128957509994,-0.0539366863667964,-0.5065107345581055
1772807988312495600,6.91049560546875,-0.8490373339921236,0.3638087622284889,-0.4178408697325736,0.1397989094257354,0.1298813223838806,-0.4622140228748321
1772807988332544500,6.93054443359375,-0.6165548582851886,0.2931190229773521,-0.2953692130569368,0.1933510303497314,0.0705567821860313,-0.3937147557735443
1772807988352593700,6.95059375,-0.1844792000383138,-0.1076174941539764,-0.1776222102830186,0.0745869278907775,-0.0977334827184677,-0.3327215611934662
1772807988372642600,6.970642578125,0.0181160869270563,-0.2278529162101447,-0.2665958307761699,-0.1771516054868698,-0.2398425787687301,-0.3904342651367187
1772807988392691700,6.990691650390625,-0.1065419738769531,-0.1716289246849715,-0.555347708052583,-0.501558780670166,-0.3503918647766113,-0.5876024961471558
1772807988412740600,7.01074072265625,-0.5537140789687633,-0.1189917056053876,-0.8269681985903531,-0.7407450675964355,-0.3008088171482086,-0.8301317095756531
1772807988432789500,7.03078955078125,-0.923566213014722,0.2251109240256249,-0.9004289369247853,-0.7070116400718689,-0.0309482589364051,-0.9740807414054872
1772807988452838700,7.050838623046875,-1.256146893286705,0.3763922033391892,-0.7511630890868604,-0.4023634195327759,0.2126708179712295,-0.8841548562049866
1772807988472887600,7.070887451171875,-1.074033253335953,0.3773122407935559,-0.4158228809736669,0.0101894587278366,0.2919011414051056,-0.5960332155227661
1772807988492936700,7.090936767578125,-0.7154916178554296,0.3298782894454896,-0.2011782232416793,0.2934715151786804,0.076047159731388,-0.3180391788482666
1772807988512985600,7.110985595703125,-0.0875356601119041,0.1587524919770657,-0.2224053183287382,0.3671997487545013,-0.1870926022529602,-0.1877352744340896
1772807988533034500,7.131034423828125,0.4786579612016677,0.1117871810540556,-0.5546144618745893,0.2508076429367065,-0.2989246249198913,-0.2264350801706314
1772807988553084700,7.151084716796875,0.8584206638872623,0.1739952154248952,-1.0161679243445396,0.0172815844416618,-0.1934269070625305,-0.3962339162826538
1772807988573133800,7.1711337890625,0.7673468927770852,0.1136309092245995,-1.142602785562724,-0.2104057222604751,-0.0526972599327564,-0.601186990737915
1772807988593182500,7.191182373046875,0.3726227678030729,0.1269055474698543,-0.9810986567899584,-0.1848442554473877,0.0666126385331153,-0.7027341723442078
1772807988613231600,7.211231689453125,0.2195645419448613,0.2577789756573737,-0.7665879641685635,0.0001881015487015,0.1636640578508377,-0.627644419670105
1772807988633280500,7.231280517578125,0.5097890125244856,0.1479210091002285,-0.5138003670576959,0.1432034373283386,0.1911042332649231,-0.487654834985733
1772807988653329700,7.25132958984375,0.8852525567114352,0.1086601350747048,-0.2599879934763536,0.1556666046380996,0.127258613705635,-0.415296345949173
1772807988673378800,7.27137890625,1.3205331484794616,-0.0122043786652386,-0.2104512428964488,0.0770076960325241,0.0884071141481399,-0.405062586069107
1772807988693427500,7.291427490234375,1.5395242744505404,-0.1019799266584217,-0.1847864028239622,-0.0142162311822175,0.0777161419391632,-0.3950303792953491
1772807988713476600,7.3114765625,1.4760259080082176,-0.1847026335306465,-0.1398704530456569,-0.0509202443063259,0.0396862365305423,-0.3409489095211029
1772807988733525500,7.331525390625,1.1375485709130764,-0.0736962275907397,-0.2720187326077372,-0.0106037911027669,-0.0562211424112319,-0.2684717178344726
1772807988753574700,7.35157470703125,1.0667413427621126,-0.1339769471608102,-0.2581231494525447,-0.0122961606830358,-0.0595423281192779,-0.2234139740467071
1772807988773623800,7.371623779296875,0.875924171873927,-0.1695129554443061,-0.3580733603816479,-0.0399885177612304,-0.0598124563694,-0.1739889979362487
1772807988793673500,7.391673583984375,0.3595540273934602,-0.1350000065982341,-0.3015482304854318,0.0389088578522205,-0.1657561659812927,-0.1155070066452026
1772807988813722600,7.41172265625,0.2665717923134565,-0.1553787777602672,-0.0898810907268896,0.0809652507305145,-0.1420478671789169,-0.0591279342770576
1772807988833771800,7.431771728515625,0.1469219150602817,-0.2086475727416575,-0.0491228908156976,0.0786203891038894,-0.0146245332434773,0.0672827959060669
1772807988853820700,7.451820556640625,-0.1730716708391904,-0.167040135589987,-0.0398029450129717,0.1126577332615852,0.0864049866795539,0.219967246055603
1772807988873869600,7.47186962890625,-0.4370294812619686,-0.1328819915309548,-0.1225662213576026,0.2040273994207382,0.1273239403963089,0.3525015115737915
1772807988893918500,7.49191845703125,-0.6623439650356769,-0.161925422924757,-0.2135558395819738,0.2448433190584182,0.0531152337789535,0.4319316744804382
1772807988913967600,7.511967529296875,-0.7133779867023229,-0.2001464325085282,-0.2893996005954221,0.2733620107173919,0.0272908248007297,0.4679559171199798
1772807988934016800,7.532016845703125,-0.5983639525562524,-0.254362591342628,-0.2636881997011602,0.2468015551567077,0.0162932854145765,0.4575277864933014
1772807988954065700,7.552065673828125,-0.5776403134793043,-0.3346966495126485,-0.2349550580992363,0.1272202581167221,0.0148093476891517,0.4392900466918945
1772807988974114600,7.572114501953125,-0.4859299980312586,-0.4083870318844914,-0.2739148850852623,-0.102910041809082,0.0447095036506652,0.3327895104885101
1772807988994163500,7.59216357421875,-0.7747749969512224,-0.3990909418813884,-0.1101009450001642,-0.3574206233024597,-0.0750619396567344,0.1658900380134582
1772807989014212600,7.612212646484375,-1.5593775604337452,-0.1993982444897294,-0.0278753374624997,-0.550788402557373,-0.3058628737926483,0.0320093557238578
1772807989034262800,7.6322626953125,-2.326803948187828,0.1722344893626868,-0.1233336072672158,-0.6005213260650635,-0.3425471782684326,-0.0078501999378204
1772807989054311400,7.6523115234375,-2.564182379242778,0.1629905679382383,0.046644006546773,-0.3532486259937286,-0.0767298713326454,0.0744839385151863
1772807989074360600,7.672360595703125,-2.2028964134901763,0.547405334213376,-0.031919936678186,0.1617512106895446,0.3756237328052521,0.2972866892814636
1772807989094409700,7.69240966796875,-0.836831932413578,0.5842620697066188,0.0664888534951955,0.5919606685638428,0.6165533065795898,0.5551825761795044
1772807989114458600,7.712458740234375,-0.012336919003725,0.3076154581025243,0.5487892628524452,0.6767571568489075,0.3408942818641662,0.6701178550720215
1772807989134507800,7.7325078125,1.029246601626277,-0.0507844308197498,0.735908967462182,0.5226131081581116,-0.0043902280740439,0.6404858827590942
1772807989154556400,7.752556396484375,1.2551233954578638,-0.302025529140979,0.6789413910280913,0.2643982172012329,-0.3444321453571319,0.4759183526039123
1772807989174605600,7.77260546875,0.9908435134738685,-0.1912298433423042,0.4368452107362449,0.0301347486674785,-0.5319898128509521,0.1995852589607238
1772807989194654700,7.79265478515625,0.4707534716874361,0.1534888723604381,0.1391564686905592,-0.0378559716045856,-0.4796091616153717,-0.0208730958402156
1772807989214703600,7.81270361328125,-0.070512044596672,0.552386629757285,-0.0452243855398148,0.0413382202386856,-0.2797639071941376,-0.1284447014331817
1772807989234753500,7.83275341796875,-0.2025520323455333,0.7805449586547911,0.038619507382065,0.1685690730810165,-0.0232950896024703,-0.1344862431287765
1772807989254803700,7.8528037109375,-0.083992288416624,0.8771675960637628,0.1889860099382698,0.210317924618721,0.1403635740280151,-0.0757304280996322
1772807989274852600,7.8728525390625,0.1755313389509916,0.8111126770064234,0.3805827868968248,0.2391883134841919,0.1507344841957092,-0.0362629294395446
1772807989294901500,7.892901611328125,0.5937737021565437,0.8525292677611113,0.4674699930373579,0.3303448259830475,0.1227350458502769,-0.0402767173945903
1772807989314950700,7.91295068359375,1.2052145784288644,0.8597726630181074,0.4304497740780934,0.3112236559391022,0.0620367787778377,-0.0920129716396331
1772807989334999600,7.93299951171875,1.704550586000085,0.7906751613944768,0.3693018066868185,0.1678552776575088,0.0330672226846218,-0.221193715929985
1772807989355048700,7.953048583984375,2.017325326561928,0.7611755106657743,0.4058727475086227,-0.0048821433447301,0.0745699405670166,-0.3960213661193847
1772807989375097600,7.97309765625,2.015247351244092,0.7707382887810468,0.5089462415574119,-0.1395362615585327,0.1229934319853782,-0.4682365953922272
1772807989395146500,7.993146484375,1.8107704883158209,0.6449716822132467,0.5761136519012973,-0.2449620515108108,0.1437553614377975,-0.4178950786590576
1772807989415195600,8.013195556640625,1.3481442089825868,0.4052680230811238,0.8061267052873968,-0.301089733839035,0.0101597616448998,-0.2776446938514709
1772807989435244500,8.03324462890625,0.900641264501214,0.1744941048577427,0.6330983621332794,-0.3706111907958984,-0.1475025117397308,-0.1599642783403396
1772807989455293700,8.053293701171874,0.523643350353837,-0.0983440543740987,0.4076669009163975,-0.4020045101642608,-0.2390529513359069,-0.1877139508724212
1772807989475342600,8.073342529296875,-0.0425531935691833,-0.1233604222089052,0.1763589488815516,-0.3373875916004181,-0.2927521169185638,-0.2607511579990387
1772807989495392500,8.093392578125,-0.4440384832412004,-0.2314268291741609,-0.0622464666850864,-0.3047894239425659,-0.2952918112277984,-0.2778944373130798
1772807989515441700,8.113441650390625,-0.7765379149705172,-0.3628485388942062,-0.1444134759033098,-0.240557461977005,-0.2147678732872009,-0.2820189297199249
1772807989535490600,8.133490478515625,-0.8357049742102622,-0.4560381331145763,-0.0708505558360367,-0.1164791285991668,-0.089423768222332,-0.2617466747760772
1772807989555539700,8.153539794921874,-0.8853770598739386,-0.4089066718444228,-0.0415897188318893,-0.1402382254600525,-0.166030153632164,-0.2469308674335479
1772807989575588600,8.173588623046875,-0.7673889783531427,-0.4435222042821347,0.0699289109464734,-0.2885501682758331,-0.3450041711330414,-0.2387282699346542
1772807989595637500,8.193637451171876,-0.8985182809978723,-0.2682118146054446,0.0238038137072697,-0.4484334886074066,-0.4730643630027771,-0.300277978181839
1772807989615686700,8.213686767578125,-1.0418570768743751,0.1598011242471635,-0.4990957690745591,-0.5262254476547241,-0.3559393882751465,-0.4483391940593719
1772807989635735600,8.233735595703125,-1.237653205218911,0.5670006999127567,-0.7297525637242943,-0.4792954921722412,-0.1383037269115448,-0.5892297029495239
1772807989655784700,8.25378466796875,-1.125728953781724,0.7460226574584842,-0.7479306830368936,-0.2971695363521576,0.1862698495388031,-0.5987018942832947
1772807989675833600,8.27383349609375,-0.6317804844677448,0.8015307557992637,-0.5409958690298721,-0.0688483417034149,0.4579381048679352,-0.4797295928001404
1772807989695882500,8.293882568359376,-0.0678635759145021,0.6049189271576703,-0.1879053385620936,0.0808900892734527,0.4432065188884735,-0.3045773804187774
1772807989715932700,8.3139326171875,0.1159691429138183,0.2751626566566527,0.121305206712149,0.1331991255283355,0.0436698012053966,-0.1246028766036033
1772807989735981800,8.33398193359375,0.1968330701768398,0.0059172612197697,0.0923860958177596,0.1187201514840126,-0.3732065558433532,-0.0190607756376266
1772807989756030500,8.354030517578124,0.2593395029723644,0.1267800213940441,-0.5185704675363376,0.0312331803143024,-0.5049022436141968,-0.0882425159215927
1772807989776079600,8.37407958984375,0.1983896519690751,0.3403621279284358,-1.0912841017358004,-0.1322863698005676,-0.3807787001132965,-0.2645081877708435
1772807989796128500,8.39412841796875,-0.0143313076913356,0.3882496682628989,-1.40816320887655,-0.2476557493209839,-0.1169898808002471,-0.4261760413646698
1772807989816177700,8.414177734375,-0.2430745968699455,0.4345207133114337,-1.2788275116503238,-0.1627760678529739,0.1382445394992828,-0.5046281814575195
1772807989836226800,8.434226806640625,-0.2895347347497939,0.455054821165651,-0.8872351088307797,0.0391918681561946,0.210372194647789,-0.4647199809551239
1772807989856275500,8.454275390625,0.0418517673015594,0.4434102683402597,-0.5138866571016609,0.1661609709262848,0.1054096221923828,-0.3718264698982239
1772807989876324600,8.47432470703125,0.6621142479330301,0.4450831699885427,-0.2790396442204713,0.1713171899318695,0.000245657574851,-0.2907432317733764
1772807989896373500,8.49437353515625,1.192145253497362,0.3230871680006384,-0.1060046155972406,0.0976116359233856,-0.0102932667359709,-0.2421034127473831
1772807989916422700,8.514422607421874,1.3652923276603222,0.3135064158372581,-0.1008855920830741,0.0187502242624759,0.0141454609110951,-0.2021126896142959
1772807989936471800,8.534471923828125,1.3808406099259851,0.2729512642174959,-0.2326061751518398,-0.057731170207262,-0.0033552024979144,-0.1407483965158462
1772807989956521500,8.554521484375,1.063510105755925,0.1178052722997963,-0.1873433572977781,-0.0483562648296356,-0.0590971149504184,-0.049600500613451
1772807989976570600,8.574570556640625,1.04624975887537,-0.0216083129569888,-0.2619799344785511,-0.0127011844888329,-0.0490382872521877,0.0398757793009281
1772807989996619800,8.594619873046875,0.7959639154523611,-0.1853815557055175,-0.2939861977333203,-0.0300790928304195,-0.0707345604896545,0.1016812026500701
1772807990016668700,8.614668701171874,0.7957283531308174,-0.2406058686688542,-0.4345046389594674,-0.0659219250082969,-0.0272046327590942,0.1179970428347587
1772807990036717600,8.634717529296875,0.5725029505908489,-0.3694666418597102,-0.3576217076240107,-0.1125367283821106,-0.0358809754252433,0.0843306481838226
1772807990056766500,8.654766357421876,0.1041711530923843,-0.4504172244928777,-0.1537984862988814,-0.075482852756977,-0.0410217493772506,0.0703096166253089
1772807990076815600,8.674815673828125,-0.207893977895379,-0.3721218325436115,-0.0941296150168403,0.0338421836495399,0.0169268548488616,0.1000464037060737
1772807990096864800,8.69486474609375,-0.4997703073352575,-0.2082951060421764,0.0270588699804618,0.1567769050598144,0.0966389775276184,0.1371087431907653
1772807990116913700,8.71491357421875,-0.5257628267258405,-0.0286564779028296,0.1592214246630668,0.2255893647670745,0.1838892251253128,0.1756700426340103
1772807990136962600,8.734962646484375,-0.3748901282131672,0.1684972025305032,0.2020253415903076,0.2431270033121109,0.2575035393238067,0.2248324006795883
1772807990157011700,8.75501171875,-0.3388911785930394,0.19787702627182,0.4302511827660724,0.227127119898796,0.2198207676410675,0.2821976840496063
1772807990177060600,8.775060546875,-0.2507663204163313,0.2049579244434833,0.5150284110153094,0.1435492634773254,0.1815083771944046,0.3331427276134491
1772807990197109800,8.79510986328125,-0.0537900423765182,-0.1109681197561323,0.6008120398281142,-0.0125330435112118,0.1638319045305252,0.3827388882637024
1772807990217159400,8.815159423828124,-0.3087491383075714,-0.1594977573864162,0.4989771476635709,-0.2509931623935699,0.0422396548092365,0.3533415496349334
1772807990237207800,8.835207763671875,-0.8348878126084804,-0.0765811353772878,0.3510436444079503,-0.4416147768497467,-0.1334160566329956,0.2729353904724121
1772807990257257000,8.855257080078125,-1.6368460000395777,0.4883985801018774,-0.1454092089423909,-0.5474652051925659,-0.230084016919136,0.1513810455799102
1772807990277306000,8.87530615234375,-2.061475433933735,0.9019600920148192,-0.3493377538055181,-0.5021862983703613,-0.0891066342592239,0.0474285222589969
1772807990297355000,8.89535498046875,-2.250850589320064,0.96770009990409,-0.0737166858568787,-0.1208414733409881,0.2619917094707489,0.1052369028329849
1772807990317404000,8.91540380859375,-1.2554092266619206,1.2703186265021562,-0.0640944326393306,0.4197326004505157,0.7349443435668945,0.3706125915050506
1772807990337452800,8.935452880859375,-0.1209913549900054,1.1443263944849371,0.1186208264663815,0.7156141996383667,0.8006054162979126,0.6733299493789673
1772807990357502000,8.955501953125,0.8573346222162246,0.6968620284482836,0.4106380622142925,0.7459038496017456,0.6055113077163696,0.7947079539299011
1772807990377551000,8.975551025390626,1.7496563866615291,0.2915951744109392,0.4898105657916515,0.5823619961738586,0.2878768742084503,0.7042341232299805
1772807990397600000,8.99560009765625,1.4931260958909989,-0.0148972710110247,0.4647588709151372,0.2193317711353302,-0.2099941968917846,0.4151630699634552
1772807990417649200,9.015649169921875,1.19102998573184,-0.1041067095540463,0.3242155875086784,-0.0822139307856559,-0.4474847614765167,0.0924149975180625
1772807990437699000,9.035698974609376,0.6413391709297895,0.2651576877318322,-0.17485705641862,-0.2479934841394424,-0.2854708433151245,-0.1460437923669815
1772807990457748000,9.055748046875,-0.0474684381395578,0.5167987451560795,-0.3680766122734173,-0.2775115966796875,0.0148610277101397,-0.2903263568878174
1772807990477797000,9.075797119140624,-0.62723874938488,0.5301525861173868,-0.2029547679275274,-0.1127383708953857,0.2796050608158111,-0.3263653218746185
1772807990497846000,9.095845947265625,-0.7411959679543971,0.5631820184074342,-0.0739263465521857,0.1395922303199768,0.3975855112075805,-0.2793313860893249
1772807990517895000,9.11589501953125,-0.4610270274430513,0.4674943237610161,-0.0093887869549682,0.28582763671875,0.338446170091629,-0.2282873392105102
1772807990537944000,9.135944091796874,0.1080517939180135,0.2921539773374795,-0.0077835014745767,0.2871756553649902,0.2210914492607116,-0.2499206662178039
1772807990557993000,9.155992919921877,0.6176420690000057,0.1465637492723762,-0.1084191476593725,0.2007915824651718,0.1355986297130584,-0.345560610294342
1772807990578042000,9.1760419921875,0.8444383157640695,0.1966777334846556,-0.5042978677622973,0.0493953302502632,0.1256586164236068,-0.5581167340278625
1772807990598091000,9.196091064453125,0.7889502372980117,0.0990862510435283,-0.4546379839930683,-0.1093175932765007,0.1181570738554,-0.771988034248352
1772807990618140000,9.216139892578123,0.5104448460847139,0.1210550678759813,-0.4899075598927214,-0.1566445380449295,0.1002963185310363,-0.8910964727401733
1772807990638189000,9.23618896484375,0.4525736718744039,0.2016132901906967,-0.3866528275255114,-0.13178551197052,0.0891197696328163,-0.8961101770401001
1772807990658238000,9.256238037109377,0.2857452793389559,0.1379578334905207,-0.2189957290809601,-0.1377614289522171,-0.0649566203355789,-0.7752897143363953
1772807990678288000,9.276287841796876,0.1681137561708688,0.040756811671704,-0.2393057823883369,-0.136436715722084,-0.2041666656732559,-0.6316802501678467
1772807990698337000,9.2963369140625,0.3777759127825498,0.0050542146496474,-0.3423720064461231,-0.125585675239563,-0.1904814839363098,-0.5674610733985901
1772807990718386000,9.316385986328124,0.4701601819694042,-0.2604411806039512,-0.3418585770312696,-0.1277673691511154,-0.1713496297597885,-0.5366150736808777
1772807990738435000,9.33643505859375,0.6071463939487933,-0.4572830186091363,-0.275413708808273,-0.0912006348371505,-0.173822596669197,-0.536901593208313
1772807990758484000,9.35648388671875,0.3632856151372194,-0.5632053992830216,-0.4071439730208367,-0.0430487729609012,-0.3160769343376159,-0.614402711391449
1772807990778532900,9.376532958984376,0.265774504455924,-0.722458534258604,-0.4153652733992785,0.0525723695755004,-0.3447823226451874,-0.8419424295425415
1772807990798582000,9.39658203125,0.0963227776795625,-0.7765430295370519,0.1576481474643573,0.1223214492201805,-0.41832235455513,-1.036256194114685
1772807990818631000,9.416630859375,0.2232569667220115,-0.9786230604566634,0.4573049747126176,0.0847566872835159,-0.4118458330631256,-0.9965990781784058
1772807990838680000,9.43668017578125,0.0709001671314239,-0.9011734716817736,0.5923129088889807,-0.0737586989998817,-0.4923526644706726,-0.9389808177947998
1772807990858729000,9.45672900390625,-0.5734931306719779,-0.6754566907174885,0.5377214870017022,-0.1510684490203857,-0.5223587155342102,-0.9807279706001282
1772807990878777900,9.47677783203125,-0.7499906843066215,-0.4439921598814427,0.3139722432507202,-0.0965277552604675,-0.3713769614696502,-1.0805808305740356
1772807990898827000,9.496826904296874,-1.0589847372859715,-0.0587264758653938,0.0845950126832816,-0.0647857040166854,-0.1785830408334732,-1.2080402374267578
1772807990918876000,9.5168759765625,-1.0339525873601436,0.119873164615035,0.0757325374576263,-0.0585160814225673,-0.0264353472739458,-1.26086688041687
1772807990938925000,9.536925048828126,-1.1085177067399024,0.2419651743233203,0.1467358727025799,-0.0808420553803443,0.0678086727857589,-1.222508192062378
1772807990958975000,9.55697509765625,-1.1679057152539492,0.2862257563322782,0.162634173982311,-0.0640750899910926,0.0417871735990047,-1.120049238204956
1772807990979024000,9.57702392578125,-1.1256716706365346,0.4146420006260276,0.1665668007235042,-0.0009685165714472,0.0147217372432351,-1.0743690729141235
1772807990999073000,9.597072998046874,-1.1097843656748532,0.4599693350836634,0.3383842885168269,0.1290869265794754,-0.0109429312869906,-1.0414183139801023
1772807991019122000,9.617121826171877,-0.8200012091219425,0.6147272044666111,0.2854579320312477,0.2766264975070953,0.0422180145978927,-0.9245213270187378
1772807991039171000,9.637171142578126,-0.5586240628421306,0.711367231401801,0.2438442112692631,0.3644042909145355,0.0746127367019653,-0.7477962970733643
1772807991059220000,9.657219970703125,-0.064985974651575,0.6574116232000291,0.1782371821098961,0.3746801018714905,0.0870938152074813,-0.5527745485305786
1772807991079268900,9.677268798828123,0.2864338461250066,0.5886157348714769,0.0086532985875383,0.2332477271556854,-0.0321639589965343,-0.3670308291912079
1772807991099318000,9.697318115234374,0.5661474440842866,0.4462219647601246,0.0098536873532459,0.0899766087532043,-0.1697455495595932,-0.2156936675310135
1772807991119367200,9.7173671875,0.8151461703062057,0.4323733260191977,-0.0571167391138151,0.0180879458785057,-0.2445558905601501,-0.092976376414299
1772807991139416000,9.737416015625,0.7739426377803087,0.3650583238981664,-0.0744967485849745,-0.0072062155231833,-0.219813272356987,-0.0604810938239097
1772807991159465000,9.75746484375,1.1295534805059433,0.5492594376474619,-0.1845521191440522,-0.0141506399959325,-0.0669770985841751,-0.0363487266004085
1772807991179513900,9.777513916015623,0.9165320765942334,0.3639138300381601,0.08261761166309,-0.0734505951404571,-0.2394645363092422,0.1126259118318557
1772807991199563000,9.79756298828125,0.9500871401935816,0.0457546199589967,0.3805914451273158,-0.0241430774331092,-0.2905239164829254,0.295683741569519
1772807991219613200,9.81761328125,0.9736030403375624,-0.0156638714693486,0.3252558903418481,0.0701396688818931,-0.3094891011714935,0.4031239748001098
1772807991239665700,9.837665771484374,0.9641057286739348,-0.1825032237902283,0.3455050803074613,0.0641136020421981,-0.2932707369327545,0.4250038862228393
1772807991259714800,9.85771484375,0.8905594309478998,-0.2618574771426618,0.4158674873003736,0.0008120874408632,-0.2159802317619323,0.3795846104621887
1772807991279763700,9.877763671875,0.9034078066051006,-0.1625764341793954,0.2786152447959408,-0.0643572807312011,-0.0653342902660369,0.3777132034301758
1772807991299812900,9.897812744140625,0.6611059476733208,-0.2602276839837432,0.2490133027365431,-0.1817237138748169,0.049657292664051,0.428389310836792
1772807991319862000,9.917862060546875,0.430607339259982,-0.3123648445867001,0.0997373901623301,-0.2633151710033417,0.1585135161876678,0.430361658334732
1772807991339910700,9.93791064453125,0.5917120934516191,-0.1838559535734355,0.0691612327759154,-0.2611623108386993,0.301796406507492,0.4529136419296264
1772807991359959800,9.957959716796877,1.037554995766282,-0.124312754497677,0.3534972846377641,-0.0565188527107238,0.2861867845058441,0.3992635905742645
1772807991380008700,9.9780087890625,-0.233425894036889,-0.6801892721973359,0.6373635452970862,-0.0483821406960487,-0.0227058231830596,0.4553355872631073
1772807991400057900,9.998057861328125,0.1488917538285255,-0.401616953227669,0.2692517521124333,0.0589582175016403,-0.185108333826065,0.5909232497215271
1772807991420107000,10.01810693359375,-0.0659895987361669,-0.2088096314355731,0.1511587854450568,0.1385079324245453,-0.1846963465213775,0.7191414833068848
1772807991440155600,10.03815576171875,-0.058214288559556,-0.3593757482171058,0.2902441433944739,0.0872812271118164,0.0115848034620285,0.7765707969665527
1772807991460204800,10.058204833984377,0.0506564205259084,-0.2857638379089534,0.0603217639665119,-0.0516115352511405,0.2233497500419616,0.8210541009902954
1772807991480253700,10.078253662109375,0.049538230150938,-0.1341229315027594,-0.172287571256794,-0.1629480868577957,0.3135055005550384,0.8642485737800598
1772807991500304000,10.098303955078125,0.0781459004759788,-0.2329540387414395,-0.1993852571439929,-0.1628339886665344,0.3089160919189453,0.8578345775604248
