time,seconds_elapsed,accel_z,accel_y,accel_x,gyro_x,gyro_y,gyro_z
1.7726343351810028e+18,0.306002685546875,0.0745874643325805,0.0806102752685546,-0.2678675651550293,-0.022370534017682,0.0151800047606229,-0.0214384291321039
1.7726343352009974e+18,0.325997314453125,0.0478426218032836,0.0488977432250976,-0.2939488887786865,-0.020240006968379,0.0154463211074471,-0.0307594835758209
1.7726343352209923e+18,0.3459921875,-0.0358650684356689,0.041046142578125,-0.1805593967437744,-0.0141147412359714,0.019441058859229,-0.0416784361004829
1.772634335240987e+18,0.36598681640625,-0.0716710090637207,0.0664987564086914,-0.011748194694519,-0.0109189506620168,0.0303600095212459,-0.0432763323187828
1.7726343352609818e+18,0.385981689453125,-0.0974327325820922,0.0915727615356445,0.1650498509407043,-0.0143810575827956,0.0311589576303958,-0.045939490199089
1.7726343352809764e+18,0.405976318359375,-0.1459715366363525,0.1115922927856445,0.2490650415420532,-0.0149136893451213,0.0130494777113199,-0.0544615983963012
1.7726343353009713e+18,0.42597119140625,-0.0813339948654174,0.0978727340698242,0.2428075075149536,-0.0135821104049682,-0.0258326400071382,-0.0563258081674575
1.772634335320966e+18,0.4459658203125,-0.1070896387100219,0.0508232116699218,0.0961921215057373,-0.0167779009789228,-0.0551273860037326,-0.0480700172483921
1.7726343353409608e+18,0.465960693359375,-0.1473214626312255,-0.0199804306030273,-0.0423541069030761,-0.0207726396620273,-0.0631168633699417,-0.0323573797941207
1.7726343353609554e+18,0.485955322265625,-0.1586629152297973,0.0098657608032226,-0.0468991994857788,-0.0218379013240337,-0.0524642281234264,-0.0145142152905464
1.7726343353809503e+18,0.5059501953125,-0.1832320690155029,0.0110702514648437,-0.0361907482147216,-0.0207726396620273,-0.0186421126127243,-0.0049268435686826
1.7726343354009452e+18,0.525945068359375,-0.1440091133117675,-0.0160884857177734,-0.026412010192871,-0.0127831622958183,0.0213052704930305,-0.0083889504894614
1.7726343354209398e+18,0.545939697265625,-0.1032806634902954,0.038726806640625,0.0140905380249023,-0.0085221081972122,0.0322242230176925,-0.0241015870124101
1.7726343354409347e+18,0.5659345703125,-0.0824189186096191,0.1079959869384765,0.053330659866333,-0.0114515833556652,0.0292947478592395,-0.0283626411110162
1.7726343354609293e+18,0.58592919921875,-0.177120566368103,0.0765438079833984,0.0877100229263305,-0.0130494777113199,0.022370534017682,-0.027830010280013
1.7726343354809242e+18,0.605924072265625,-0.1947085857391357,0.0544214248657226,0.0874218940734863,-0.0199736915528774,0.0141147412359714,-0.0217047445476055
1.7726343355009188e+18,0.625918701171875,-0.1172404289245605,0.003396987915039,0.1448317766189575,-0.0287621151655912,0.006657897029072,-0.0251668505370616
1.7726343355209137e+18,0.64591357421875,-0.1767734289169311,-0.0379257202148437,0.1687313914299011,-0.037550538778305,-0.0010652635246515,-0.0352868549525737
1.7726343355409083e+18,0.665908203125,-0.1884831190109253,-0.0550813674926757,0.2537872195243835,-0.034621063619852,-0.0074568446725606,-0.0438089631497859
1.7726343355609032e+18,0.685903076171875,-0.26209557056427,-0.0048494338989257,0.3365511894226074,-0.0327568538486957,-0.0181094799190759,-0.0422110669314861
1.7726343355808978e+18,0.705897705078125,-0.2995952367782593,0.0217790603637695,0.2562768459320068,-0.0308926422148942,-0.0085221081972122,-0.0342215895652771
1.7726343356008916e+18,0.7258916015625,-0.2855587005615234,-0.0084896087646484,0.1394255757331848,-0.0327568538486957,-0.0050600017420947,-0.0243679024279117
1.772634335620885e+18,0.745885009765625,-0.1219034194946289,-0.0959062576293945,0.1122761368751525,-0.0378168560564518,-0.0159789528697729,-0.0222373753786087
1.7726343356408783e+18,0.76587841796875,-0.1258498430252075,-0.0058622360229492,0.2067809700965881,-0.0407463312149047,-0.0186421126127243,-0.0275636930018663
1.7726343356608717e+18,0.78587158203125,-0.2000327110290527,0.2086591720581054,0.1693857312202453,-0.0402136966586113,0.0029294746927917,-0.0432763323187828
1.772634335680865e+18,0.805864990234375,-0.1438424587249755,0.1277046203613281,0.0236662626266479,-0.0466052778065204,0.037550538778305,-0.0502005442976951
1.772634335700858e+18,0.825858154296875,-0.1174285411834716,-0.0678529739379882,-0.1159290075302124,-0.0655137076973915,0.0655137076973915,-0.0491352789103984
1.7726343357208515e+18,0.8458515625,-0.0250899791717529,-0.1332273483276367,-0.2212638258934021,-0.0743021294474601,0.0673779174685478,-0.0531300194561481
1.7726343357408448e+18,0.8658447265625,0.0125969648361206,-0.0651836395263671,-0.1724684834480285,-0.0721716061234474,0.0625842288136482,-0.0672447606921196
1.7726343357608381e+18,0.885838134765625,-0.0454188585281372,0.0835962295532226,-0.1772785186767578,-0.0793621316552162,0.0745684504508972,-0.0824247673153877
1.7726343357808315e+18,0.90583154296875,-0.0036003589630126,0.1848859786987304,-0.244058072566986,-0.0836231857538223,0.0852210819721221,-0.0962731912732124
1.7726343358008248e+18,0.925824951171875,0.0626769065856933,0.1376466751098632,-0.3532681465148926,-0.1057274043560028,0.0615189671516418,-0.1133174076676368
1.7726343358408115e+18,0.9658115234375,0.0793617963790893,0.0334138870239257,-0.2584832906723022,-0.1073253005743026,0.019441058859229,-0.1274321526288986
1.7726343358608049e+18,0.985804931640625,0.094669222831726,0.057403564453125,-0.1221662759780883,-0.0980042442679405,-0.0197073742747306,-0.1415468901395797
1.7726343358807982e+18,1.005798095703125,0.0392932891845703,0.1668119430541992,-0.0700399279594421,-0.0988031923770904,-0.0556600205600261,-0.1404816210269928
1.7726343359007916e+18,1.02579150390625,-0.0317720174789428,0.2130651473999023,-0.1166638135910034,-0.1009337157011032,-0.0900147706270217,-0.1335574090480804
1.7726343359407782e+18,1.0657783203125,0.0380990505218505,-0.1410732269287109,-0.2212997078895568,-0.1078579351305961,-0.1062600389122963,-0.127698466181755
1.7726343359807647e+18,1.1057646484375,0.0109431743621826,0.0964736938476562,-0.0961474180221557,-0.1030642464756965,-0.1539305746555328,-0.144476369023323
1.772634336000758e+18,1.125758056640625,-0.0788307189941406,0.2367420196533203,-0.0995246767997741,-0.092677928507328,-0.1669800579547882,-0.1372858434915542
1.7726343360207514e+18,1.14575146484375,-0.0779203176498413,0.1850910186767578,-0.1524218916893005,-0.0737695023417472,-0.1717737466096878,-0.1261005699634552
1.7726343360407447e+18,1.16574462890625,-0.0625238418579101,0.0517578125,-0.0296754837036132,-0.0623179152607917,-0.1587242633104324,-0.0938763469457626
1.772634336060738e+18,1.185738037109375,-0.1229609251022338,0.0140542984008789,0.1163176298141479,-0.0399473831057548,-0.1619200557470321,-0.0741689726710319
1.7726343360807314e+18,1.2057314453125,-0.1881136894226074,0.0719642639160156,0.1379218697547912,-0.022370534017682,-0.1885516494512558,-0.0693752840161323
1.772634336100724e+18,1.225723876953125,-0.1755701303482055,0.1059246063232421,0.1571643054485321,-0.0181094799190759,-0.1821600645780563,-0.0653805509209632
1.7726343361207163e+18,1.24571630859375,-0.17462158203125,0.1018381118774414,0.1160366535186767,-0.0151800047606229,-0.1688442677259445,-0.050999492406845
1.7726343361407086e+18,1.26570849609375,-0.1581542491912841,0.0787534713745117,0.2281217277050018,-0.0146473739296197,-0.1544632166624069,-0.0334226414561271
1.772634336160701e+18,1.285700927734375,-0.093233585357666,0.0890445709228515,0.2865431308746338,-0.0149136893451213,-0.1443432122468948,-0.0166447423398494
1.772634336180693e+18,1.30569287109375,-0.114467978477478,0.1086940765380859,0.3630232810974121,-0.0165115855634212,-0.1161137223243713,0.0049268435686826
1.7726343362006853e+18,1.325685302734375,-0.0929354429244995,0.065704345703125,0.290760338306427,-0.0207726396620273,-0.097471609711647,0.0147805316373705
1.77263433624067e+18,1.365669921875,-0.0414272546768188,-0.35650634765625,0.1981406807899475,-0.0338221155107021,-0.07590002566576,0.0214384291321039
1.772634336260662e+18,1.385662109375,-0.1969759464263916,-0.2723369598388672,0.0159442424774169,-0.037550538778305,-0.0391484349966049,0.0158457942306995
1.7726343362806543e+18,1.405654296875,-0.11348557472229,0.1433210372924804,-0.0904856920242309,-0.0386158041656017,-0.0082557927817106,0.0312921144068241
1.7726343363006467e+18,1.425646728515625,0.0598692893981933,0.2195348739624023,0.0391226410865783,-0.0388821177184581,-0.0063915811479091,0.0502005442976951
1.772634336320639e+18,1.445638916015625,-0.0101203918457031,0.1433887481689453,0.2306455075740814,-0.034621063619852,0.0332894846796989,0.0680437088012695
1.772634336340631e+18,1.465631103515625,-0.0748436450958252,0.1196451187133789,0.1018545031547546,0.0383494868874549,0.0460726469755172,0.0589889660477638
1.7726343363606234e+18,1.485623291015625,-0.1050924062728881,-0.1105766296386718,0.2407521307468414,0.045540016144514,0.0378168560564518,0.0187752693891525
1.7726343363806157e+18,1.50561572265625,-0.2213447093963623,-0.1974496841430664,0.4707909822463989,0.0135821104049682,0.0332894846796989,0.0145142152905464
1.7726343364006077e+18,1.525607666015625,-0.233744740486145,0.0263986587524414,0.355767011642456,0.0149136893451213,0.0157126374542713,0.0022636849898844
1.7726343364206e+18,1.54560009765625,-0.1188629865646362,0.1308431625366211,0.2984845638275146,-0.0079894764348864,-0.0215715859085321,-0.0217047445476055
1.7726343364605847e+18,1.585584716796875,-0.0287109613418579,0.0328693389892578,0.1659653782844543,-0.0109189506620168,-0.0311589576303958,0.0075900023803114
1.772634336480577e+18,1.605576904296875,-0.0403016805648803,-0.0492324829101562,0.0980031490325927,0.0071905287913978,-0.0135821104049682,0.051798440515995
1.772634336500569e+18,1.625569091796875,-0.0247349739074707,-0.1269588470458984,0.0384762287139892,0.0106526352465152,0.0053263176232576,0.0286289565265178
1.7726343365205614e+18,1.6455615234375,-0.0681891441345214,-0.1852140426635742,0.1054021120071411,0.0183757953345775,0.0468715950846672,0.0187752693891525
1.7726343365405537e+18,1.6655537109375,-0.1064146757125854,-0.0706920623779296,0.139780580997467,0.0271642208099365,0.0679105520248413,0.016911057755351
1.772634336560546e+18,1.685546142578125,-0.0084086656570434,0.0764570236206054,0.1737536191940307,0.0274305362254381,0.0663126558065414,0.0129163200035691
1.772634336580538e+18,1.7055380859375,-0.101183533668518,0.1519966125488281,0.087099552154541,0.0322242230176925,0.054328441619873,0.02569948323071
1.7726343366005307e+18,1.72553076171875,-0.1517219543457031,0.1121692657470703,0.0244731307029724,0.0378168560564518,0.0356863290071487,0.0153131633996963
1.7726343366205233e+18,1.745523193359375,-0.1453026533126831,0.0721292495727539,-0.0220810770988464,0.0452736988663673,0.0250336937606334,-0.0139815835282206
1.7726343366405158e+18,1.765515869140625,-0.1615127325057983,0.0658550262451171,-0.0165846347808837,0.0521979108452796,0.0093210563063621,-0.0512658059597015
1.7726343366605084e+18,1.78550830078125,-0.1626745462417602,0.0549097061157226,-0.0067760348320007,0.0498010702431201,0.006657897029072,-0.0704405531287193
1.772634336680501e+18,1.8055009765625,-0.1488707065582275,0.0535087585449218,0.0096396207809448,0.0612526535987854,0.0199736915528774,-0.0744352862238884
1.7726343367004936e+18,1.82549365234375,-0.1528371572494506,0.0138969421386718,-0.0204250216484069,0.0644484460353851,0.0383494868874549,-0.0571247562766075
1.7726343367204861e+18,1.845486083984375,-0.1653773784637451,0.0462617874145507,-0.0642780065536499,0.0665789693593978,0.046338964253664,-0.0334226414561271
1.7726343367604713e+18,1.88547119140625,-0.2122852802276611,0.0922327041625976,-0.0335275530815124,0.0692421272397041,0.0450073853135108,-0.0246342197060585
1.7726343367804639e+18,1.9054638671875,-0.2127225399017334,0.0962896347045898,-0.0063590407371521,0.0625842288136482,0.0471379123628139,-0.0283626411110162
1.7726343368004564e+18,1.92545654296875,-0.217497706413269,0.0333642959594726,-0.0082649588584899,0.0593884401023387,0.0516652800142765,-0.0315584316849708
1.772634336820449e+18,1.945448974609375,-0.2220231294631958,-0.0432653427124023,0.0515999794006347,0.0567252822220325,0.0588558092713356,-0.0233026389032602
1.7726343368404416e+18,1.965441650390625,-0.2978842258453369,-0.0245208740234375,0.1135289371013641,0.0498010702431201,0.0625842288136482,-0.0166447423398494
1.7726343368604342e+18,1.98543408203125,-0.3157181739807129,0.032175064086914,0.0885538458824157,0.0450073853135108,0.0687095001339912,-0.0147805316373705
1.7726343368804268e+18,2.0054267578125,-0.2710554599761963,-0.0303802490234375,0.0748555064201355,0.0386158041656017,0.0721716061234474,-0.0201068483293056
1.7726343369004193e+18,2.02541943359375,-0.2532336711883545,-0.1023750305175781,0.0864930748939514,0.0319579057395458,0.0665789693593978,-0.0187752693891525
1.772634336920412e+18,2.045411865234375,-0.3086152076721191,-0.0509099960327148,0.032504379749298,0.0292947478592395,0.0607200190424919,-0.0195742174983024
1.7726343369404045e+18,2.065404541015625,-0.3373662233352661,-0.0291757583618164,-0.1289247274398803,0.0282294824719429,0.0636494979262352,-0.0225036926567554
1.772634336960397e+18,2.08539697265625,-0.3471815586090088,-0.0452699661254882,-0.2565644383430481,0.0287621151655912,0.0631168633699417,-0.0363521166145801
1.7726343369803896e+18,2.1053896484375,-0.2506537437438965,-0.0091638565063476,-0.3317257165908813,0.0237021129578351,0.0756337121129036,-0.0419447496533393
1.7726343370003822e+18,2.12538232421875,-0.2048259973526001,0.064615249633789,-0.3585237264633178,0.0229031667113304,0.0833568722009658,-0.0344879068434238
1.7726343370203748e+18,2.145374755859375,-0.2482713460922241,0.0465574264526367,-0.3666985630989074,0.0348873808979988,0.0865526646375656,-0.027830010280013
1.7726343370403674e+18,2.165367431640625,-0.3721116781234741,0.0378828048706054,-0.3472313284873962,0.0482031740248203,0.086818978190422,-0.0206394810229539
1.77263433706036e+18,2.18535986328125,-0.4168055057525635,0.1636905670166015,-0.2151679992675781,0.0561926513910293,0.0873516052961349,-0.0102531611919403
1.772634337100346e+18,2.22534619140625,-0.5516413450241089,0.4485597610473633,0.4234733581542969,0.0559263341128826,0.0623179152607917,-0.0022636849898844
1.77263433712034e+18,2.245340087890625,-0.602873682975769,0.8446311950683594,0.7189354300498962,0.0689758136868476,0.0055926335044205,0.0025300008710473
1.7726343371403338e+18,2.265333740234375,-0.3658953905105591,1.287698745727539,0.7506619095802307,0.081758975982666,-0.0692421272397041,0.0203731656074523
1.772634337160328e+18,2.285327880859375,-0.1948827505111694,1.1705856323242188,0.4379667639732361,0.0932105556130409,-0.1414137333631515,0.0547279119491577
1.7726343371803218e+18,2.30532177734375,-0.186306357383728,0.711827278137207,-0.2322196960449218,0.0870852917432785,-0.2079927027225494,0.0856205523014068
1.7726343372003156e+18,2.325315673828125,0.2895721197128296,0.3572149276733398,-1.0692694187164309,0.0676442310214042,-0.2601906061172485,0.1079910919070243
1.7726343372203095e+18,2.3453095703125,0.8938664197921753,0.1865072250366211,-2.0274441242218018,0.0340884327888488,-0.3171822130680084,0.1311605721712112
1.7726343372403034e+18,2.365303466796875,1.5571086406707764,-0.1660137176513672,-2.69051456451416,-0.0247673764824867,-0.2804306149482727,0.1468732059001922
1.7726343372602972e+18,2.385297119140625,1.7166680097579956,-0.6547203063964844,-3.385028600692749,-0.0292947478592395,-0.1736379563808441,0.1735047996044159
1.772634337280291e+18,2.405291015625,1.6158931255340576,-1.7525672912597656,-3.5887527465820312,-0.0239684283733367,-0.0487358048558235,0.2491385042667389
1.772634337320279e+18,2.445279052734375,0.1802784204483032,-1.1641817092895508,-1.0392078161239624,-0.0367515906691551,0.0916126668453216,0.3524690568447113
1.772634337340273e+18,2.46527294921875,0.018770694732666,0.8341407775878906,-0.3239939212799072,-0.0290284305810928,0.2005358636379242,0.4062648713588714
1.7726343373602668e+18,2.485266845703125,0.4589922428131103,1.7390508651733398,-0.0454953908920288,-0.034621063619852,0.1288968920707702,0.4616585671901703
1.7726343373802606e+18,2.505260498046875,0.3550517559051513,1.7987408638000488,-0.3702885508537292,-0.0186421126127243,-0.0796284452080726,0.4366248846054077
1.7726343374002547e+18,2.525254638671875,0.1037697792053222,1.630570411682129,-0.7901678085327148,0.0692421272397041,-0.3435474932193756,0.3647195994853973
1.7726343374202486e+18,2.54524853515625,0.3250608444213867,1.5689811706542969,-1.0002479553222656,0.1533979475498199,-0.5680517554283142,0.3055974841117859
1.7726343374402424e+18,2.565242431640625,0.2072043418884277,1.7777528762817385,-1.0915138721466064,0.1328916251659393,-0.923583447933197,-0.0637826547026634
1.7726343374602363e+18,2.585236328125,-0.1028792858123779,1.8659687042236328,-1.1196892261505127,0.0745684504508972,-0.8349002599716187,-0.1519332081079483
1.7726343374802301e+18,2.605230224609375,0.2027543783187866,1.4122066497802734,-1.0221223831176758,0.0639158114790916,-0.6708496809005737,-0.2129195481538772
1.772634337500224e+18,2.62522412109375,0.9567790031433104,0.6797990798950195,-1.0605661869049072,0.0591221265494823,-0.541686475276947,-0.2398174554109573
1.772634337520218e+18,2.645218017578125,0.7297556400299072,0.3026485443115234,-1.3260592222213743,-0.064182125031948,-0.3163832724094391,-0.1884184926748275
1.772634337540212e+18,2.6652119140625,0.2463127374649047,0.4900932312011719,-1.4635549783706665,-0.1355547904968261,-0.3081274628639221,-0.1961416453123092
1.7726343375602058e+18,2.685205810546875,0.4148237705230713,0.7054834365844727,-1.3727344274520874,-0.2221074402332306,-0.2985401153564453,-0.2198437601327896
1.7726343375801997e+18,2.70519970703125,0.8862394094467163,0.6597862243652344,-1.2549837827682495,-0.2974748313426971,-0.2713758945465088,-0.2688458859920501
1.7726343376001933e+18,2.725193359375,1.1841955184936523,0.6034221649169922,-1.2696709632873535,-0.2692453563213348,-0.1797632128000259,-0.2960101068019867
1.7726343376401797e+18,2.7651796875,1.9879519939422607,0.9008445739746094,-1.720951795578003,-0.2151832282543182,-0.0615189671516418,-0.257127970457077
1.772634337660173e+18,2.785173095703125,2.914885997772217,-0.0457372665405273,-2.040399074554444,-0.2410158663988113,-0.0234357975423336,-0.1942774355411529
1.7726343376801661e+18,2.805166259765625,1.6678764820098877,-3.65592098236084,-0.4977670311927795,-0.2599242925643921,-0.0367515906691551,-0.1506016254425048
1.7726343377001595e+18,2.825159423828125,0.140897512435913,-5.59025764465332,2.755251407623291,-0.1976063847541809,-0.0047936858609318,-0.0872184485197067
1.7726343377201528e+18,2.84515283203125,-0.419508695602417,-1.639909744262695,3.780229091644287,-0.1933453232049942,0.0029294746927917,-0.0083889504894614
1.772634337740146e+18,2.86514599609375,0.852265477180481,2.3922600746154785,3.099161148071289,-0.1563274264335632,-0.1102547720074653,0.0272973775863647
1.7726343377601393e+18,2.88513916015625,0.3854707479476928,2.645989418029785,1.2295081615447998,0.1206410974264144,-0.0740358158946037,0.1095889881253242
1.7726343377801326e+18,2.905132568359375,-0.5029706954956055,0.0614595413208007,-0.242175817489624,0.4098601341247558,0.0687095001339912,0.2198437601327896
1.772634337800126e+18,2.9251259765625,-1.7889306545257568,-2.216974258422852,-1.3631786108016968,0.3904190957546234,0.1757684797048568,0.0573910735547542
1.772634337820119e+18,2.945119140625,-1.402996063232422,-2.384457588195801,-0.9001359939575195,0.2551306188106537,0.2399506121873855,-0.067777395248413
1.7726343378401124e+18,2.9651123046875,-0.9351662993431092,-0.6509513854980469,1.470070719718933,0.1968074291944503,0.4527370035648346,-0.0233026389032602
1.7726343378601057e+18,2.985105712890625,-1.3331003189086914,0.6807489395141602,2.575416088104248,0.2308958619832992,0.7017423510551453,0.0778973922133445
1.7726343378800988e+18,3.005098876953125,-1.4376847743988037,0.6114530563354492,1.5019291639328003,0.2242379784584045,0.6151896715164185,0.0161121115088462
1.7726343379000922e+18,3.025092041015625,-1.1065090894699097,-0.986058235168457,-0.3894472420215606,0.1525990068912506,0.371244341135025,-0.1596563756465912
1.7726343379400788e+18,3.065078857421875,-0.7953786849975586,-1.600383758544922,-1.7024827003479004,0.0713726580142974,0.1938779652118683,-0.2174469232559204
1.772634337960072e+18,3.085072021484375,-0.4280134439468384,0.6583213806152344,-0.687940239906311,0.0074568446725606,0.1043958216905593,-0.2499374598264694
1.7726343379800653e+18,3.105065185546875,-0.3375738859176636,2.0199313163757324,0.3383883535861969,-0.1187768802046775,0.2532663941383362,-0.2808300852775574
1.7726343380000586e+18,3.12505859375,-0.4308421611785888,2.078033447265625,0.7867867946624756,-0.2609895765781402,0.5795033574104309,-0.2597911357879638
1.7726343380200517e+18,3.1450517578125,-0.4523870348930359,1.292250633239746,0.0272125825285911,-0.3155843317508697,0.8364982008934021,-0.2613890469074249
1.772634338040045e+18,3.165045166015625,-0.6337243914604187,0.5353622436523438,-0.8078176975250244,-0.2407495528459549,0.8506129384040833,-0.1607216298580169
1.7726343380600384e+18,3.185038330078125,-0.747528612613678,0.496835708618164,-1.1468056440353394,-0.1912147998809814,0.7299718260765076,-0.1924132257699966
1.7726343380800315e+18,3.205031494140625,-0.5464709997177124,0.9237117767333984,-1.8060050010681152,-0.1952095478773117,0.6154559850692749,-0.3764374852180481
1.7726343381000246e+18,3.225024658203125,-0.2513731718063354,1.0941495895385742,-2.3204667568206787,-0.2159821838140487,0.5081307291984558,-0.647280752658844
1.7726343381200177e+18,3.245017578125,-0.3506170511245727,1.0910301208496094,-2.161010503768921,-0.1763011068105697,0.4226433038711548,-0.7977492213249207
1.7726343381400105e+18,3.265010498046875,-0.3508754968643188,0.9644241333007812,-1.687244892120361,-0.0918789803981781,0.404800146818161,-0.7428881525993347
1.7726343381600033e+18,3.28500341796875,-0.5860310196876526,0.3073463439941406,-1.3205605745315552,-0.0276968516409397,0.4197138249874115,-0.6036049723625183
1.7726343381799962e+18,3.30499609375,-0.7531145811080933,-0.5059356689453125,-1.1635229587554932,0.0633831769227981,0.4242411851882934,-0.4134553968906402
1.7726343381999892e+18,3.3249892578125,-0.5790712833404541,-0.5785894393920898,-1.4002037048339844,0.1893505901098251,0.4087948799133301,-0.2099900692701339
1.772634338219982e+18,3.344982177734375,-1.1088812351226809,0.4970273971557617,-2.3746252059936523,0.2588590383529663,0.4125232994556427,-0.0904142409563064
1.772634338239975e+18,3.364974853515625,-1.5228806734085083,1.3269329071044922,-3.3940792083740234,0.2356895506381988,0.4516717195510864,-0.0808268710970878
1.772634338259968e+18,3.384968017578125,-1.953319311141968,1.4168949127197266,-3.754366636276245,0.1984053254127502,0.4378232955932617,-0.1362205743789672
1.7726343382799608e+18,3.4049609375,-1.9361426830291748,0.7802505493164062,-2.4638071060180664,0.141680046916008,0.4261054098606109,-0.2059953361749649
1.7726343382999537e+18,3.42495361328125,0.0372517108917236,-0.4707870483398437,0.2974584102630615,0.1544632166624069,0.3832285404205322,-0.230762705206871
1.7726343383199465e+18,3.444946533203125,-0.2098927497863769,-0.4149198532104492,0.681816041469574,0.1235705688595771,0.2647179961204529,-0.1529984772205352
1.7726343383399396e+18,3.464939697265625,0.3577483892440796,0.3412542343139648,0.4846498370170593,0.0468715950846672,0.1691105812788009,-0.0272973775863647
1.7726343383599324e+18,3.484932373046875,-0.0220695734024047,0.7343111038208008,1.704298496246338,-0.0836231857538223,0.1195758283138275,0.0709731802344322
1.7726343383799252e+18,3.50492529296875,1.280612230300903,-0.618438720703125,2.598264217376709,-0.3603253960609436,0.3691138029098511,0.1889511197805404
1.7726343383999183e+18,3.52491845703125,3.2816946506500244,-4.764510154724121,1.9470555782318115,-0.4748412072658539,0.4988096356391907,0.3977427780628204
1.7726343384199112e+18,3.5449111328125,1.9098975658416748,-8.45793342590332,-0.1168744564056396,-0.5683180689811707,0.0519315972924232,0.6960165500640869
1.772634338439904e+18,3.564904052734375,0.9127944707870485,-6.7553300857543945,-1.4282515048980713,-0.4484759569168091,-0.3166495859622955,0.9519461393356324
1.772634338459897e+18,3.58489697265625,1.1958905458450315,-2.0028018951416016,-1.2711745500564575,-0.4633896350860595,-0.4069306552410126,1.1463567018508911
1.77263433847989e+18,3.604889892578125,1.337823510169983,0.8733282089233398,-0.4859124422073364,-0.3363569676876068,-0.1275653094053268,1.282976746559143
1.7726343384998828e+18,3.6248828125,1.689714431762695,1.6577973365783691,0.1461672782897949,0.0777642354369163,0.1265000402927398,1.2946946620941162
1.7726343385198758e+18,3.644875732421875,0.6122851371765137,1.5237445831298828,0.3232932686805725,0.223439022898674,-0.1334242522716522,0.8957534432411194
1.7726343385398687e+18,3.66486865234375,-0.2435811758041381,0.8267307281494141,0.1882797479629516,0.0889495015144348,-0.5672528147697449,0.2898848354816437
1.7726343385598615e+18,3.684861572265625,-0.2760039567947387,0.2316751480102539,-0.1943386793136596,0.10359688103199,-0.9606013894081116,0.040080539882183
1.7726343385798543e+18,3.704854248046875,-0.3996555805206299,1.312744140625,-0.0459275245666503,0.1366200447082519,-1.1869698762893677,0.1106542497873306
1.7726343385998484e+18,3.724848388671875,-1.2152392864227295,3.7547354698181152,0.324822723865509,0.2577937841415405,-1.3773857355117798,0.2992058992385864
1.772634338619843e+18,3.744843017578125,-1.8575294017791748,5.003164291381836,1.4872384071350098,0.3435474932193756,-1.525191068649292,0.405998557806015
1.7726343386398374e+18,3.76483740234375,-1.111717939376831,4.691640853881836,2.0135343074798584,0.3595264256000519,-1.2812457084655762,0.3255711793899536
1.772634338659832e+18,3.78483203125,0.0902540683746337,3.45896577835083,0.9578953385353088,0.3512706458568573,-0.9771129488945008,0.2171805948019027
1.7726343386798264e+18,3.804826416015625,1.0748167037963867,2.041095733642578,-1.1764991283416748,0.3241064250469208,-0.8471508026123047,0.1050616130232811
1.772634338699821e+18,3.824821044921875,1.5325144529342651,0.6279220581054688,-2.33018159866333,0.2311621904373169,-0.843156099319458,0.0962731912732124
1.7726343387198157e+18,3.844815673828125,1.2869389057159424,-0.7740278244018555,-1.725032091140747,0.0181094799190759,-0.7464833855628967,-0.0424773842096328
1.7726343387598047e+18,3.8848046875,0.0002696514129638,-2.1200485229492188,2.646937370300293,-0.3046653568744659,-0.6575338840484619,-0.3263701200485229
1.7726343387797993e+18,3.90479931640625,-0.7970896363258362,-1.200580596923828,0.4278187155723572,-0.5387570261955261,-0.5922865271568298,-0.550341784954071
1.772634338799794e+18,3.9247939453125,0.7884354591369629,1.0312252044677734,-3.1256043910980225,-0.5014728307723999,-0.4008054137229919,-0.565521776676178
1.7726343388197883e+18,3.944788330078125,2.4353089332580566,3.0720348358154297,-6.180819511413574,-0.3627222180366516,-0.4018706679344177,-0.3721764385700226
1.772634338839783e+18,3.964782958984375,6.299523830413818,-1.6823663711547852,-2.799528121948242,-0.2221074402332306,-0.4964128136634826,-0.0928110852837562
1.7726343388597775e+18,3.984777587890625,2.392175912857056,-8.868705749511719,2.4247186183929443,0.042610540986061,-0.5395559668540955,-0.101066879928112
1.772634338879772e+18,4.00477197265625,-4.758403301239014,-6.383212089538574,6.163773536682129,0.0058589493855834,-0.1294295191764831,-0.1729721575975418
1.7726343388997665e+18,4.0247666015625,-4.082242965698242,1.7479987144470217,6.635152816772461,-0.0234357975423336,0.3741738200187683,0.0930773988366127
1.7726343389197612e+18,4.04476123046875,-1.2897366285324097,4.884613990783691,4.693304061889648,-0.025300009176135,0.805871844291687,0.7026744484901428
1.7726343389597501e+18,4.084750244140625,-0.7609927654266357,-2.5908803939819336,-0.9549971222877502,0.3488737940788269,0.2631200850009918,0.8872313499450684
1.7726343389997391e+18,4.1247392578125,-1.158977508544922,-0.8218097686767578,0.9309201836586,0.7747129201889038,-0.5885580778121948,0.2435458749532699
1.7726343390197338e+18,4.144733642578125,-1.7107326984405518,0.2220954895019531,2.561484098434448,0.4183822572231293,-0.5406212210655212,-0.4749743640422821
1.7726343390397284e+18,4.164728271484375,-1.9799156188964844,-1.033491134643555,2.204065561294556,-0.0396810658276081,-0.2034653276205063,-0.7737807631492615
1.7726343390597228e+18,4.18472265625,-1.4736571311950684,-2.518094062805176,0.2725588679313659,0.0386158041656017,0.4450138509273529,-0.5079975724220276
1.7726343390797174e+18,4.20471728515625,-1.067030429840088,-1.013967514038086,-1.537362575531006,0.2631200850009918,0.6181191802024841,0.269378513097763
1.772634339099711e+18,4.2247109375,-0.3439310789108276,1.8644089698791504,-1.0945632457733154,-0.0367515906691551,0.5049349069595337,-0.0035952643956989
1.772634339119704e+18,4.2447041015625,-0.4248640537261963,2.897312641143799,0.2236645817756652,-0.2487390339374542,0.5725791454315186,-0.4190480411052704
1.7726343391396974e+18,4.264697509765625,-0.7445394992828369,2.4235339164733887,1.0927529335021973,-0.4008054137229919,0.6695181131362915,-0.8017439842224121
1.7726343391596905e+18,4.2846904296875,-0.4547234773635864,1.7858638763427734,0.0570713803172111,-0.3472759127616882,0.7962844967842102,-0.9298418760299684
1.7726343391796836e+18,4.30468359375,-0.3916157484054565,1.2848844528198242,-1.8742027282714844,-0.2356895506381988,0.9222518801689148,-0.5753754377365112
1.772634339199677e+18,4.324677001953125,-0.4720382690429687,1.363994598388672,-2.899818658828736,-0.1342232078313827,0.9017455577850342,-0.1972069144248962
1.77263433921967e+18,4.344669921875,-0.3387601375579834,1.9415736198425293,-2.7557880878448486,-0.1235705688595771,0.7376949787139893,-0.2027995437383651
1.772634339239663e+18,4.3646630859375,-0.5822479128837585,2.001917839050293,-1.9927315711975095,-0.2018674314022064,0.5187833309173584,-0.5735112428665161
1.7726343392596564e+18,4.384656494140625,-0.6263737082481384,1.3594017028808594,-0.7697344422340393,-0.1592568904161453,0.3890874981880188,-0.8651271462440491
1.7726343392796495e+18,4.4046494140625,-0.8177444934844971,-0.1781930923461914,-0.4766932725906372,-0.0308926422148942,0.3728422224521637,-0.7833681702613831
1.772634339299643e+18,4.424642822265625,-0.7974759936332703,-1.6771535873413086,-1.5775216817855835,0.0444747507572174,0.392549604177475,-0.4880238473415375
1.772634339319636e+18,4.444635986328125,-0.4617133140563965,-0.7897539138793945,-2.5414798259735107,0.140614777803421,0.3480748534202575,-0.2749711573123932
1.772634339339629e+18,4.464629150390625,-0.5082539319992065,1.099583625793457,-3.3210177421569824,0.1952095478773117,0.3222422301769256,-0.2022669166326522
1.7726343393796155e+18,4.504615478515625,-0.3644114732742309,0.0734682083129882,-1.1506277322769165,0.1731053292751312,0.3696464300155639,-0.2491385042667389
1.7726343393996086e+18,4.524608642578125,-0.0320258140563964,-1.1180667877197266,0.5854024887084961,0.1981390118598938,0.3898864388465881,-0.3375553786754608
1.7726343394196017e+18,4.5446015625,-0.781497061252594,-1.3617572784423828,-0.2813413739204407,0.1818937510251999,0.4295675158500671,-0.3114564120769501
1.772634339439595e+18,4.564594970703125,-0.852773904800415,-0.1924390792846679,1.1409621238708496,0.15180005133152,0.3928159177303314,-0.1727058440446853
1.7726343394795812e+18,4.604581298828125,3.201488971710205,-4.132859230041504,3.4476547241210938,0.1129179298877716,0.1728390008211136,-0.0105194775387644
1.7726343394995745e+18,4.624574462890625,2.148188591003418,-6.045321464538574,1.5195599794387815,-0.5347622632980347,0.4125232994556427,0.1695100516080856
1.7726343395195676e+18,4.644567626953125,0.7069567441940308,-4.011994361877441,-0.3140262365341186,-0.4905538558959961,0.2324937582015991,0.506932258605957
1.7726343395395607e+18,4.664560791015625,0.9003763198852539,-1.822011947631836,-0.3853194117546081,-0.4258390963077545,-0.469781219959259,0.8765787482261658
1.772634339559554e+18,4.684553955078125,1.0483123064041138,-0.8013343811035156,0.0162069797515869,-0.342215895652771,-0.5398222804069519,1.0824408531188965
1.7726343395795471e+18,4.704547119140625,1.0779989957809448,0.0965604782104492,0.285661518573761,-0.0284957997500896,0.2181127071380615,1.2443609237670898
1.7726343395995405e+18,4.72454052734375,1.2170389890670776,0.9407167434692384,0.4211481213569641,0.0793621316552162,-0.1182442530989646,0.9106671810150146
1.772634339619534e+18,4.7445341796875,0.92091166973114,1.163468360900879,0.6017346382141113,0.019441058859229,-0.4234422445297241,0.420645922422409
1.772634339659521e+18,4.78452099609375,-0.3380651473999023,0.8468656539916992,0.6151847839355469,0.0242347456514835,-0.6359623074531555,0.1633847951889038
1.7726343396795144e+18,4.804514404296875,-0.4158262014389038,2.1714625358581543,0.28321373462677,0.0335558019578456,-0.8745813369750977,0.0965395048260688
1.772634339699508e+18,4.824508056640625,-0.7806723713874817,3.5118613243103027,0.689120888710022,0.0657800212502479,-1.0261150598526,0.1793637424707412
1.7726343397195013e+18,4.844501220703125,-0.7456699013710022,3.888307571411133,1.4763643741607666,0.1731053292751312,-1.128646731376648,0.3527353703975677
1.772634339739495e+18,4.864494873046875,-0.2272998094558715,3.640625476837158,1.560438632965088,0.2498043030500412,-1.1563435792922974,0.4483428001403808
1.7726343397594883e+18,4.88448828125,0.5140519142150879,3.2997212409973145,0.1216748356819152,0.152865320444107,-0.7811045050621033,0.1082574054598808
1.7726343397994752e+18,4.92447509765625,0.5990439653396606,1.5023679733276367,-2.560171842575073,0.1187768802046775,-0.5952159762382507,0.0206394810229539
1.7726343398194685e+18,4.944468505859375,0.5635522603988647,-0.2195491790771484,-1.7440606355667114,0.0378168560564518,-0.5067991018295288,0.0888163447380065
1.7726343398394621e+18,4.964462158203125,1.4883722066879272,-1.850642204284668,1.0400328636169434,-0.1241032034158706,-0.4130559265613556,0.0264984294772148
1.7726343398594555e+18,4.98445556640625,0.6932648420333862,-2.290435791015625,3.074708938598633,-0.3086601197719574,-0.3747064471244812,-0.2299637645483017
1.7726343398994424e+18,5.0244423828125,1.250222086906433,1.1973543167114258,-3.0442519187927246,-0.4799012243747711,-0.365119069814682,-0.4560659527778625
1.772634339919436e+18,5.04443603515625,4.193042755126953,-0.994858741760254,-5.085220813751221,-0.3406180143356323,-0.3893538117408752,-0.3223753869533539
1.7726343399394294e+18,5.064429443359375,2.1095542907714844,-9.386747360229492,0.7342817187309265,-0.2679137885570526,-0.4082622528076172,-0.0896152928471565
1.7726343399794163e+18,5.104416259765625,-2.1699490547180176,2.0637993812561035,5.795356273651123,-0.1616537421941757,-0.4942822754383087,0.0294279046356678
1.77263433999941e+18,5.124409912109375,-2.456681489944458,5.889677047729492,3.6746633052825928,0.0548610724508762,-0.5504749417304993,-0.1391500532627105
1.7726343400194033e+18,5.1444033203125,-1.0591357946395874,1.4886960983276367,2.0594482421875,-0.0825579240918159,0.3379548490047455,0.2027995437383651
1.7726343400393969e+18,5.16439697265625,-0.8308664560317993,-4.517348289489746,-0.4961079955101013,0.4905538558959961,0.7728486657142639,0.9311735033988952
1.7726343400593902e+18,5.18439013671875,-1.6123387813568115,-4.485980987548828,-1.7310640811920166,0.8117308020591736,0.5193159580230713,0.9378314018249512
1.7726343400793838e+18,5.2043837890625,-0.6714257001876831,0.1267366409301757,0.7250916361808777,0.281229555606842,0.0058589493855834,-0.3189132809638977
1.772634340099377e+18,5.224376953125,-1.099461317062378,2.442861557006836,3.1637721061706543,0.1896169036626815,0.4143875241279602,-0.3772364556789398
1.7726343401193697e+18,5.24436962890625,-1.7702757120132446,1.0618085861206057,2.587833404541016,0.2013348042964935,0.5305012464523315,-0.4661859571933746
1.7726343401393626e+18,5.264362548828125,-1.0574427843093872,-1.7671289443969729,-0.0532308220863342,0.3848264515399933,0.3350253701210022,-0.41665118932724
1.7726343401593556e+18,5.284355712890625,-1.4116848707199097,-2.363142967224121,-1.9981894493103027,0.2167811244726181,0.410925418138504,-0.0446079112589359
1.7726343401793485e+18,5.304348388671875,-0.5866706967353821,0.628239631652832,-1.3249776363372805,0.0910800322890281,0.5760412216186523,0.0978710874915123
1.7726343401993416e+18,5.324341552734375,-0.0678622722625732,2.5919551849365234,0.2868416011333465,-0.1155810952186584,0.6982802152633667,-0.1572595238685608
1.7726343402193344e+18,5.34433447265625,-0.7017892599105835,2.558195114135742,1.3881971836090088,-0.425572782754898,0.8016108274459839,-0.5817670226097107
1.7726343402393272e+18,5.3643271484375,-0.7676305770874023,1.7683868408203125,0.3740138411521911,-0.419447511434555,0.8855003118515015,-0.8294408321380615
1.7726343402593203e+18,5.3843203125,-0.3618655204772949,1.405282974243164,-2.1832427978515625,-0.2998716831207275,0.9504813551902772,-0.6083986163139343
1.7726343402793132e+18,5.404313232421875,-0.3228217363357544,1.4726171493530271,-3.372377872467041,-0.1986716538667678,0.93157297372818,-0.2454100847244262
1.7726343402993062e+18,5.42430615234375,-0.2383264303207397,1.8308029174804688,-2.642334222793579,-0.0668452829122543,0.7563371062278748,-0.2637858688831329
1.772634340319299e+18,5.444299072265625,-0.1024900674819946,1.9722590446472168,-1.8687225580215452,-0.1217063590884208,0.560594916343689,-0.6829670667648315
1.772634340339292e+18,5.4642919921875,-0.3436195850372314,1.3719100952148438,-1.2901514768600464,-0.1363537311553955,0.4628570079803467,-1.0808429718017578
1.772634340359285e+18,5.484284912109375,-0.6353592276573181,-0.2538356781005859,-0.7268521785736084,-0.0029294746927917,0.4543348848819732,-0.9673924446105956
1.7726343403792778e+18,5.50427783203125,-0.7590720057487488,-1.440049171447754,-0.866378664970398,0.1147821471095085,0.4729770123958587,-0.5543364882469177
1.772634340399271e+18,5.52427099609375,-0.7697739005088806,0.0076456069946289,-2.1370835304260254,0.1459411084651947,0.4183822572231293,-0.29893958568573
1.7726343404192637e+18,5.544263671875,-1.2197680473327637,1.6515822410583496,-3.266737461090088,0.1731053292751312,0.3352916836738586,-0.2776342928409576
1.7726343404392568e+18,5.5642568359375,-0.8921375870704651,1.461750030517578,-2.4868485927581787,0.2045305967330932,0.3334274888038635,-0.338886946439743
1.7726343404592497e+18,5.584249755859375,0.8463894128799438,0.1844768524169922,-0.4435049891471863,0.2458095550537109,0.3464769721031189,-0.3657848536968231
1.7726343404792425e+18,5.604242431640625,-0.7864301800727844,-0.2609853744506836,-0.9174494743347168,0.2418148219585418,0.3310306370258331,-0.3151848316192627
1.7726343405192284e+18,5.644228515625,-0.2202937602996826,-0.9418087005615234,1.864232063293457,0.1536642611026764,0.1861547976732254,-0.116779513657093
1.7726343405392215e+18,5.664221435546875,2.5020861625671387,-3.757767677307129,3.685908079147339,0.0412789620459079,0.0095873717218637,0.1093226671218872
1.7726343405592143e+18,5.68421435546875,2.844240188598633,-7.193694114685059,3.778284788131714,-0.3890874981880188,0.2194442898035049,0.309059590101242
1.7726343405792072e+18,5.704207275390625,0.7290428876876831,-5.750520706176758,1.0848987102508545,-0.47830331325531,0.3414169549942016,0.6358291506767273
1.7726343405992005e+18,5.724200439453125,0.7441831827163696,-2.994903564453125,-1.5325324535369873,-0.5424854755401611,-0.3219758868217468,1.0190577507019043
1.772634340619194e+18,5.744194091796875,1.015094757080078,-2.0565357208251958,-2.21864914894104,-0.329166442155838,-0.2008021771907806,1.3120051622390747
1.7726343406391875e+18,5.7641875,1.0343786478042605,-1.0071449279785156,-1.435425043106079,-0.1187768802046775,0.2577937841415405,1.441701054573059
1.772634340659181e+18,5.78418115234375,1.2889058589935305,0.2568559646606445,-0.1245964765548706,0.0508663319051265,0.0769652873277664,1.2297135591506958
1.772634340699168e+18,5.82416796875,0.1520593166351318,1.5506868362426758,0.82084721326828,0.0705737099051475,-0.3976096212863922,0.6078659892082214
1.7726343407191616e+18,5.84416162109375,-0.424641489982605,1.7996788024902344,1.1935651302337646,0.070041075348854,-0.623445451259613,0.243013247847557
1.7726343407391552e+18,5.8641552734375,-0.8303608894348145,2.310939311981201,1.674036741256714,0.0476705431938171,-0.8207855224609375,0.26325324177742
1.7726343407591485e+18,5.8841484375,-1.2655510902404783,3.650009632110596,1.5823941230773926,0.0340884327888488,-1.064730882644653,0.4339617192745209
1.7726343407791421e+18,5.90414208984375,-1.3167724609375,4.59016752243042,1.4569538831710815,0.1515337377786636,-1.3022847175598145,0.6683197021484375
1.7726343407991357e+18,5.9241357421875,-0.6047118902206421,4.422986030578613,1.4486827850341797,0.358993798494339,-1.5382405519485474,0.7077344655990601
1.7726343408191293e+18,5.94412939453125,0.3018046617507934,3.654107093811035,0.6296260356903076,0.3134537935256958,-1.3182636499404907,0.4243743419647217
1.7726343408391227e+18,5.964122802734375,0.4099702835083008,3.132269859313965,-1.0135704278945925,0.2255695462226867,-1.135837197303772,0.0715058147907257
1.7726343408591163e+18,5.9841162109375,0.4410825967788696,2.1901750564575195,-2.145134210586548,0.1424790024757385,-0.9488834738731384,-0.1764342784881591
1.7726343408991032e+18,6.024103271484375,2.18520450592041,-2.2397851943969727,0.7588552236557007,-0.0620516017079353,-0.7597991824150085,-0.3394196033477783
1.7726343409190968e+18,6.044096923828125,0.4552505016326904,-3.8242015838623047,3.2451696395874023,-0.2860232591629028,-0.5456812381744385,-0.5213133096694946
1.7726343409390904e+18,6.06409033203125,-0.8246811032295227,-2.221381187438965,1.1335304975509644,-0.5020054578781128,-0.495081216096878,-0.6795049905776978
1.7726343409590838e+18,6.084083740234375,1.6054924726486206,2.187437057495117,-3.975130796432495,-0.5720465183258057,-0.4436822533607483,-0.672314465045929
1.7726343409790774e+18,6.104077392578125,4.498197555541992,-2.043461799621582,-4.292201042175293,-0.4884233176708221,-0.4902875423431396,-0.4789691269397735
1.772634340999071e+18,6.124071044921875,1.3991984128952026,-10.68017864227295,2.609614610671997,-0.0790958181023597,-0.4993422627449035,0.1396826803684234
1.7726343410190643e+18,6.144064208984375,-0.9248716235160828,-4.7091474533081055,6.604657173156738,0.1219726726412773,-0.5949496626853943,-0.0805605575442314
1.772634341039058e+18,6.164057861328125,-2.399491310119629,3.875564575195313,5.819997787475586,-0.0916126668453216,-0.1904158592224121,-0.1940111219882965
1.7726343410590515e+18,6.184051513671875,-2.8004117012023926,4.754610538482666,3.4612913131713867,-0.0668452829122543,0.5845633745193481,0.2584595680236816
1.772634341099038e+18,6.224037841796875,-0.9688778519630432,-5.297726631164551,-1.9861555099487305,0.5944170355796814,0.7816371321678162,1.0044103860855105
1.7726343411190308e+18,6.24403076171875,-0.8939145803451538,-3.0742626190185547,-0.2476491332054138,0.6918886303901672,0.356596976518631,0.6491449475288391
1.7726343411590164e+18,6.284016357421875,-1.8336466550827024,2.500889778137207,4.13349723815918,0.4263717234134674,0.2383527159690857,-0.2448774576187133
1.7726343411790093e+18,6.30400927734375,-2.2720797061920166,-0.0254154205322265,3.06982970237732,0.1392832100391388,0.3432811796665191,-0.599077582359314
1.772634341199002e+18,6.324002197265625,-1.2694799900054932,-3.728859901428223,-0.484339952468872,-0.0229031667113304,0.702807605266571,-0.5652554631233215
1.772634341218995e+18,6.343994873046875,-1.6352704763412476,-2.46405029296875,-2.5262694358825684,0.1850895434617996,0.4207790791988373,0.0113184247165918
1.772634341238988e+18,6.363988037109375,-0.2215301990509033,1.677546501159668,-0.8886774778366089,0.1097221449017524,0.4617917239665985,0.271509051322937
1.7726343412589806e+18,6.383980712890625,-0.3120961189270019,3.3319811820983887,0.6611877083778381,-0.1928126960992813,0.5310338735580444,-0.3716438114643097
1.7726343412789737e+18,6.4039736328125,-0.977469563484192,3.013239860534668,1.354699730873108,-0.5121254324913025,0.7147918343544006,-0.9823061227798462
1.7726343412989665e+18,6.423966552734375,-0.7482210993766785,2.4603428840637207,0.1965360045433044,-0.432230681180954,0.8862992525100708,-1.1780482530593872
1.7726343413189594e+18,6.44395947265625,-0.2798702716827392,1.215780258178711,-1.904737949371338,-0.3302316963672638,1.0977541208267212,-0.6675207614898682
1.7726343413389522e+18,6.4639521484375,-0.4392876029014587,0.7885274887084961,-2.6512997150421143,-0.1603221595287323,1.0996183156967163,-0.2496711313724517
1.772634341358945e+18,6.483945068359375,-0.4565023779869079,1.188947677612305,-2.311962604522705,-0.0862863436341285,0.912664532661438,-0.3071953654289245
1.7726343413789379e+18,6.503937744140625,-0.5142651200294495,1.5294675827026367,-2.2961411476135254,-0.1997369080781936,0.7637939453125,-0.7402250170707703
1.7726343413989307e+18,6.5239306640625,-0.5055693984031677,1.2380495071411133,-1.9886711835861208,-0.2527337670326233,0.6900244355201721,-1.0861693620681765
1.7726343414189235e+18,6.543923583984375,-0.6609793305397034,0.3308782577514648,-1.54085111618042,-0.1043958216905593,0.6854971051216125,-0.99136084318161
1.7726343414389164e+18,6.563916259765625,-0.3229751586914062,-1.0537004470825195,-1.8066648244857788,0.0061252652667462,0.6703170537948608,-0.714392364025116
1.772634341478902e+18,6.603902099609375,-0.3782979249954223,1.2271461486816406,-3.922040700912476,0.1019989848136901,0.5624591112136841,-0.6012080907821655
1.7726343415188877e+18,6.6438876953125,-0.1738048791885376,0.4300203323364258,-1.3537993431091309,0.1826926916837692,0.5512738823890686,-0.5444828271865845
1.7726343415388805e+18,6.663880615234375,-0.495072066783905,-0.0213117599487304,0.3720075190067291,0.2016011178493499,0.6005423069000244,-0.451804906129837
1.7726343415588733e+18,6.683873291015625,-0.2012768983840942,0.1233940124511718,-1.0672993659973145,0.1656484752893448,0.5659212470054626,-0.383095383644104
1.7726343415988598e+18,6.72385986328125,1.7090641260147097,-2.328974723815918,3.438941478729248,0.1776326894760131,0.4937496483325958,-0.309059590101242
1.7726343416188536e+18,6.743853515625,1.8037840127944944,-6.447453498840332,3.768916606903076,0.1483379453420639,0.049268439412117,0.133823737502098
1.7726343416388477e+18,6.76384765625,0.5599267482757568,-7.663582801818848,1.9160056114196775,-0.5882917642593384,0.1288968920707702,0.550341784954071
1.7726343416588419e+18,6.783841796875,0.2844598293304443,-4.219253540039063,-0.2273135185241699,-0.6173202395439148,-0.2599242925643921,0.8249134421348572
1.7726343416988298e+18,6.823829833984375,0.1656275987625122,-1.0219497680664062,-0.7022691369056702,-0.545414924621582,-0.8064044713973999,1.1554114818572998
1.772634341718824e+18,6.843823974609375,0.864212155342102,0.0202407836914062,-0.7138620615005493,-0.037550538778305,-0.3949464559555053,1.4611420631408691
1.7726343417388178e+18,6.86381787109375,1.5616923570632937,0.6983156204223633,-0.3024057149887085,0.1262337267398834,-0.2530000805854797,1.3634041547775269
1.772634341758812e+18,6.88381201171875,0.455014705657959,0.8377323150634766,0.4456297159194946,0.1030642464756965,-0.4788359403610229,0.8102660775184631
1.7726343417988e+18,6.9237998046875,-0.6206886768341064,1.7795791625976562,1.4216618537902832,0.0684431791305542,-0.7510107755661011,0.2712427377700805
1.772634341838788e+18,6.9637880859375,-0.8456392884254456,5.254857063293457,2.3159384727478027,0.0620516017079353,-1.0325067043304443,0.133291095495224
1.7726343418587822e+18,6.9837822265625,-0.7570926547050476,5.16874361038208,2.266695261001587,0.0828242376446724,-1.1076077222824097,0.3362238109111786
1.7726343418987702e+18,7.023770263671875,0.7819662094116211,2.8196167945861816,-0.7830539345741272,0.2364885061979293,-1.2269172668457031,0.6017407178878784
1.772634341918764e+18,7.043763916015625,0.8846923112869263,1.3699350357055664,-2.862274646759033,0.2732400894165039,-1.226650953292847,0.6307691931724548
1.7726343419387581e+18,7.063758056640625,0.5155057907104492,-0.6251058578491211,-3.039287805557251,0.1235705688595771,-0.843156099319458,0.0163784269243478
1.7726343419587523e+18,7.083752197265625,1.1589274406433103,-2.309432983398437,-0.2577025890350342,-0.0356863290071487,-0.673512876033783,-0.1527321636676788
1.772634341978746e+18,7.10374609375,0.8615725040435791,-2.9440126419067383,2.7885191440582275,-0.222373753786087,-0.5179843902587891,-0.3005374670028686
1.7726343420187343e+18,7.143734375,0.0496284961700439,0.7188816070556641,-3.4400417804718018,-0.4740422666072845,-0.2372874468564987,-0.5098617672920227
1.7726343420387282e+18,7.163728271484375,4.13954496383667,-0.0299844741821289,-5.5394158363342285,-0.2884201109409332,-0.227433755993843,-0.3636543452739715
1.7726343420587223e+18,7.183722412109375,3.5174245834350586,-8.181619644165039,1.1691431999206543,-0.2394179701805114,-0.3214432597160339,-0.0778973922133445
1.7726343420787164e+18,7.20371630859375,-1.4692721366882324,-7.2155914306640625,6.064691543579102,-0.1848232150077819,-0.421578049659729,0.1221058294177055
1.77263434209871e+18,7.2237099609375,-3.0017099380493164,1.9909839630126955,6.247660636901856,0.0396810658276081,-0.5286370515823364,-0.1223721504211425
1.7726343421187034e+18,7.243703369140625,-1.8946434259414675,6.260646820068359,4.068903923034668,-0.0205063223838806,0.3552653789520263,0.0904142409563064
1.7726343421386967e+18,7.26369677734375,-0.8102772831916809,2.6035923957824707,2.255410432815552,0.3954790830612182,0.7659244537353516,0.9314398169517516
1.7726343421586903e+18,7.283690185546875,-0.8573571443557739,-3.3835573196411133,-0.7952936887741089,0.7904255390167236,0.234091654419899,1.02837872505188
1.7726343421786836e+18,7.30368359375,-1.210853934288025,-5.235156059265137,-1.38506817817688,0.5699160099029541,0.046338964253664,0.2478069216012954
1.7726343422186706e+18,7.343670654296875,-1.156393051147461,2.167967796325684,3.2108945846557617,0.1390168964862823,-0.0138484258204698,-0.3482080101966858
1.772634342238664e+18,7.363663818359375,-1.9774460792541504,1.0119915008544922,2.82949161529541,0.066046342253685,0.3371559083461761,-0.59002286195755
1.7726343422586573e+18,7.3836572265625,-1.1535474061965942,-2.3739213943481445,-0.0310680866241455,0.1752358525991439,0.3672496080398559,-0.5902891755104065
1.7726343422786506e+18,7.403650634765625,-1.5695664882659912,-2.65615177154541,-2.297640323638916,0.3251716792583465,0.2239716500043869,-0.2659164071083069
1.7726343422986442e+18,7.423644287109375,-0.671719491481781,0.6464700698852539,-1.6999008655548096,0.2263685017824173,0.3893538117408752,0.2073269188404083
1.7726343423186376e+18,7.443637451171875,-0.196506381034851,2.787549495697021,0.018831193447113,-0.0466052778065204,0.6956170797348022,-0.1641837358474731
1.772634342338631e+18,7.463630859375,-0.90764582157135,2.5254855155944824,1.701873540878296,-0.3826959133148193,0.7203844785690308,-0.5942838788032532
1.7726343423586243e+18,7.483624267578125,-1.0870500802993774,1.7034378051757812,1.459517002105713,-0.4447475075721741,0.7882950305938721,-0.7908250093460083
1.7726343423786179e+18,7.503617919921875,-0.5067862868309021,1.2703895568847656,-0.933832347393036,-0.3406180143356323,0.9209203124046326,-0.5703154802322388
1.7726343423986112e+18,7.523611083984375,-0.4735984206199646,1.2793207168579102,-2.570829391479492,-0.217846393585205,0.9707213640213012,-0.2291648089885711
1.7726343424186045e+18,7.5436044921875,-0.5810186266899109,1.979233741760254,-2.453299045562744,-0.0748347640037536,0.7989476323127747,-0.1953427046537399
1.7726343424385981e+18,7.56359814453125,-0.3767542839050293,2.375270366668701,-2.30788254737854,-0.13209268450737,0.5677854418754578,-0.6123933792114258
1.7726343424585915e+18,7.583591552734375,-0.2003087997436523,1.745363712310791,-2.139477252960205,-0.2277000844478607,0.4663191139698028,-1.129845142364502
1.7726343424785848e+18,7.603584716796875,-0.6306256651878357,0.6132106781005859,-1.1259161233901978,-0.1286305636167526,0.5414201617240906,-1.162069320678711
1.7726343424985782e+18,7.623578125,-0.6572354435920715,-0.886937141418457,-1.195804238319397,-0.0018642111681401,0.6490117907524109,-0.7988144755363464
1.7726343425185718e+18,7.64357177734375,-0.6002740859985352,-1.3748750686645508,-2.665013551712036,0.031691588461399,0.6095970273017883,-0.5791038870811462
1.772634342538565e+18,7.663565185546875,-0.804042637348175,0.4906196594238281,-3.9855449199676514,0.1123853027820587,0.5488770604133606,-0.5471459627151489
1.7726343425585585e+18,7.683558349609375,-1.28825581073761,1.8372373580932615,-3.938874483108521,0.1802958548069,0.5195822715759277,-0.4744417369365692
1.7726343425985454e+18,7.72354541015625,-0.5675463676452637,0.2411994934082031,-1.0856353044509888,0.1893505901098251,0.4862928092479706,-0.4099932909011841
1.7726343426385329e+18,7.763532958984375,0.1800588369369506,-0.6932153701782227,0.8516000509262085,0.1986716538667678,0.459128588438034,-0.3492732644081116
1.7726343426585267e+18,7.783526611328125,1.1964281797409058,-2.294839859008789,3.6793622970581055,0.1376853138208389,0.3696464300155639,-0.1415468901395797
1.7726343426785203e+18,7.803520263671875,1.6183106899261477,-5.906659126281738,3.9926257133483887,0.0226368494331836,0.0892158225178718,0.1386174112558365
1.7726343427185078e+18,7.8435078125,0.9543613195419312,-4.457161903381348,-0.3338139057159424,-0.2945453524589538,-0.025300009176135,0.3442132771015167
1.7726343427385016e+18,7.863501708984375,0.7862015962600708,-2.1962833404541016,-1.335579752922058,-0.5486106872558594,-0.4231759309768677,0.9639303088188172
1.7726343427584952e+18,7.8834951171875,0.6755591630935669,-0.7423505783081055,-1.1771687269210815,-0.3640538156032562,-0.6870949864387512,1.5149378776550293
1.7726343427984827e+18,7.923482666015625,1.0077528953552246,0.6270875930786133,0.6485063433647156,-0.2039979696273803,-0.3424822092056274,1.679521083831787
1.7726343428384701e+18,7.96347021484375,-0.0431715250015258,0.6783733367919922,1.1966477632522583,-0.0790958181023597,-0.1006674021482467,1.606284260749817
1.7726343428584637e+18,7.983463623046875,-0.4597073793411255,1.3142805099487305,1.2774968147277832,-0.0367515906691551,-0.7691202759742737,0.3900195956230163
1.7726343428984512e+18,8.023451171875,-0.883161723613739,4.205831050872803,1.412398099899292,-0.037550538778305,-1.0404961109161377,0.2020006030797958
1.772634342918445e+18,8.043445068359375,-0.8424318432807922,4.175034046173096,1.596496343612671,-0.0338221155107021,-1.1813772916793823,0.1585911065340042
1.7726343429384387e+18,8.063438720703125,-0.2449150085449218,3.702849864959717,0.9735330939292908,0.2087916433811187,-1.5257236957550049,0.44354909658432
1.7726343429584323e+18,8.083432373046875,0.8245042562484741,3.1726694107055664,-0.5101094841957092,0.3217095732688904,-1.1768498420715332,0.2147837579250335
1.772634342978426e+18,8.103426025390625,0.7369050979614258,2.4581551551818848,-1.8565170764923096,0.2490053474903106,-0.9483508467674256,-0.1069258227944374
1.7726343430184136e+18,8.14341357421875,1.29289972782135,-1.148324966430664,-0.1896102428436279,0.0599210746586322,-0.839427649974823,-0.3719101250171661
1.7726343430384072e+18,8.1634072265625,1.0917563438415527,-2.8563013076782227,2.311678886413574,-0.1440768986940384,-0.727841317653656,-0.53436279296875
1.772634343058401e+18,8.183401123046876,-1.1100168228149414,-2.991183280944824,2.139156579971313,-0.3664506673812866,-0.5219791531562805,-0.674711287021637
1.772634343098388e+18,8.223387939453126,4.017019748687744,1.0031061172485352,-4.638301372528076,-0.4567317366600036,-0.392549604177475,-0.6728470921516418
1.772634343118381e+18,8.243381103515626,3.97975492477417,-8.579216957092285,2.1551637649536133,-0.3568632900714874,-0.4183822572231293,-0.4978775382041931
1.7726343431383741e+18,8.2633740234375,-1.7645114660263062,-8.409296035766602,5.719043731689453,-0.0106526352465152,-0.2375537604093551,0.1316931992769241
1.7726343431583672e+18,8.2833671875,-4.740467071533203,1.868130207061768,4.079398155212402,0.3307643234729767,-0.1962748020887375,0.0973384529352188
1.7726343431783603e+18,8.3033603515625,-3.132236957550049,5.944452285766602,2.247389554977417,0.1046621426939964,-0.0583231784403324,-0.094142660498619
1.7726343431983532e+18,8.323353271484375,-0.5953060388565063,1.1816625595092771,2.6050350666046143,0.3611243367195129,0.8218508362770081,0.8483492136001587
1.7726343432183462e+18,8.34334619140625,-0.5964428186416626,-4.226467132568359,-0.0019638538360595,0.9283771514892578,0.3153179883956909,0.8174566030502319
1.7726343432383393e+18,8.36333935546875,-1.2163007259368896,-4.56935977935791,-2.179672718048096,0.8777771592140198,0.1347558349370956,0.0182426385581493
1.7726343432583324e+18,8.38333251953125,-0.990967571735382,-0.2847919464111328,0.4011585712432861,0.2556632459163666,0.1760347932577133,-0.3540669679641723
1.7726343432783255e+18,8.403325439453125,-1.5821845531463623,2.10303258895874,3.3331849575042725,-0.0109189506620168,0.7102644443511963,-0.2960101068019867
1.7726343432983186e+18,8.423318603515625,-2.048583745956421,0.3342838287353515,3.303063154220581,0.1009337157011032,0.5760412216186523,-0.3117227256298065
1.7726343433183117e+18,8.443311767578125,-1.2479147911071775,-2.7199506759643555,0.3327420949935913,0.3033337891101837,0.1179779320955276,-0.296809047460556
1.7726343433383048e+18,8.4633046875,-1.6874605417251587,-1.5192337036132812,-2.3787312507629395,0.1962748020887375,0.3347590565681457,0.0834900289773941
1.7726343433582979e+18,8.4832978515625,-0.2788580656051636,2.282409191131592,-1.8913650512695312,0.0178431645035743,0.6932202577590942,0.1498026847839355
1.772634343378291e+18,8.503291015625,0.1524131298065185,3.3974523544311523,-0.08115816116333,-0.1888179630041122,0.7448855042457581,-0.1817605942487716
1.772634343398284e+18,8.523283935546875,-0.7072649002075195,2.690659999847412,0.995140254497528,-0.4087948799133301,0.7874960899353027,-0.6973481178283691
1.772634343418277e+18,8.543277099609375,-0.8345332145690918,1.7635598182678225,0.1001648902893066,-0.3968106508255005,0.8024097681045532,-1.013198733329773
1.7726343434382702e+18,8.563270263671875,-0.6025423407554626,1.1620588302612305,-2.090160608291626,-0.3382211625576019,0.9989508986473083,-0.771117627620697
1.7726343434582633e+18,8.58326318359375,-0.5857998728752136,0.9571332931518556,-3.111517906188965,-0.2362221926450729,1.0380992889404297,-0.3553985357284546
1.772634343478256e+18,8.603256103515625,-0.2463605403900146,1.336874008178711,-2.3120687007904053,-0.108390562236309,0.8111981749534607,-0.3250385224819183
1.7726343434982492e+18,8.623249267578124,-0.3536587953567505,1.720846176147461,-1.4229209423065186,-0.1653821617364883,0.5251749157905579,-0.7133271098136902
1.7726343435182423e+18,8.6432421875,-0.8405318856239319,1.0909271240234375,-1.2726521492004397,-0.1613874286413192,0.3795001208782196,-1.0496840476989746
1.7726343435382354e+18,8.6632353515625,-1.1040470600128174,-0.5882301330566406,-1.3956191539764404,-0.0103863198310136,0.3528685569763183,-0.9434239864349364
1.7726343435582285e+18,8.683228515625,-0.6530812978744507,-1.1201810836791992,-1.7174056768417358,0.1094558238983154,0.3632548749446869,-0.580169141292572
1.7726343435782216e+18,8.7032216796875,-0.9694077968597412,0.7171630859375,-2.8099613189697266,0.1856221705675125,0.3707117140293121,-0.4091943502426147
1.7726343435982147e+18,8.723214599609374,-1.4535140991210938,1.6761674880981443,-3.3449454307556152,0.202133759856224,0.3856253921985626,-0.4062648713588714
1.7726343436382006e+18,8.76320068359375,0.449396014213562,-0.0673904418945312,-1.0207226276397705,0.1981390118598938,0.3771032989025116,-0.3657848536968231
1.7726343436581937e+18,8.783193603515626,-0.4903095364570617,-1.156559944152832,-1.178741216659546,0.1536642611026764,0.4085285663604736,-0.280031144618988
1.7726343436781865e+18,8.8031865234375,-0.4668586850166321,-1.642592430114746,1.805343747138977,0.1544632166624069,0.3219758868217468,-0.1790974289178848
1.7726343436981796e+18,8.8231796875,2.2475733757019043,-2.613798141479492,4.0475172996521,0.1137168779969215,0.0681768655776977,0.0411458052694797
1.7726343437381655e+18,8.86316552734375,0.9649665355682372,-6.346171379089356,1.7451632022857666,-0.1446095257997512,-0.0005326317623257,0.3287669420242309
1.7726343437581586e+18,8.88315869140625,0.911273717880249,-3.125642776489258,-0.5886315107345581,-0.551540195941925,-0.3771032989025116,1.0414282083511353
1.7726343437781514e+18,8.9031513671875,0.8994801044464111,-1.3626632690429688,-1.174828290939331,-0.3214432597160339,-0.9544761180877686,1.3881715536117554
1.7726343437981445e+18,8.92314453125,0.5875645875930786,-0.7547931671142578,-0.5879582166671753,-0.2615222036838531,-0.6263749599456787,1.4134715795516968
1.7726343438381304e+18,8.96313037109375,1.0861097574234009,1.0218210220336914,0.2438374757766723,-0.1081242486834526,-0.0982705578207969,1.3783178329467771
1.7726343438581235e+18,8.98312353515625,0.2270725965499878,1.373849868774414,0.4605279564857483,0.0612526535987854,-0.3094590604305267,0.5950828194618225
1.7726343438781164e+18,9.003116455078125,-0.0733157396316528,1.1399755477905271,0.6489080190658569,0.0980042442679405,-0.6657897233963013,0.1455416232347488
1.7726343439181023e+18,9.043102294921876,-1.3120903968811035,3.4655041694641118,1.4527199268341064,0.1209074109792709,-0.9318392872810364,0.0688426569104194
1.7726343439380954e+18,9.063095458984376,-1.2758235931396484,4.749302864074707,2.111478805541992,0.0604537054896354,-1.0301098823547363,0.0954742431640625
1.7726343439780813e+18,9.103081298828124,-0.2237218618392944,4.359896659851074,0.0310765504837036,0.1435442566871643,-1.1347719430923462,0.3114564120769501
1.7726343439980744e+18,9.123074462890624,-0.0587878227233886,3.056889057159424,-1.8805004358291624,0.2703106105327606,-1.2570109367370603,0.6025396585464478
1.7726343440180675e+18,9.1430673828125,0.4074870347976684,0.9065322875976562,-2.514094352722168,0.2697779834270477,-1.1837741136550903,0.6693849563598633
1.7726343440380603e+18,9.163060302734374,0.7059198617935181,-0.9271917343139648,-1.5735878944396973,0.2303632348775863,-1.039430856704712,0.4145206809043884
1.7726343440580534e+18,9.183053466796874,0.9067778587341307,-1.826210021972656,1.3500630855560305,0.0527305454015731,-0.864461362361908,-0.1676458418369293
1.7726343440780462e+18,9.203046142578126,-0.1299847364425659,-1.7875680923461914,2.5348868370056152,-0.129962146282196,-0.7640602588653564,-0.2688458859920501
1.7726343440980393e+18,9.223039306640626,0.062151551246643,-0.5858640670776367,-0.0753785967826843,-0.4308990836143493,-0.5044022798538208,-0.4736427962779999
1.7726343441180324e+18,9.243032470703126,4.121722221374512,-0.3944282531738281,-2.680713653564453,-0.4410190880298614,-0.5107938647270203,-0.383095383644104
1.7726343441380252e+18,9.263025146484376,3.026176691055298,-6.310903549194336,0.4974581599235534,-0.3741738200187683,-0.585096001625061,-0.21505007147789
1.7726343441580183e+18,9.283018310546876,-0.7586230039596558,-6.537167549133301,4.036778450012207,-0.255929559469223,-0.4727106988430023,0.0762995034456253
1.7726343441780114e+18,9.303011474609375,-2.570020198822021,0.6159229278564453,4.173990249633789,-0.0894821360707283,-0.3898864388465881,0.1878858506679535
1.7726343441980042e+18,9.323004150390624,-2.085649013519287,4.774340152740479,3.060429334640503,-0.0010652635246515,-0.4796349108219147,0.0179763212800025
1.7726343442179973e+18,9.342997314453124,-1.7744739055633545,2.8100757598876958,2.5024733543396,-0.1395495235919952,-0.1246358305215835,0.1764342784881591
1.7726343442379904e+18,9.362990478515623,-1.393162727355957,-3.070481300354004,1.3130366802215576,0.3043990433216095,0.4175832867622375,0.6813691854476929
1.7726343442579835e+18,9.3829833984375,-0.8841222524642944,-5.187023162841797,-0.9566195011138916,0.8151929378509521,0.3432811796665191,1.0816419124603271
1.7726343442779763e+18,9.402976318359377,-0.9396750926971436,-1.426285743713379,-0.5410983562469482,0.8229160904884338,0.2625874578952789,0.6379597187042236
1.7726343442979694e+18,9.422969482421877,-0.9016324281692504,1.6847786903381348,1.0321167707443235,0.4428833127021789,0.1030642464756965,0.2488721907138824
1.7726343443179625e+18,9.44296240234375,-0.9166821241378784,-0.1244106292724609,2.700730562210083,0.2412821948528289,0.2183790206909179,-0.0848216116428375
1.7726343443379553e+18,9.462955322265625,-0.961517333984375,-3.034188270568848,1.50740647315979,0.1712411046028137,0.2460758686065673,-0.3857585489749908
1.7726343443579484e+18,9.482948486328125,-1.1622271537780762,-3.485492706298828,-1.2566921710968018,0.278832733631134,0.07590002566576,-0.592952311038971
1.7726343443779415e+18,9.50294140625,-0.8335593938827515,-0.191441535949707,-2.282768726348877,0.1704421639442443,-0.0290284305810928,-0.3146522045135498
1.7726343443979343e+18,9.522934326171876,-0.0627584457397461,2.289935111999512,-0.9046357870101928,0.1161137223243713,0.3206443190574646,0.048868965357542
1.7726343444179274e+18,9.542927490234376,-0.2310445308685302,2.2116684913635254,0.633143424987793,0.0189084280282259,0.7049381136894226,0.2291648089885711
1.7726343444379205e+18,9.56292041015625,-0.7534562349319458,1.4219932556152344,0.9245721101760864,-0.1539305746555328,0.8322371244430542,0.0238352715969085
1.7726343444579136e+18,9.58291357421875,-0.997771382331848,1.419790267944336,-0.4914681315422058,-0.2655169367790222,0.8692550659179688,-0.3588606417179107
1.7726343444779064e+18,9.602906494140624,-0.97742760181427,1.888467788696289,-1.906739830970764,-0.2026663869619369,0.8599339723587036,-0.5830986499786377
1.7726343444978995e+18,9.6228994140625,-0.9666706323623656,2.369879722595215,-1.979449152946472,-0.1347558349370956,0.8996150493621826,-0.4467448890209198
1.7726343445178926e+18,9.642892578125,-0.8076332807540894,2.77524995803833,-1.6261942386627195,-0.0942758247256279,0.738760232925415,-0.3593932688236236
1.7726343445378854e+18,9.662885498046874,-0.8951112627983093,2.41945219039917,-1.257324457168579,-0.1203747764229774,0.4721780717372894,-0.6438186168670654
1.7726343445578785e+18,9.68287841796875,-1.0934178829193115,1.5462446212768557,-0.9254480600357056,-0.1515337377786636,0.2814958989620209,-1.0398303270339966
1.7726343445778716e+18,9.70287158203125,-0.7958984375,0.8100576400756836,-0.8740319013595581,-0.0937431901693344,0.2138516455888748,-1.0672608613967896
1.772634344597865e+18,9.722864990234376,-0.5945837497711182,0.5679664611816406,-1.6317392587661743,0.0415452793240547,0.2798979878425598,-0.7042723298072815
1.7726343446178586e+18,9.742858642578126,-1.0142443180084229,1.1775398254394531,-2.6741676330566406,0.1123853027820587,0.3491401076316833,-0.3511374890804291
1.7726343446378522e+18,9.76285205078125,-1.3484443426132202,1.867305278778076,-3.18244743347168,0.1842905879020691,0.3664506673812866,-0.1767005920410156
1.772634344657846e+18,9.782845947265624,-2.207965850830078,1.9482450485229488,-1.8756070137023928,0.2255695462226867,0.3685811758041382,-0.1399489939212799
1.7726343446778396e+18,9.802839599609374,0.3266829252243042,1.5651445388793943,0.7640112042427063,0.2399506121873855,0.379766434431076,-0.1292963624000549
1.7726343446978332e+18,9.822833251953124,-1.3119041919708252,1.2715473175048828,1.7990933656692505,0.284958004951477,0.4175832867622375,-0.1529984772205352
1.7726343447178268e+18,9.842826904296874,1.3424876928329468,0.7164936065673828,-0.0665593445301055,0.2330264002084732,0.2777674496173858,-0.1892174333333969
1.7726343447378207e+18,9.862820556640624,0.7324885129928589,-1.6296701431274414,0.7481464147567749,0.0852210819721221,0.0141147412359714,-0.2395511418581009
1.7726343447578143e+18,9.882814208984374,1.3110274076461792,-5.671491622924805,2.6842751502990723,0.0117178987711668,-0.2348906099796295,-0.2568616569042206
1.772634344777808e+18,9.902807861328125,1.9453085660934448,-8.095047950744629,3.366126537322998,-0.3174485266208648,-0.3342264294624328,-0.2536658644676208
1.7726343447978017e+18,9.9228017578125,1.7588262557983398,-6.286075592041016,1.0947844982147217,-0.4764391183853149,-0.1739042699337005,-0.1266331970691681
1.7726343448177953e+18,9.94279541015625,1.006695032119751,-2.606942176818848,-1.5075693130493164,-0.7603318691253662,-0.2026663869619369,0.3223753869533539
1.772634344837789e+18,9.962788818359376,1.7323672771453855,-0.7863168716430664,-2.005652666091919,-0.5688506960868835,-0.5014728307723999,0.9721861481666564
1.7726343448577828e+18,9.98278271484375,2.209716558456421,-0.7131118774414062,-1.8112468719482424,-0.1752358525991439,-0.4250401556491852,1.4992252588272097
1.7726343448777764e+18,10.0027763671875,1.9600505828857424,-1.323307991027832,-1.66782546043396,0.0388821177184581,0.0050600017420947,1.6542210578918457
1.77263434489777e+18,10.02277001953125,0.9583041667938232,-1.158452033996582,-0.8510763645172119,-0.0753673911094665,0.2644516825675964,1.6670042276382446
1.7726343449177636e+18,10.042763671875,-0.3251442909240722,-0.3034801483154297,0.1964455842971801,-0.1371526718139648,-0.0721716061234474,0.9775124192237854
1.7726343449377574e+18,10.06275732421875,-0.1370817422866821,0.325845718383789,0.9891498684883118,-0.0410126447677612,-0.1906821727752685,0.2438121885061264
1.772634344957751e+18,10.0827509765625,-0.5265306234359741,1.3906984329223633,1.623500108718872,-0.064981073141098,-0.4394212067127228,0.0483363308012485
1.7726343449777446e+18,10.10274462890625,-1.386491060256958,3.5502138137817383,1.5830237865447998,-0.1147821471095085,-0.9009466171264648,0.1950763761997223
1.7726343449977385e+18,10.122738525390623,-1.5110113620758057,4.704057693481445,1.662738800048828,-0.0639158114790916,-1.302551031112671,0.4470112025737762
1.772634345017732e+18,10.142732177734375,-1.3194366693496704,5.038300514221191,2.0510149002075195,0.0420779101550579,-1.5387731790542605,0.6219807267189026
1.7726343450377257e+18,10.1627255859375,-0.966730535030365,4.692990303039551,1.9238457679748533,0.0431431718170642,-1.5523552894592283,0.5743101835250854
1.7726343450577193e+18,10.18271923828125,-0.8154006004333496,4.169272422790527,0.6823542714118958,-0.002130527049303,-1.3717931509017944,0.3572627604007721
1.7726343450777132e+18,10.202713134765624,-0.1694812774658203,3.4916162490844727,-1.2583023309707642,-0.0167779009789228,-1.2144004106521606,0.0579237043857574
1.772634345097707e+18,10.22270703125,1.2294601202011108,2.287461280822754,-2.205780267715454,-0.0263652727007865,-1.0301098823547363,-0.0454068593680858
1.772634345117701e+18,10.242701171875,2.377880573272705,0.3410606384277344,-1.045940399169922,-0.098536878824234,-0.8554065823554993,-0.0499342270195484
1.772634345137695e+18,10.262695068359376,2.147665977478028,-1.3923768997192385,0.4680564403533935,-0.2556632459163666,-0.6916223168373108,-0.1071921437978744
1.772634345157689e+18,10.282689208984374,0.4355920553207397,-2.1966781616210938,0.6867703795433044,-0.4277032911777496,-0.5091959834098816,-0.2406163960695266
1.7726343451776832e+18,10.30268310546875,-1.2308117151260376,-2.137822151184082,-1.2035177946090698,-0.5965476036071777,-0.402669608592987,-0.3910848796367645
1.7726343451976773e+18,10.32267724609375,2.212540864944458,-1.2669267654418943,-2.5520172119140625,-0.6330328583717346,-0.3067958950996399,-0.420645922422409
1.7726343452176714e+18,10.34267138671875,3.97705078125,-3.1497116088867188,-0.1979788541793823,-0.6322339177131653,-0.4197138249874115,-0.3008037805557251
1.7726343452376653e+18,10.362665283203125,1.1506119966506958,-6.836929321289063,2.8377466201782227,-0.5443496704101562,-0.6215812563896179,-0.2097237557172775
1.7726343452576594e+18,10.382659423828123,-3.1934168338775635,-5.859458923339844,5.115907669067383,-0.2335590273141861,-0.6178528666496277,-0.2451437711715698
1.7726343452776535e+18,10.402653564453123,-2.871297836303711,-0.3622274398803711,5.140969753265381,0.05139896646142,-0.6817686557769775,-0.2270342856645584
1.7726343452976476e+18,10.422647705078123,-2.967565059661865,2.686919689178467,3.632358551025391,-0.0242347456514835,-0.2865558862686157,-0.02569948323071
1.7726343453176415e+18,10.442641357421875,-0.0316324234008789,0.7123012542724609,2.455163955688477,0.1829590052366256,0.5888243913650513,0.3423490524291992
1.7726343453376356e+18,10.462635498046875,-0.3063595294952392,-2.392628669738769,1.4434919357299805,0.5808349251747131,0.8101329207420349,0.7133271098136902
1.7726343453576297e+18,10.482629638671876,-1.614891529083252,-3.594729423522949,1.5947401523590088,0.9131971597671508,0.5110601782798767,0.6637923121452332
1.7726343453776238e+18,10.502623779296876,-0.8592182397842407,-2.2818899154663086,2.3043017387390137,0.5025380849838257,0.1177116185426712,0.2837595641613006
1.7726343453976177e+18,10.52261767578125,-1.5564067363739014,-1.4501886367797852,1.7359001636505127,0.3928159177303314,-0.0079894764348864,-0.0635163411498069
1.7726343454176118e+18,10.54261181640625,-1.1087955236434937,-3.082273483276367,0.4322543740272522,0.2801643013954162,0.0751010775566101,-0.0438089631497859
1.772634345437606e+18,10.56260595703125,-1.3093008995056152,-2.53798770904541,-0.2358903884887695,0.2724411487579345,0.1488705724477768,0.0246342197060585
1.7726343454576e+18,10.58260009765625,-0.976860761642456,0.934229850769043,-0.8983564376831055,0.4404864609241485,0.2740390300750732,0.051798440515995
1.7726343454775939e+18,10.60259375,-0.5232819318771362,2.037508010864258,-0.2666945457458496,0.1880190074443817,0.5190496444702148,0.0331563279032707
1.772634345497588e+18,10.622587890625,-0.50881028175354,0.9638280868530272,1.289137601852417,0.0439421199262142,0.7805718183517456,-0.1207742542028427
1.772634345517582e+18,10.64258203125,-0.5922962427139282,0.6183910369873047,1.3085124492645264,-0.0037284223362803,1.130510926246643,-0.2760364115238189
1.772634345537576e+18,10.662575927734377,-0.6417576670646667,1.2168216705322266,0.0893662571907043,-0.035420011729002,1.3270519971847534,-0.3404848575592041
1.77263434555757e+18,10.682570068359375,-0.751912534236908,2.466156005859375,-0.8343439102172852,-0.1523326784372329,1.2032151222229004,-0.4446143507957458
1.7726343455775642e+18,10.702564208984375,-0.632485568523407,3.164666175842285,-1.3864200115203855,-0.145674780011177,1.1558109521865845,-0.4347606897354126
1.7726343455975583e+18,10.722558349609375,-0.2231065034866333,2.769012451171875,-1.4339827299118042,-0.0822916105389595,1.034104585647583,-0.4099932909011841
1.7726343456175524e+18,10.742552490234376,-0.4140785932540893,1.9210782051086424,-1.1898674964904783,-0.0838894993066787,0.8655266165733337,-0.6960165500640869
1.7726343456375465e+18,10.76254638671875,-0.552198052406311,0.8650655746459961,-0.7268036603927612,-0.037550538778305,0.803475022315979,-0.9628650546073914
1.7726343456575404e+18,10.782540283203126,-1.3054814338684082,-0.272282600402832,-0.3037735819816589,0.046338964253664,0.8053392171859741,-0.8723176717758179
1.7726343456775345e+18,10.802534423828124,-1.418052077293396,-0.9022226333618164,-1.2438055276870728,0.1049284562468528,0.8719182014465332,-0.6131923198699951
1.7726343456975286e+18,10.822528564453124,-1.0456938743591309,-0.5781831741333008,-2.224414348602295,0.147805318236351,0.9201213717460632,-0.3902859091758728
1.7726343457175227e+18,10.842522705078125,-0.8294814825057983,1.0329217910766602,-2.8193750381469727,0.2372874468564987,0.8330360651016235,-0.2909500896930694
1.7726343457375168e+18,10.862516845703125,-0.8332029581069946,2.0124711990356445,-2.989980936050415,0.301735907793045,0.7110633850097656,-0.2661827206611633
1.772634345757511e+18,10.882510986328125,-1.4723596572875977,1.0756044387817385,-2.439124584197998,0.3763043284416199,0.7273086905479431,-0.2709763944149017
1.772634345777505e+18,10.902505126953123,-1.2334997653961182,-0.5757503509521484,-0.7262712121009827,0.3976096212863922,0.8428897857666016,-0.3455448448657989
1.7726343457974991e+18,10.9224990234375,1.2484638690948486,-1.4764509201049805,1.5401068925857544,0.3922832906246185,0.923583447933197,-0.4086617231369018
1.7726343458174932e+18,10.9424931640625,-0.588577151298523,-1.238286018371582,1.029181957244873,0.3834948539733886,0.8468844890594482,-0.3676490783691406
1.7726343458374874e+18,10.9624873046875,0.682020902633667,-0.8029499053955078,0.2982560396194458,0.3043990433216095,0.5320991277694702,-0.2347574532032013
1.7726343458574815e+18,10.9824814453125,1.9999068975448608,-1.0977668762207031,0.7673057913780212,0.2609895765781402,0.2327600866556167,-0.0869521349668502
1.7726343458774753e+18,11.002475341796876,0.1359527111053466,-3.873502731323242,2.130667924880981,0.1488705724477768,0.0370179079473018,-0.0667121261358261
1.7726343458974694e+18,11.022469482421876,1.1466295719146729,-4.581201553344727,4.093051910400391,-0.1241032034158706,0.2165148109197616,-0.1767005920410156
1.7726343459174636e+18,11.042463623046874,2.65659761428833,-3.4476757049560547,5.612263202667236,-0.2530000805854797,0.4577969908714294,-0.2067942768335342
1.7726343459374577e+18,11.062457763671874,1.8761281967163088,-2.0076045989990234,4.045077800750732,-0.4567317366600036,0.3611243367195129,-0.0291615892201662
1.7726343459574518e+18,11.08245166015625,1.917984127998352,-0.4020662307739258,1.7766127586364746,-0.7531412839889526,0.2095905989408493,0.2398174554109573
1.772634345977446e+18,11.10244580078125,2.7770309448242188,-0.406137466430664,0.861686646938324,-0.3981422483921051,-0.3414169549942016,0.5918870568275452
1.77263434599744e+18,11.12243994140625,1.7081170082092283,-0.8719387054443359,0.7568545341491699,-0.1749695390462875,-0.7771097421646118,0.6579334139823914
1.772634346017434e+18,11.14243408203125,1.147953748703003,-0.4795389175415039,0.6066126823425293,0.0106526352465152,-0.4087948799133301,0.6368944048881531
1.7726343460374282e+18,11.16242822265625,0.9580521583557128,-0.0651264190673828,0.5739718079566956,0.129962146282196,-0.0609863363206386,0.5519396662712097
1.772634346057422e+18,11.182422119140623,0.1838772296905517,0.574188232421875,0.4342761635780334,0.1976063847541809,-0.0205063223838806,0.0824247673153877
1.7726343460774162e+18,11.202416259765624,-0.5156724452972412,0.9600915908813475,0.7392284274101257,0.306263267993927,0.0077231605537235,-0.309059590101242
1.7726343460974093e+18,11.2224091796875,-0.8504034280776978,1.5530743598937988,1.5003207921981812,0.3707117140293121,-0.2034653276205063,-0.3298322260379791
1.7726343461174019e+18,11.24240185546875,-0.7417831420898438,2.255787849426269,1.9121155738830569,0.3920169770717621,-0.5275717377662659,-0.2315616607666015
1.7726343461373942e+18,11.262394287109377,-0.3058450222015381,2.5520753860473637,1.9832401275634768,0.3699127733707428,-0.7068023681640625,-0.1037300378084182
1.7726343461573865e+18,11.282386474609376,0.0710735321044921,2.0174593925476074,1.8042726516723635,0.3763043284416199,-0.7978823781013489,0.0105194775387644
1.7726343461773788e+18,11.30237890625,-0.3030258417129516,1.1545915603637695,1.3805181980133057,0.3470095992088318,-0.8173234462738037,0.0110521093010902
1.7726343461973711e+18,11.32237109375,0.4116356372833252,0.4218931198120117,0.2596835494041443,0.2761695683002472,-0.7605981826782227,-0.0717721283435821
1.7726343462173637e+18,11.34236376953125,0.4096543788909912,0.1699151992797851,-1.0070247650146484,0.15180005133152,-0.5930854678153992,-0.2065279632806778
1.772634346237356e+18,11.36235595703125,-0.124316930770874,0.646092414855957,-1.7434475421905518,0.0657800212502479,-0.3491401076316833,-0.2342248111963272
1.7726343462573484e+18,11.382348388671875,-0.1368379592895507,0.9722747802734376,-1.283210039138794,0.031691588461399,-0.0841558203101158,-0.2265016585588455
1.7726343462773407e+18,11.402340576171875,-0.0262818336486816,0.7768545150756836,-0.0468475818634033,0.0141147412359714,0.0601873882114887,-0.221175342798233
1.7726343462973332e+18,11.422333251953123,-0.1384085416793823,0.5306148529052734,0.9969115257263184,-0.1054610908031463,0.1568600535392761,-0.2581932544708252
1.7726343463173256e+18,11.44232568359375,-0.0312023162841796,0.3711318969726562,0.9274874925613404,-0.1496695280075073,0.1989379674196243,-0.2784332633018493
1.772634346337318e+18,11.46231787109375,0.4197405576705932,0.2085094451904297,0.087672621011734,-0.1174453049898147,0.1366200447082519,-0.2411490231752395
1.7726343463573102e+18,11.482310302734374,0.6919612884521484,-0.4061441421508789,0.2936038076877594,-0.1720400601625442,0.0806937143206596,-0.0680437088012695
1.7726343463773025e+18,11.502302490234374,0.5717368125915527,-1.0977907180786133,1.2152421474456787,-0.2612558901309967,0.0061252652667462,0.1593900620937347
1.772634346397295e+18,11.522295166015626,-0.0332659482955932,-1.0196266174316406,1.7304264307022097,-0.2793653607368469,-0.0010652635246515,0.2355563938617706
1.7726343464172874e+18,11.542287353515626,-0.2849345207214355,-0.281717300415039,1.5723177194595337,-0.310258001089096,0.0415452793240547,0.1860216408967971
1.7726343464372797e+18,11.56227978515625,0.0327697992324829,0.0205316543579101,0.9042553901672364,-0.3283674716949463,0.1778990030288696,0.1380847841501236
1.772634346457272e+18,11.58227197265625,0.1564986705780029,-0.114725112915039,0.0426201820373535,-0.2804306149482727,0.3126548528671264,0.198272168636322
1.7726343464772646e+18,11.6022646484375,0.1857300996780395,-0.0748319625854492,-0.1895729899406433,-0.2444779723882675,0.3091927468776703,0.2414153516292572
1.772634346497257e+18,11.622257080078125,0.2186368703842163,0.5809211730957031,0.1743935644626617,-0.2109221816062927,0.2380864024162292,0.1870869100093841
1.7726343465172493e+18,11.642249267578125,0.3410522937774658,1.0164117813110352,0.5604575276374817,-0.1858884841203689,0.1856221705675125,0.0776310786604881
1.7726343465372416e+18,11.66224169921875,0.1867514848709106,0.5658140182495117,0.8842846155166626,-0.164583221077919,0.1994705945253372,-0.0411458052694797
1.772634346557234e+18,11.68223388671875,-0.4142531156539917,-0.1326417922973632,0.9429332613945008,-0.1288968920707702,0.1864211112260818,-0.1135837212204933
1.7726343465772265e+18,11.7022265625,-0.4377166032791137,-0.5609369277954102,0.6415426731109619,-0.0910800322890281,0.1699095368385315,-0.0571247562766075
1.7726343465972193e+18,11.72221923828125,-0.2548447847366333,-0.5104560852050781,0.0967051982879638,-0.0711063370108604,0.1541968882083892,0.0765658169984817
1.7726343466172124e+18,11.74221240234375,0.053007960319519,-0.1742868423461914,-0.0030477046966552,-0.0735031813383102,0.0958737134933471,0.111719511449337
1.7726343466372058e+18,11.762205810546876,0.1476809978485107,0.1144161224365234,0.2224823534488678,-0.0447410680353641,0.0774979218840599,0.110920563340187
1.772634346657199e+18,11.78219921875,0.1065129041671752,0.1694555282592773,0.3169821500778198,0.0098536871373653,0.042610540986061,0.0970721393823623
1.7726343466771922e+18,11.802192138671876,-0.0399283170700073,0.1574430465698242,0.1318124532699585,-0.0143810575827956,0.0498010702431201,0.0845552906394004
1.7726343466971855e+18,11.822185546875,-0.09548020362854,0.1402263641357422,0.0146350264549255,-0.0647147595882415,0.0900147706270217,0.0667121261358261
1.772634346717179e+18,11.842178955078126,-0.1128993034362793,0.0468063354492187,0.2023211419582367,-0.092677928507328,0.1496695280075073,0.0541952811181545
1.772634346737172e+18,11.862171875,-0.0794539451599121,-0.0280685424804687,0.3562020063400268,-0.0790958181023597,0.1717737466096878,0.0467384383082389
1.7726343467571653e+18,11.882165283203124,-0.0655678510665893,-0.0070724487304687,0.197948008775711,-0.0633831769227981,0.1097221449017524,0.0142478998750448
1.7726343467771587e+18,11.90215869140625,-0.0133992433547973,-0.0150489807128906,0.1093336343765258,-0.0591221265494823,0.0359526425600051,-0.0334226414561271
1.7726343467971517e+18,11.92215185546875,-0.0268483161926269,0.0297842025756835,0.0704372525215148,-0.0572579130530357,-0.0029294746927917,-0.0387489609420299
1.772634346817145e+18,11.94214501953125,0.0170919895172119,0.1887826919555664,-0.0373517870903015,-0.0559263341128826,-0.0061252652667462,-0.0102531611919403
1.7726343468371384e+18,11.962138427734375,0.0586345195770263,0.2999944686889648,-0.0082233548164367,-0.0585894957184791,-0.0210389550775289,0.0105194775387644
1.7726343468571315e+18,11.982131591796875,0.0012741088867187,0.2912845611572265,0.0241963863372802,-0.0519315972924232,-0.0599210746586322,-0.0041278963908553
1.7726343468771249e+18,12.002124755859375,0.029467225074768,0.1148738861083984,0.1708325147628784,-0.0519315972924232,-0.0889495015144348,-0.011584741063416
1.7726343468971182e+18,12.0221181640625,0.0321618318557739,-0.0608835220336914,0.2751613855361938,-0.0529968589544296,-0.0993358269333839,0.0051931599155068
1.7726343469171113e+18,12.042111328125,-0.0584362745285034,-0.1455631256103515,0.2687612771987915,-0.0615189671516418,-0.1166463568806648,0.0166447423398494
1.7726343469371046e+18,12.062104736328124,-0.0536029338836669,-0.1390132904052734,0.235704094171524,-0.0633831769227981,-0.1398158371448516,0.0339552760124206
1.772634346957098e+18,12.082097900390623,0.0076843500137329,-0.1750125885009765,0.2067198753356933,-0.0569915995001792,-0.1712411046028137,0.0533963330090045
1.772634346977091e+18,12.102091064453123,0.0907049179077148,-0.2215023040771484,0.1723929345607757,-0.0607200190424919,-0.1984053254127502,0.0749679207801818
1.7726343469970844e+18,12.12208447265625,0.1237692832946777,-0.1011018753051757,0.1443349123001098,-0.0612526535987854,-0.2101232260465622,0.0778973922133445
1.7726343470170778e+18,12.142077880859375,0.1197140216827392,0.0531091690063476,0.112814724445343,-0.0535294935107231,-0.2167811244726181,0.0565921254456043
1.7726343470370708e+18,12.16207080078125,0.0995359420776367,0.087381362915039,0.0267767906188964,-0.0612526535987854,-0.2034653276205063,0.0267647467553615
1.7726343470570642e+18,12.182064208984375,0.0714952945709228,0.0301895141601562,-0.1047006249427795,-0.0596547573804855,-0.1632516384124755,0.0059921070933341
1.7726343470770575e+18,12.2020576171875,0.0863142013549804,-0.0466136932373046,-0.2390452027320861,-0.0559263341128826,-0.1315600425004959,-0.0030626326333731
1.772634347097051e+18,12.22205078125,0.0703022480010986,-0.037663459777832,-0.4159643054008484,-0.0447410680353641,-0.1222389861941337,-0.0078563187271356
1.7726343471170447e+18,12.242044677734375,0.0247299671173095,-0.0099649429321289,-0.5230854153633118,-0.032490536570549,-0.1350221484899521,-0.0235689561814069
1.7726343471370386e+18,12.26203857421875,0.0340499877929687,0.0796031951904296,-0.700966477394104,-0.0157126374542713,-0.1603221595287323,-0.0382163301110267
1.7726343471570324e+18,12.282032470703124,0.0088294744491577,0.1783866882324218,-0.7368002533912659,-0.0079894764348864,-0.1882853209972381,-0.0446079112589359
1.7726343471770263e+18,12.3020263671875,-0.0014948844909667,0.2331371307373047,-0.6936687231063843,0.0101200034841895,-0.2154495418071746,-0.0541952811181545
1.7726343471970202e+18,12.322020263671876,-0.0851873159408569,0.2024288177490234,-0.5777934789657593,0.0283626411110162,-0.2482064068317413,-0.0656468644738197
1.7726343472170138e+18,12.342013671875,-0.177549123764038,0.0955400466918945,-0.3672127723693847,0.0406131707131862,-0.2910832464694977,-0.0584563352167606
1.7726343472370076e+18,12.362007568359376,-0.2732423543930053,-0.0070018768310546,-0.0361895561218261,0.0464721210300922,-0.3368895947933197,-0.0384826436638832
1.7726343472570015e+18,12.38200146484375,-0.2856523990631103,-0.0133934020996093,0.2952141761779785,0.0547279119491577,-0.3805654048919678,-0.0280963256955146
1.7726343472769953e+18,12.401995361328124,-0.3063181638717651,0.0329551696777343,0.5458471179008484,0.0581900216639041,-0.4263717234134674,-0.0049268435686826
1.7726343472969892e+18,12.4219892578125,-0.3018803596496582,-0.0357961654663085,0.8340610265731812,0.0533963330090045,-0.4748412072658539,0.0406131707131862
1.772634347316983e+18,12.441983154296874,-0.3401205539703369,-0.0950946807861328,1.0480966567993164,0.0355531685054302,-0.516120195388794,0.0818921327590942
1.7726343473369766e+18,12.4619765625,-0.4074081182479858,-0.0922298431396484,1.1243278980255127,0.0339552760124206,-0.5400885939598083,0.1053279340267181
1.7726343473569705e+18,12.481970458984376,-0.3495643138885498,-0.0222902297973632,1.129530668258667,0.0283626411110162,-0.524642288684845,0.1146489903330802
1.7726343473769644e+18,12.50196435546875,-0.2418112754821777,0.0625677108764648,1.0892066955566406,0.0174436904489994,-0.4886896312236786,0.1189100444316864
1.7726343473969582e+18,12.521958251953125,-0.1836345195770263,0.0082988739013671,0.9885749220848083,0.0142478998750448,-0.415452778339386,0.1266331970691681
1.772634347416952e+18,12.5419521484375,-0.240574836730957,-0.1272220611572265,0.8406593799591064,0.0138484258204698,-0.3057306408882141,0.1399489939212799
1.7726343474369457e+18,12.561945556640625,-0.278949499130249,-0.0998620986938476,0.797221302986145,0.0183757953345775,-0.1872200667858123,0.139416366815567
1.7726343474569395e+18,12.581939453125,-0.2712714672088623,-0.0394649505615234,0.7749487161636353,0.0284957997500896,-0.0506000183522701,0.1207742542028427
1.7726343474769334e+18,12.601933349609377,-0.2213233709335327,-0.0798282623291015,0.6519060134887695,0.0327568538486957,0.0841558203101158,0.1029310896992683
1.7726343474969272e+18,12.62192724609375,-0.1607537269592285,-0.014510154724121,0.4662955999374389,0.0250336937606334,0.1984053254127502,0.0709731802344322
1.772634347516921e+18,12.641921142578123,-0.0950778722763061,0.0981454849243164,0.2909843623638153,0.0420779101550579,0.2865558862686157,0.03715106472373
1.772634347536915e+18,12.6619150390625,-0.0813138484954834,0.1827917098999023,0.1230159997940063,0.0482031740248203,0.3478085398674011,0.0062584234401583
1.7726343475569088e+18,12.68190869140625,0.0404489040374755,0.1809368133544922,0.0409604310989379,0.0551273860037326,0.3933485448360443,-0.0099868457764387
1.7726343475769024e+18,12.70190234375,0.043123722076416,0.060042381286621,-0.0662199258804321,0.0684431791305542,0.4450138509273529,-0.0057257916778326
1.7726343475968963e+18,12.721896240234376,-0.0096129179000854,0.0300893783569335,-0.1824030876159668,0.0751010775566101,0.4785696268081665,-0.0142478998750448
1.77263434761689e+18,12.74189013671875,-0.0824618339538574,0.0384140014648437,-0.2029361128807068,0.0668452829122543,0.4873580634593963,-0.0201068483293056
1.772634347636884e+18,12.761884033203126,-0.0124627351760864,0.027099609375,-0.1555957794189453,0.0636494979262352,0.4732433259487152,-0.019840532913804
1.7726343476568776e+18,12.781877685546876,0.0325291156768798,-0.0804367065429687,0.0127965807914733,0.0625842288136482,0.4700475335121155,-0.0304931681603193
1.7726343476768714e+18,12.801871337890624,-0.1152865886688232,0.0232563018798828,0.1236089468002319,0.0684431791305542,0.4535359442234039,-0.0307594835758209
1.7726343476968653e+18,12.821865234375,-0.0599181652069091,0.0842771530151367,0.2594519853591919,0.066046342253685,0.4181159436702728,-0.0355531685054302
1.7726343477168591e+18,12.841859130859374,0.0380761623382568,0.0929489135742187,0.4047656655311584,0.0567252822220325,0.3821632862091064,-0.0499342270195484
1.7726343477368527e+18,12.861852783203124,-0.121238112449646,0.1159095764160156,0.3604383468627929,0.0567252822220325,0.3432811796665191,-0.0446079112589359
1.7726343477568466e+18,12.8818466796875,-0.1092733144760131,0.0811386108398437,0.2697597146034241,0.0553937032818794,0.3153179883956909,-0.0102531611919403
1.7726343477768404e+18,12.90184033203125,-0.0277216434478759,0.0559873580932617,0.1658954620361328,0.0623179152607917,0.2942790389060974,0.0022636849898844
1.7726343477968343e+18,12.921834228515625,0.0178160667419433,-0.0125312805175781,0.0051058530807495,0.0496679134666919,0.3081274628639221,0.0067910552024841
1.772634347816828e+18,12.941827880859377,0.029802918434143,-0.0425615310668945,-0.0714947581291198,0.0382163301110267,0.3371559083461761,0.0027963167522102
1.7726343478368218e+18,12.96182177734375,0.0375714302062988,0.0521612167358398,-0.1395902633666992,0.0374173820018768,0.3470095992088318,-0.0193079020828008
1.7726343478568156e+18,12.981815673828123,-0.0158526897430419,0.1512966156005859,-0.2080621123313903,0.0406131707131862,0.3704454004764557,-0.016911057755351
1.7726343478768095e+18,13.0018095703125,0.0314149856567382,0.1311988830566406,-0.2984295487403869,0.0456731729209423,0.3906854093074798,-0.013715268112719
1.772634347896803e+18,13.021802978515623,0.0672066211700439,0.0778179168701171,-0.3408152461051941,0.0541952811181545,0.3970769643783569,-0.0382163301110267
1.772634347916797e+18,13.041796875,0.0034195184707641,0.0380449295043945,-0.2570496201515198,0.0688426569104194,0.3840275108814239,-0.0571247562766075
1.7726343479367908e+18,13.061790771484375,-0.025742769241333,0.0841598510742187,-0.2109536528587341,0.067777395248413,0.3707117140293121,-0.0667121261358261
1.7726343479567846e+18,13.08178466796875,0.0312656164169311,0.1021041870117187,-0.1826380491256714,0.0632500201463699,0.3557980060577392,-0.0709731802344322
1.7726343479767785e+18,13.101778564453124,-0.0010695457458496,0.1009378433227539,-0.1251900792121887,0.0555268600583076,0.3257043361663818,-0.0688426569104194
1.772634347996772e+18,13.121772216796876,-0.0379587411880493,0.0998744964599609,-0.1007439494132995,0.0523310713469982,0.2998716831207275,-0.0611194930970668
1.772634348016766e+18,13.141765869140626,0.0152223110198974,0.1225738525390625,-0.0988026857376098,0.0564589649438858,0.2721748352050781,-0.0502005442976951
1.7726343480367598e+18,13.161759765625,-0.01327645778656,0.1114530563354492,-0.1063225865364074,0.0567252822220325,0.2527337670326233,-0.0374173820018768
1.7726343480567537e+18,13.181753662109376,-0.0703709125518798,0.0293502807617187,-0.1347567439079284,0.0471379123628139,0.2386190295219421,-0.0310258008539676
1.7726343480767473e+18,13.201747314453126,-0.0735371112823486,0.0853195190429687,-0.1261010766029358,0.0431431718170642,0.2327600866556167,-0.0225036926567554
1.772634348096741e+18,13.2217412109375,0.0049128532409667,0.1708326339721679,-0.1235166788101196,0.0402136966586113,0.2213084995746612,-0.017710005864501
1.772634348116735e+18,13.24173486328125,0.006870150566101,0.0700826644897461,-0.1115002632141113,0.035420011729002,0.2087916433811187,-0.0123836882412433
1.7726343481367288e+18,13.261728759765624,-0.0190373659133911,-0.0120611190795898,-0.128173828125,0.035420011729002,0.1944105923175811,-0.0022636849898844
1.772634348156723e+18,13.281722900390625,-0.0405590534210205,0.0735607147216796,-0.1124094128608703,0.0412789620459079,0.1693768948316574,0.0027963167522102
1.7726343481767168e+18,13.301716796875,-0.0191458463668823,0.1538524627685547,-0.1258563995361328,0.0370179079473018,0.1525990068912506,-0.0035952643956989
1.7726343481967107e+18,13.321710693359377,-0.0195899009704589,0.1623830795288086,-0.2442502975463867,0.0300936941057443,0.1464737355709076,-0.0089215822517871
1.7726343482167045e+18,13.34170458984375,-0.0126440525054931,0.0132198333740234,-0.2734584808349609,0.0246342197060585,0.1440768986940384,-0.0121173728257417
1.7726343482366984e+18,13.361698486328123,0.0649605989456176,0.0276384353637695,-0.2007016539573669,0.0262321140617132,0.1331579387187957,-0.013715268112719
1.7726343482566922e+18,13.381692138671877,-0.0128459930419921,0.1750898361206054,-0.1882780194282531,0.02490053512156,0.1280979365110397,-0.0126500045880675
1.7726343482766863e+18,13.401686279296875,0.0081253051757812,0.1885957717895507,-0.2088150382041931,0.0235689561814069,0.1230379343032836,-0.0142478998750448
1.7726343482966802e+18,13.42168017578125,0.0004007816314697,0.1115999221801757,-0.1901249289512634,0.0230363234877586,0.1115863546729087,-0.0179763212800025
1.772634348316674e+18,13.441674072265624,-0.0425759553909301,-0.0136222839355468,-0.1742122173309326,0.0352868549525737,0.0913463458418846,-0.0166447423398494
1.772634348336668e+18,13.46166796875,-0.0274158716201782,0.0916805267333984,-0.1893765926361084,0.0424773842096328,0.0753673911094665,-0.0203731656074523
,,,,,-0.0022636849898844,0.0399473831057548,-0.0025300008710473
,,,,,0.0078563187271356,0.023169482126832,0.0075900023803114
,,,,,0.0161121115088462,0.0119842141866683,0.0123836882412433
,,,,,0.0147805316373705,-0.0034621064551174,0.0203731656074523
,,,,,0.0017310532275587,-0.0149136893451213,0.0334226414561271
,,,,,-0.0097205294296145,-0.0303600095212459,0.0238352715969085
