time,seconds_elapsed,accel_z,accel_y,accel_x,gyro_x,gyro_y,gyro_z
1772634145427416000,0.244416015625,0.0221085548400878,-0.0593585968017578,0.044816255569458,0.0175768472254276,-0.0394147485494613,-0.0163784269243478
1772634145447407900,0.264407958984375,0.1009032726287841,-0.1206560134887695,0.036738634109497,0.0205063223838806,-0.034621063619852,-0.0155794788151979
1772634145467399700,0.284399658203125,0.0740357637405395,0.0068464279174804,-0.0642669200897216,0.0117178987711668,-0.0442084372043609,-0.0270310621708631
1772634145487391500,0.3043916015625,0.0275657176971435,0.0527782440185546,-0.0287141799926757,0.0031957905739545,-0.042610540986061,-0.0491352789103984
1772634145507383300,0.32438330078125,0.0147360563278198,-0.0398063659667968,-0.0360720157623291,-0.0011984214652329,-0.0340884327888488,-0.0603205487132072
1772634145527375000,0.344375,-0.0971730947494506,-0.0051469802856445,-0.0539953708648681,0.00093210558407,-0.0511326491832733,-0.0707068666815757
1772634145547367000,0.364366943359375,-0.0853732824325561,0.1415767669677734,-0.0947742462158203,0.0067910552024841,-0.0841558203101158,-0.0861531868577003
1772634145567358700,0.384358642578125,-0.0455048084259033,0.1456012725830078,-0.1713128089904785,0.0262321140617132,-0.1589905768632888,-0.116779513657093
1772634145587350500,0.4043505859375,0.0549747943878173,0.163125991821289,-0.2215430736541748,0.0318247489631176,-0.1723063737154007,-0.1207742542028427
1772634145607341600,0.424341552734375,0.1103314161300659,0.1836194992065429,0.0346550941467285,0.0395479090511798,-0.2016011178493499,-0.1258342564105987
1772634145627332600,0.44433251953125,0.0230731964111328,0.0032596588134765,0.1979608535766601,0.0398142226040363,-0.212786391377449,-0.1364868879318237
1772634145647323400,0.464323486328125,-0.2638040781021118,-0.1291656494140625,0.0739614963531494,0.0298273786902427,-0.1794968992471695,-0.1103879362344741
1772634145667314400,0.484314453125,-0.0765258073806762,0.2534046173095703,-0.0301640033721923,0.0388821177184581,-0.1928126960992813,-0.0962731912732124
1772634145687305500,0.504305419921875,0.0766195058822631,0.3550615310668945,-0.1272118091583252,0.0452736988663673,-0.2055958658456802,-0.0973384529352188
1772634145707296300,0.524296142578125,0.0898126363754272,0.1336708068847656,-0.1884887218475341,0.0639158114790916,-0.2197106033563614,-0.1186437234282493
1772634145727287300,0.544287353515625,0.0946646928787231,0.0241317749023437,-0.0983791351318359,0.065247394144535,-0.2213084995746612,-0.1266331970691681
1772634145747278300,0.5642783203125,0.1487213373184204,0.1124000549316406,-0.0087709426879882,0.0402136966586113,-0.2026663869619369,-0.1508679538965225
1772634145767269400,0.584269287109375,0.024474024772644,0.1578588485717773,0.0217502117156982,-0.0045273699797689,-0.1131842508912086,-0.111719511449337
1772634145787260200,0.60426025390625,0.0012934207916259,-0.0377721786499023,0.0680787563323974,-0.0018642111681401,-0.10359688103199,-0.0752342343330383
1772634145807251200,0.624251220703125,-0.0051180124282836,-0.1559429168701172,0.05550217628479,0.0093210563063621,-0.1097221449017524,-0.0352868549525737
1772634145827242200,0.6442421875,-0.0152451992034912,-0.1037540435791015,0.0089917182922363,0.0103863198310136,-0.1342232078313827,0.0110521093010902
1772634145847233000,0.66423291015625,-0.1360454559326172,-0.0428724288940429,-0.0584056377410888,0.0106526352465152,-0.1571263670921325,0.0432763323187828
1772634145867224000,0.68422412109375,-0.0605542659759521,-0.0763778686523437,-0.1720380783081054,-0.0042610540986061,-0.1496695280075073,0.0451405420899391
1772634145887215000,0.704215087890625,0.3368078470230102,0.0492315292358398,-0.1147778034210205,-0.022370534017682,-0.1262337267398834,0.0043942118063569
1772634145907206100,0.7242060546875,0.2513794898986816,0.2995138168334961,-0.1363506317138672,-0.0197073742747306,-0.1067926660180091,-0.0611194930970668
1772634145927197000,0.744197021484375,0.2631537914276123,0.1645402908325195,-0.0481722354888916,0.0005326317623257,-0.0998684540390968,-0.0973384529352188
1772634145947188000,0.76418798828125,-0.4610050916671753,-0.0144119262695312,-0.0854427814483642,0.0159789528697729,-0.1105210930109024,-0.1133174076676368
1772634145967179000,0.784178955078125,-0.2113209962844848,-0.0400009155273437,-0.0476279258728027,-0.0998684540390968,-0.0002663158811628,-0.154063731431961
1772634145987170000,0.804170166015625,-0.0100544691085815,-0.1383895874023437,-0.347327709197998,-0.0814926624298095,-0.0631168633699417,-0.1966742724180221
1772634146007160800,0.824160888671875,0.0974515676498413,-0.1663370132446289,-0.2620012760162353,-0.0018642111681401,-0.1576589941978454,-0.160189002752304
1772634146027152000,0.84415185546875,-0.0415445566177368,-0.0707330703735351,-0.1885652542114257,0.1403484642505645,-0.3038664162158966,-0.0272973775863647
1772634146047143000,0.864142822265625,-0.0672055482864379,0.0730915069580078,-0.1777081489562988,0.2149169147014618,-0.3581948578357696,0.1266331970691681
1772634146067133700,0.8841337890625,-0.1404907703399658,0.0836553573608398,-0.1372363567352295,0.0085221081972122,-0.1539305746555328,-0.0315584316849708
1772634146087124700,0.904124755859375,-0.1577067375183105,0.0608797073364257,-0.1216583251953125,0.0338221155107021,-0.1805621683597564,-0.0472710691392421
1772634146107117800,0.924117919921875,-0.1082156896591186,-0.0195789337158203,-0.0880236625671386,0.0687095001339912,-0.2338253408670425,-0.050999492406845
1772634146127110700,0.944110595703125,-0.1295533180236816,-0.0521469116210937,-0.1258809566497802,0.0798947662115097,-0.2508695721626282,-0.0315584316849708
1772634146147103700,0.964103759765625,-0.0805497169494628,-0.023207664489746,-0.0940809249877929,0.0852210819721221,-0.2609895765781402,-0.017710005864501
1772634146167096800,0.984096923828125,-0.0964975357055664,0.0355987548828125,-0.0884561538696289,0.070840023458004,-0.2522011399269104,-0.0251668505370616
1772634146187089700,1.004089599609375,-0.0675177574157714,0.0897455215454101,-0.0115268230438232,0.0596547573804855,-0.2404832392930984,-0.0326236970722675
1772634146207082800,1.024082763671875,-0.145924687385559,0.1156644821166992,-0.0634350776672363,0.0561926513910293,-0.2356895506381988,-0.0358194857835769
1772634146227075800,1.044075927734375,-0.0900326967239379,0.1325130462646484,-0.0281324386596679,0.064182125031948,-0.2434127181768417,-0.0422110669314861
1772634146247068700,1.064068603515625,-0.0511502027511596,0.0208969116210937,-0.0146794319152832,0.0628505498170852,-0.2519348263740539,-0.0318247489631176
1772634146267061800,1.084061767578125,-0.0894814729690551,-0.0058774948120117,0.0329501628875732,0.0529968589544296,-0.2649843096733093,-0.02569948323071
1772634146287054800,1.104054931640625,-0.1494178771972656,0.0443077087402343,0.0615367889404296,0.045540016144514,-0.2623211443424225,-0.0304931681603193
1772634146307047700,1.124047607421875,-0.091677188873291,0.0753898620605468,0.1023952960968017,0.0308926422148942,-0.2506032586097717,-0.02490053512156
1772634146327040800,1.144040771484375,-0.0510485172271728,0.149815559387207,0.0957129001617431,0.023169482126832,-0.2524674534797668,-0.0126500045880675
1772634146347033900,1.164033935546875,-0.0779340267181396,0.0658693313598632,0.107759952545166,0.0290284305810928,-0.2631200850009918,-0.0270310621708631
1772634146367026700,1.184026611328125,-0.0600889921188354,0.0627288818359375,0.1123325824737548,0.0237021129578351,-0.2644516825675964,-0.0347542241215705
1772634146387019800,1.204019775390625,-0.0072991847991943,0.1416578292846679,0.0704667568206787,0.0050600017420947,-0.2530000805854797,-0.040080539882183
1772634146407012900,1.224012939453125,-0.0400600433349609,0.106903076171875,0.0708732604980468,-0.0170442163944244,-0.2351569235324859,-0.0472710691392421
1772634146427005700,1.244005615234375,0.0248684883117675,-0.039215087890625,0.0597021579742431,-0.0199736915528774,-0.2138516455888748,-0.0523310713469982
1772634146446998800,1.263998779296875,0.0210833549499511,-0.0764408111572265,0.0503044128417968,-0.0335558019578456,-0.1888179630041122,-0.0696416050195694
1772634146466991600,1.28399169921875,0.0196259021759033,-0.0198659896850585,-0.0022199153900146,-0.0468715950846672,-0.179230585694313,-0.0723047628998756
1772634146486984700,1.303984619140625,0.0106203556060791,0.0594825744628906,-0.1382026672363281,-0.0503337010741233,-0.1816274374723434,-0.0499342270195484
1772634146506977800,1.323977783203125,0.0553953647613525,0.0719118118286132,-0.1398169994354248,-0.0391484349966049,-0.1773663759231567,-0.0520647540688514
1772634146526970600,1.343970703125,0.0569746494293212,0.0363874435424804,-0.1556372642517089,-0.0300936941057443,-0.1688442677259445,-0.0715058147907257
1772634146546963700,1.363963623046875,0.0538538694381713,-0.0476245880126953,-0.2138946056365966,-0.0205063223838806,-0.1701758503913879,-0.0957405567169189
1772634146566956800,1.383956787109375,-0.015944480895996,-0.0700798034667968,-0.2149186134338379,0.002130527049303,-0.1760347932577133,-0.1114531978964805
1772634146586949600,1.40394970703125,-0.0290257930755615,-0.0050201416015625,-0.1059560775756836,0.0079894764348864,-0.2018674314022064,-0.1082574054598808
1772634146606942200,1.423942138671875,-0.0066096782684326,0.0289058685302734,-0.0434756278991699,0.017310531809926,-0.2399506121873855,-0.1018658280372619
1772634146626934800,1.443934814453125,-0.0365369319915771,0.1313772201538086,-0.018251895904541,0.049268439412117,-0.2798979878425598,-0.0914795026183128
1772634146646927400,1.46392724609375,-0.089383840560913,0.2065792083740234,0.0994977951049804,0.0924116075038909,-0.3049316704273224,-0.0890826657414436
1772634146666920000,1.483919921875,-0.099927544593811,0.1669235229492187,0.2616987228393554,0.1019989848136901,-0.3131874799728393,-0.0693752840161323
1772634146686912500,1.50391259765625,-0.1833016872406005,0.0957813262939453,0.2802364826202392,0.0956073999404907,-0.3206443190574646,-0.0384826436638832
1772634146706905000,1.523905029296875,-0.1927450895309448,0.0544595718383789,0.3470120429992676,0.0937431901693344,-0.3257043361663818,-0.0001331579405814
1772634146726897700,1.543897705078125,-0.2488460540771484,0.1013193130493164,0.3053364753723144,0.081758975982666,-0.3070622086524963,0.0113184247165918
1772634146746890200,1.56389013671875,-0.1640924215316772,0.1245222091674804,0.3509237766265869,0.0737695023417472,-0.2753706276416778,0.0102531611919403
1772634146766882800,1.5838828125,-0.1683968305587768,0.1880769729614257,0.3465502262115478,0.0719052851200103,-0.2482064068317413,0.0264984294772148
1772634146786875400,1.60387548828125,-0.1991536617279052,0.1318349838256836,0.2322382926940918,0.0745684504508972,-0.2170474380254745,0.0549942292273044
1772634146806868000,1.623867919921875,-0.1851226091384887,0.0455045700073242,0.263556957244873,0.0628505498170852,-0.1925463825464248,0.0789626613259315
1772634146826860500,1.643860595703125,-0.1504321098327636,0.0157585144042968,0.2389125823974609,0.0540621243417263,-0.1422126740217209,0.0922784507274627
1772634146846853000,1.66385302734375,-0.1014685630798339,0.0425624847412109,0.1637005805969238,0.0476705431938171,-0.1398158371448516,0.0595216006040573
1772634146866845700,1.683845703125,-0.1147576570510864,0.0831136703491211,0.1489982604980468,0.0308926422148942,-0.1190432012081146,0.0270310621708631
1772634146886838300,1.70383837890625,-0.0975316762924194,0.1235313415527343,0.1619369983673095,0.0119842141866683,-0.0972052961587905,0.0083889504894614
1772634146906830800,1.723830810546875,-0.0596667528152465,0.1204710006713867,0.1443066596984863,-0.0005326317623257,-0.0886831879615783,-0.0113184247165918
1772634146926823400,1.743823486328125,0.0164557695388793,0.1504373550415039,0.1039333343505859,-0.0010652635246515,-0.0884168744087219,-0.027830010280013
1772634146946816000,1.76381591796875,0.03892183303833,0.1433677673339843,0.1037111282348632,-0.0039947382174432,-0.0769652873277664,-0.0406131707131862
1772634146966808600,1.78380859375,0.0224812030792236,0.0608634948730468,0.0815768241882324,-0.0165115855634212,-0.0625842288136482,-0.0475373864173889
1772634146986801200,1.80380126953125,0.0625808238983154,0.006291389465332,0.0305178165435791,-0.0298273786902427,-0.0620516017079353,-0.0581900216639041
1772634147006793700,1.823793701171875,0.0576658248901367,0.0665769577026367,-0.0459771156311035,-0.0322242230176925,-0.0516652800142765,-0.0608531795442104
1772634147026786300,1.843786376953125,0.0448687076568603,0.0888242721557617,-0.2510387897491455,-0.0319579057395458,-0.0386158041656017,-0.0515321232378482
1772634147046779000,1.86377880859375,0.091953158378601,-0.0183343887329101,-0.312108039855957,-0.0311589576303958,-0.0314252749085426,-0.0392815917730331
1772634147066771500,1.883771484375,-0.0009169578552246,-0.1067180633544921,-0.2969210147857666,-0.0245010610669851,-0.0332894846796989,-0.03715106472373
1772634147086764000,1.903763916015625,0.0308508872985839,-0.0666589736938476,-0.1990833282470703,-0.0292947478592395,-0.0436758026480674,-0.0419447496533393
1772634147106755600,1.923755615234375,-0.0936964750289917,-0.0606288909912109,-0.2500865459442138,-0.0380831696093082,-0.0716389715671539,-0.043010015040636
1772634147126747000,1.943746826171875,-0.189896821975708,-0.1451711654663086,-0.2960143089294433,-0.013315794058144,-0.1049284562468528,-0.0318247489631176
1772634147146738200,1.96373828125,-0.1534631252288818,-0.0811624526977539,-0.1306426525115966,0.0093210563063621,-0.1379516273736953,-0.0288952738046646
1772634147166729500,1.9837294921875,-0.2440091967582702,0.0019731521606445,-0.0642049312591552,0.0167779009789228,-0.1672463715076446,-0.0358194857835769
1772634147186720800,2.003720703125,-0.3801390528678894,-0.029733657836914,-0.0635151863098144,0.023169482126832,-0.2005358636379242,-0.0464721210300922
1772634147206712300,2.02371240234375,-0.3811306357383728,-0.0619258880615234,0.0424640178680419,0.025300009176135,-0.1984053254127502,-0.0395479090511798
1772634147226703600,2.04370361328125,-0.5114143490791321,0.0265235900878906,-0.0022962093353271,0.0330231711268425,-0.2103895395994186,-0.0344879068434238
1772634147246695000,2.06369482421875,-0.4881659746170044,0.001723289489746,-0.0522346496582031,0.0545947551727294,-0.2322274446487426,-0.0264984294772148
1772634147266686200,2.083686279296875,-0.3639379143714905,-0.0805540084838867,-0.1216518878936767,0.0743021294474601,-0.2372874468564987,-0.0179763212800025
1772634147286677800,2.103677734375,-0.3993767499923706,-0.182861328125,-0.2948362827301025,0.0833568722009658,-0.2194442898035049,-0.0190415848046541
1772634147306669000,2.1236689453125,-0.4278023242950439,-0.1910181045532226,-0.3735334873199463,0.0743021294474601,-0.174170583486557,-0.0174436904489994
1772634147326660400,2.143660400390625,-0.3692112565040588,-0.1818504333496093,-0.4037113189697265,0.0487358048558235,-0.1099884584546089,-0.0003994738217443
1772634147346651600,2.163651611328125,-0.3797925114631653,-0.1826200485229492,-0.4661376476287842,0.0343547500669956,-0.0953410863876342,0.0025300008710473
1772634147366643200,2.183643310546875,-0.3935021758079529,-0.2801551818847656,-0.4709129333496094,0.0487358048558235,-0.1086568832397461,-0.0118510564789175
1772634147386634500,2.203634521484375,-0.3765369057655334,-0.3262262344360351,-0.409132719039917,0.066046342253685,-0.1131842508912086,-0.0243679024279117
1772634147406625800,2.223625732421875,-0.4011003971099853,-0.1175041198730468,-0.3535315990447998,0.0737695023417472,-0.1312937289476394,-0.0387489609420299
1772634147426617000,2.2436171875,-0.3203845620155334,-0.0065221786499023,-0.3166384696960449,0.0716389715671539,-0.1640505790710449,-0.0525973848998546
1772634147446608600,2.263608642578125,-0.2266066074371338,-0.0606279373168945,-0.29561448097229,0.0756337121129036,-0.206661120057106,-0.073370024561882
1772634147466600000,2.283599853515625,-0.1458677053451538,-0.0657358169555664,-0.208428144454956,0.1046621426939964,-0.2484727203845977,-0.0778973922133445
1772634147486591200,2.30359130859375,-0.1149619817733764,0.0680980682373046,-0.1906163692474365,0.1123853027820587,-0.2732400894165039,-0.0608531795442104
1772634147506582500,2.32358251953125,0.1576514244079589,0.1988945007324218,-0.081446886062622,0.1078579351305961,-0.281229555606842,-0.0272973775863647
1772634147526573800,2.34357373046875,0.0566189289093017,0.3713054656982422,0.2616529464721679,0.1211737245321273,-0.2884201109409332,0.0118510564789175
1772634147546565400,2.3635654296875,-0.1837197542190551,0.7594919204711914,0.4308092594146728,0.147805318236351,-0.3289000988006592,0.0483363308012485
1772634147566556700,2.383556640625,-0.1029250621795654,1.1635003089904783,0.4518885612487793,0.1856221705675125,-0.3781685531139374,0.0653805509209632
1772634147586548000,2.4035478515625,-0.0331177711486816,1.337496280670166,0.2219748497009277,0.2154495418071746,-0.4183822572231293,0.0978710874915123
1772634147606539500,2.42353955078125,0.3767945766448974,0.7752618789672852,-0.0266621112823486,0.2884201109409332,-0.4620580673217773,0.1210405677556991
1772634147626530800,2.44353076171875,0.7088701725006104,-0.4288663864135742,0.0814924240112304,0.2713758945465088,-0.5075980424880981,0.1111868768930435
1772634147646522400,2.4635224609375,0.8411604166030884,-1.5754823684692385,-0.1212451457977294,0.1992042809724807,-0.4849612116813659,0.110920563340187
1772634147666513700,2.483513671875,1.4170575141906738,-2.068556785583496,-0.5587999820709229,0.1182442530989646,-0.4010717272758484,0.1242363601922988
1772634147686505200,2.503505126953125,1.539103388786316,-1.8719682693481443,-0.8277080059051514,0.0564589649438858,-0.2585927248001098,0.1727058440446853
1772634147706496500,2.52349658203125,1.552916169166565,-1.3030872344970703,-1.0344769954681396,0.0607200190424919,-0.1147821471095085,0.2334258705377578
1772634147726488000,2.543488037109375,1.2534760236740112,-0.7514524459838867,-1.1010892391204834,0.0687095001339912,-0.0460726469755172,0.2523342967033386
1772634147746479400,2.563479248046875,1.111186981201172,-0.4634695053100586,-0.8066079616546631,0.1051947697997093,-0.0428768582642078,0.2544648349285126
1772634147766471000,2.583470947265625,0.316632866859436,0.2629566192626953,-0.5632853507995605,0.1938779652118683,-0.1265000402927398,0.2491385042667389
1772634147786462200,2.603462158203125,0.0591408014297485,1.0124435424804688,-0.795189619064331,0.2908169329166412,-0.229564294219017,0.2217079699039459
1772634147806453800,2.623453857421875,0.4408817291259765,1.3129839897155762,-0.6694514751434326,0.3984085619449615,-0.3675159215927124,0.1591237336397171
1772634147826445300,2.6434453125,0.3264257907867431,1.1700186729431152,-0.7195520401000977,0.4705801606178283,-0.4985433220863342,0.0581900216639041
1772634147846436600,2.6634365234375,0.2144666910171508,0.7792644500732422,-1.0005409717559814,0.4958801567554474,-0.6671212911605835,-0.111719511449337
1772634147866428200,2.68342822265625,0.2238653898239135,0.4315500259399414,-0.9451489448547364,0.3882885575294494,-0.7531412839889526,-0.1988048106431961
1772634147886419500,2.70341943359375,0.340505838394165,0.3295106887817383,-0.6630935668945312,0.2657832503318786,-0.6287717819213867,-0.2259690314531326
1772634147906411000,2.723410888671875,0.2394690513610839,0.3759174346923828,-0.6821329593658447,0.2149169147014618,-0.5225117802619934,-0.1902827024459839
1772634147926402300,2.74340234375,0.4168926477432251,0.4023065567016601,-0.8177320957183838,0.1408811062574386,-0.4122569859027862,-0.1402153074741363
1772634147946393900,2.763393798828125,0.8406716585159302,0.2206401824951172,-0.8500051498413086,0.0748347640037536,-0.3352916836738586,-0.1271658390760421
1772634147966385200,2.78338525390625,0.6808451414108276,0.1143531799316406,-1.1571314334869385,-0.0010652635246515,-0.2825611531734466,-0.1575258374214172
1772634147986376700,2.803376708984375,0.6713734865188599,0.1918907165527343,-1.489426851272583,-0.0972052961587905,-0.2093242853879928,-0.2049300670623779
1772634148006368000,2.823367919921875,0.9127548933029176,0.2230777740478515,-1.5520334243774414,-0.1392832100391388,-0.1805621683597564,-0.2510027289390564
1772634148026359600,2.843359619140625,1.1174830198287964,0.2001056671142578,-1.3205044269561768,-0.1611211150884628,-0.1520663648843765,-0.2776342928409576
1772634148046350800,2.863350830078125,1.2829842567443848,0.2597131729125976,-0.9611711502075196,-0.217846393585205,-0.1089231967926025,-0.2757700979709625
1772634148066342400,2.88334228515625,1.4976272583007812,0.3956422805786133,-0.6708500385284424,-0.2322274446487426,-0.0825579240918159,-0.2488721907138824
1772634148086334000,2.903333984375,1.5057114362716677,0.4314527511596679,-0.8036351203918457,-0.2141179740428924,-0.0849547684192657,-0.2065279632806778
1772634148106326800,2.923326904296875,1.2251814603805542,0.3669519424438476,-1.1607637405395508,-0.1771000623703003,-0.1041295081377029,-0.1599226891994476
1772634148126319900,2.94331982421875,1.7769125699996948,0.0133037567138671,-1.460466384887695,-0.1414137333631515,-0.0940095037221908,-0.0997352972626686
1772634148146313000,2.96331298828125,1.646682858467102,-1.2809906005859375,-1.0085740089416504,-0.1342232078313827,-0.0567252822220325,-0.0312921144068241
1772634148166306000,2.98330615234375,1.1856011152267456,-3.3351926803588867,1.50675368309021,-0.1944105923175811,0.0154463211074471,0.0161121115088462
1772634148186299000,3.003298828125,0.5626693964004517,-3.2058115005493164,3.6952292919158936,-0.2412821948528289,0.1531316339969635,0.0470047518610954
1772634148206292000,3.0232919921875,0.1072648763656616,0.1743707656860351,3.077937602996826,-0.1179779320955276,0.38189697265625,0.095207929611206
1772634148226285000,3.04328515625,0.38583505153656,3.0091233253479004,0.5289332866668701,0.0154463211074471,0.5225117802619934,0.0760331824421882
1772634148246278100,3.063278076171875,0.0940014123916626,2.8666529655456543,-0.5411674976348877,0.10359688103199,0.5571328401565552,-0.1548626869916916
1772634148266271200,3.083271240234375,-0.7589465379714966,0.8448724746704102,-0.6324324607849121,-0.0482031740248203,0.4269043505191803,-0.315717488527298
1772634148286264300,3.103264404296875,-1.2432963848114014,-1.4648218154907229,-0.4791767597198486,-0.1539305746555328,0.5115928053855896,-0.1796300560235977
1772634148306257400,3.12325732421875,-1.3928202390670776,-2.178029060363769,0.6978418827056885,-0.1621863692998886,0.7720497250556946,0.150068998336792
1772634148326250200,3.143250244140625,-1.1965080499649048,-0.7219219207763672,1.9072003364562988,-0.2037316560745239,0.8354329466819763,0.3005374670028686
1772634148346243300,3.163243408203125,-1.639674186706543,0.953665256500244,2.0079333782196045,-0.1818937510251999,0.6530065536499023,0.2179795503616333
1772634148366236400,3.183236328125,-1.8726277351379397,1.227149486541748,1.430577039718628,-0.1488705724477768,0.3882885575294494,-0.0070573706179857
1772634148386229500,3.2032294921875,-1.6209508180618286,0.1495809555053711,0.162611722946167,-0.1257010996341705,0.1933453232049942,-0.260856419801712
1772634148406222600,3.22322265625,-0.900984525680542,-1.342970848083496,-0.5720686912536621,-0.1414137333631515,0.2071937620639801,-0.4342280328273773
1772634148426215700,3.243215576171875,-0.5515049695968628,-1.604954719543457,-0.7230665683746338,-0.2428800761699676,0.5097286105155945,-0.4672512114048004
1772634148446208500,3.26320849609375,-0.646885335445404,-0.6510171890258789,-1.106478214263916,-0.4460791051387787,0.9033434391021729,-0.3207774758338928
1772634148466201600,3.28320166015625,-0.5041875839233398,0.4981594085693359,-1.434739112854004,-0.5960149168968201,1.04928457736969,-0.0837563425302505
1772634148486194700,3.303194580078125,-0.1565490961074829,0.969594955444336,-1.3317220211029053,-0.6250433921813965,0.9422255754470824,-0.0019973691087216
1772634148506187800,3.323187744140625,-0.260574996471405,0.5520496368408203,-1.2880492210388184,-0.5946833491325378,0.8080024123191833,-0.139416366815567
1772634148526180900,3.343180908203125,-0.2669265866279602,-0.0076169967651367,-1.2374107837677002,-0.5888243913650513,0.755271852016449,-0.336490124464035
1772634148546174000,3.363174072265625,-0.4052468538284302,-0.2560501098632812,-1.3805887699127195,-0.5291696786880493,0.6756433844566345,-0.5024049282073975
1772634148566167000,3.3831669921875,-0.4384751915931701,-0.2242059707641601,-1.822737455368042,-0.4253064692020416,0.549143373966217,-0.5996102094650269
1772634148586159900,3.403159912109375,-0.3075906634330749,-0.0181655883789062,-2.320633172988892,-0.3366232812404632,0.4157190918922424,-0.6147902011871338
1772634148606151400,3.4231513671875,-0.1808858513832092,-0.0164928436279296,-2.435948371887207,-0.234091654419899,0.3387537896633148,-0.580169141292572
1772634148626143000,3.44314306640625,-0.0456269979476928,-0.1887063980102539,-2.099006414413452,-0.1747032105922699,0.3334274888038635,-0.5202480554580688
1772634148646134300,3.46313427734375,-0.1889292001724243,-0.5740823745727539,-1.200519323348999,-0.1171789914369583,0.3283674716949463,-0.4427501559257507
1772634148666125800,3.483125732421875,-0.9754604697227478,-0.9779529571533204,-0.5767416954040527,-0.0170442163944244,0.3278348445892334,-0.3330280184745788
1772634148686117000,3.5031171875,-1.242302179336548,-1.1366071701049805,-1.0152618885040283,0.0537958070635795,0.3249053657054901,-0.2336921840906143
1772634148706108700,3.523108642578125,-0.9465488195419312,-1.044175148010254,-2.1548168659210205,0.092677928507328,0.3749727606773376,-0.1748363822698593
1772634148726100000,3.543099853515625,-0.8738152384757996,-0.6225957870483398,-3.339561462402344,0.0788294970989227,0.4287685751914978,-0.2097237557172775
1772634148746091500,3.563091552734375,-1.074748158454895,-0.3253993988037109,-4.0563483238220215,-0.0055926335044205,0.4554001688957214,-0.2454100847244262
1772634148766082800,3.583082763671875,-0.9965469241142272,-0.3993844985961914,-3.300755023956299,-0.0471379123628139,0.4431496262550354,-0.1553953140974044
1772634148786074000,3.60307421875,0.2808196544647217,-0.4109392166137695,-0.6629683971405029,-0.0474042259156703,0.2783001065254211,0.0336889587342739
1772634148806065700,3.623065673828125,-0.6338663101196289,-0.3194580078125,0.2777061462402344,-0.0138484258204698,0.0330231711268425,0.2062616497278213
1772634148826057000,3.643056884765625,-0.5808078646659851,-0.2063760757446289,-0.5583789348602295,-0.2143842875957489,-0.1757684797048568,0.2768353521823883
1772634148846048500,3.663048583984375,-0.3210277557373047,0.2269163131713867,0.5735011100769043,-0.3882885575294494,-0.0833568722009658,0.3234406411647796
1772634148866039800,3.683039794921875,0.2395805120468139,0.2044210433959961,3.171336889266968,-0.2026663869619369,-0.6948181390762329,0.7671229243278503
1772634148886031400,3.70303125,1.2340798377990725,-1.2234535217285156,4.665728092193604,-0.0604537054896354,-0.8697876930236816,0.978577733039856
1772634148906022700,3.723022705078125,1.347792625427246,-3.693391799926758,4.253479480743408,-0.0287621151655912,-0.8114644885063171,1.0938924551010132
1772634148926014200,3.74301416015625,0.4933751821517944,-4.52400016784668,2.459845542907715,0.0772316083312034,-0.3739075064659118,1.1450251340866089
1772634148946005500,3.763005615234375,1.1979382038116455,-2.753512382507324,0.7515437602996826,0.2338253408670425,-0.1691105812788009,1.0829734802246094
1772634148965996800,3.782996826171875,1.9095255136489868,-1.1519298553466797,-0.2773218154907226,0.2663158774375915,-0.2423474490642547,0.7428881525993347
1772634148985988400,3.80298828125,1.3680325746536257,-0.2333621978759765,-0.6140346527099609,0.2652506232261657,-0.3573959171772003,0.3841606676578522
1772634149005979600,3.822979736328125,0.6113437414169312,0.7282094955444336,-0.1649396419525146,0.4016043543815613,-0.6948181390762329,0.2238384932279586
1772634149025971200,3.84297119140625,0.3738470077514648,1.0162010192871094,0.4496376514434814,0.5877591371536255,-1.0141308307647705,0.1977395415306091
1772634149045962500,3.86296240234375,-0.3217590451240539,0.8326539993286133,0.7404994964599609,0.7755118608474731,-1.178447723388672,0.4238417148590088
1772634149065954000,3.8829541015625,-0.4538872838020324,0.4009008407592773,0.8953490257263184,0.7773760557174683,-1.0498172044754028,0.4949480593204498
1772634149085945300,3.9029453125,0.0173838138580322,1.0130548477172852,0.889639139175415,0.6745781302452087,-0.7680550217628479,0.4384891092777252
1772634149105937700,3.922937744140625,-0.8997540473937988,2.532668113708496,0.4818458557128906,0.5800359845161438,-0.6319676041603088,0.2432795614004135
1772634149125930000,3.942929931640625,-0.7387596368789673,3.282313823699951,0.021585464477539,0.4532696306705475,-0.7233139276504517,0.0643152818083763
1772634149145922300,3.96292236328125,-0.1894756555557251,3.4391870498657227,-0.3988308906555176,0.2330264002084732,-0.5339633226394653,-0.1154479309916496
1772634149165914400,3.982914306640625,0.2011159658432006,2.51626968383789,-0.7496635913848877,0.0348873808979988,-0.4476769864559173,-0.2177132368087768
1772634149185906700,4.00290673828125,0.8167252540588379,1.432455062866211,-1.4967947006225586,-0.1398158371448516,-0.4767054319381714,-0.2829606235027313
1772634149205899000,4.02289892578125,1.1696871519088743,0.9419441223144532,-2.506138324737549,-0.234091654419899,-0.4604601562023163,-0.3580617010593414
1772634149225891300,4.042891357421875,0.838315486907959,1.0204544067382812,-2.9643616676330566,-0.2455432415008545,-0.3906854093074798,-0.370045930147171
1772634149245883600,4.062883544921875,0.9344404935836792,0.6691665649414062,-2.097135066986084,-0.1813611090183258,-0.4378232955932617,-0.2789658904075622
1772634149265876000,4.0828759765625,1.1853245496749878,0.0293703079223632,0.1928029060363769,-0.0545947551727294,-0.5611275434494019,-0.1468732059001922
1772634149285868300,4.102868408203125,0.3546165227890014,-0.5403709411621094,2.430082082748413,0.1491369009017944,-0.5869601964950562,-0.0664458125829696
1772634149305860600,4.122860595703125,-0.4154742956161499,-1.0102462768554688,1.907123327255249,0.1922800689935684,-0.6873612999916077,-0.1138500422239303
1772634149325853000,4.14285302734375,0.39007568359375,-0.4302024841308594,-1.275639295578003,0.1163800433278083,-0.6841654777526855,-0.2134521752595901
1772634149345845000,4.162844970703125,1.9561028480529783,0.5873298645019531,-3.7911629676818848,-0.081758975982666,-0.2806969285011291,0.0536626502871513
1772634149365837300,4.18283740234375,3.2688236236572266,-0.6758098602294922,-3.4626145362854004,-0.1717737466096878,0.223439022898674,0.5623259544372559
1772634149385829600,4.20282958984375,2.7385263442993164,-6.875185012817383,2.240583896636963,0.0521979108452796,0.614923357963562,0.9197219014167786
1772634149405822000,4.222822021484375,-1.123341083526611,-9.060678482055664,8.426236152648926,0.8245139718055725,0.5206475257873535,0.8752471208572388
1772634149425814300,4.242814208984375,-2.4187798500061035,0.2788305282592773,6.791292190551758,0.8940224051475525,-0.0713726580142974,0.008655265904963
1772634149445806600,4.262806640625,-1.295071363449097,7.459927082061768,2.672686815261841,0.2836264073848724,-0.4008054137229919,-0.8835029602050781
1772634149465799000,4.282798828125,-2.370779275894165,6.051590919494629,1.3561749458312988,0.1725726872682571,0.1627189964056015,-0.6776407361030579
1772634149485791200,4.302791259765625,-1.2895865440368652,1.0625648498535156,1.2698357105255127,0.2114548087120056,0.7262434363365173,-0.1034637168049812
1772634149505783600,4.322783447265625,-0.994613528251648,-2.0429811477661133,0.2256567478179931,0.1296958327293396,0.6343644261360168,0.1034637168049812
1772634149525776000,4.34277587890625,-0.9014004468917848,-2.100644111633301,0.3278079032897949,0.1286305636167526,0.4737759530544281,0.0573910735547542
1772634149545768000,4.362767822265625,-1.696305751800537,0.3706026077270508,1.0612080097198486,-0.022370534017682,0.4077296257019043,0.0973384529352188
1772634149565760300,4.38276025390625,-2.095075845718384,1.4644851684570312,1.5666611194610596,-0.2394179701805114,0.5286370515823364,0.0723047628998756
1772634149585752600,4.402752685546875,-1.7659238576889038,-0.262451171875,1.4378597736358645,-0.4471443593502044,0.7635276317596436,0.0126500045880675
1772634149605745200,4.4227451171875,-1.3888462781906128,-2.510417938232422,-0.0644347667694091,-0.600275993347168,0.9243824481964112,-0.2478069216012954
1772634149625738000,4.442738037109375,-0.8616030216217041,-1.739458084106445,-1.2134950160980225,-0.6740455031394958,1.0780466794967651,-0.3836280405521393
1772634149645730600,4.46273046875,-0.0638296604156494,0.9876632690429688,-1.166466474533081,-0.7235802412033081,1.1619361639022827,-0.1713742762804031
1772634149665723400,4.482723388671875,-0.0270287990570068,1.8136987686157229,-0.4246509075164795,-0.6620612740516663,1.0428929328918457,0.0368847511708736
1772634149685716000,4.502716064453125,-0.3767862915992737,1.3872919082641602,-0.1937496662139892,-0.5038696527481079,0.7392928600311279,-0.1050616130232811
1772634149705708500,4.52270849609375,-0.3764057755470276,0.5076169967651367,-1.0742738246917725,-0.3829622268676758,0.4663191139698028,-0.5460807085037231
1772634149725701000,4.542701171875,-0.4574467539787292,-0.3534431457519531,-1.7932076454162598,-0.2870885133743286,0.4010717272758484,-0.8603334426879883
1772634149745694000,4.56269384765625,-0.5770924687385559,-0.3102188110351562,-1.5402467250823977,-0.1856221705675125,0.4285022616386413,-0.6941523551940918
1772634149765686500,4.5826865234375,-0.654640257358551,0.6036386489868164,-1.8026726245880127,-0.1510011106729507,0.4045338332653045,-0.4235754013061523
1772634149785679000,4.60267919921875,-0.6597781777381897,1.1687064170837402,-2.266563892364502,-0.147805318236351,0.3235737979412079,-0.3697795867919922
1772634149805672000,4.622671875,-0.2797517776489258,1.1092634201049805,-1.9236199855804443,-0.1163800433278083,0.3142527341842651,-0.4033353924751282
1772634149825664500,4.64266455078125,-0.255117654800415,0.6549692153930664,-0.855571985244751,-0.0633831769227981,0.3526022136211395,-0.422776460647583
1772634149845657300,4.6626572265625,-0.8553872108459473,-0.3150777816772461,-0.3020937442779541,-0.0085221081972122,0.415452778339386,-0.4342280328273773
1772634149865650000,4.68264990234375,-1.0120372772216797,-1.0952138900756836,-0.6463930606842041,-0.019441058859229,0.4519380629062652,-0.437423825263977
1772634149885642500,4.702642578125,-0.9897491931915284,-0.7151784896850586,-1.8333759307861328,-0.0751010775566101,0.4221106767654419,-0.4134553968906402
1772634149905635000,4.722635009765625,-1.0258417129516602,0.2809896469116211,-3.285509824752808,-0.0924116075038909,0.3491401076316833,-0.3045322000980377
1772634149925628000,4.7426279296875,-1.2614234685897827,0.3891744613647461,-3.7161054611206055,-0.1113200411200523,0.2024000734090805,-0.1013331934809684
1772634149965613300,4.78261328125,0.4679247140884399,-0.4122428894042969,0.9984354972839355,-0.1507347822189331,0.0154463211074471,0.122638463973999
1772634149985606000,4.80260595703125,-0.4086724519729614,-1.143265724182129,0.5828094482421875,-0.4135885536670685,-0.0852210819721221,0.2446111440658569
1772634150005598500,4.822598388671875,-0.47858726978302,-1.4706954956054688,0.7370944023132324,-0.425572782754898,0.0753673911094665,0.3990743458271026
1772634150025591300,4.84259130859375,-0.1136884689331054,-0.983372688293457,2.4889063835144043,-0.4306327700614929,-0.3459443151950836,0.7303712964057922
1772634150045584000,4.862583984375,1.57432222366333,-0.9045476913452148,3.7699978351593018,-0.1816274374723434,-0.5861612558364868,1.022519826889038
1772634150065576400,4.882576416015625,1.7843602895736694,-2.2551345825195312,4.267937660217285,-0.1922800689935684,-0.7531412839889526,1.107208251953125
1772634150085569300,4.9025693359375,1.2893517017364502,-3.637022018432617,2.6717774868011475,-0.1078579351305961,-0.5265064835548401,1.104811429977417
1772634150105561900,4.922561767578125,1.7375760078430176,-4.078496932983398,1.243173599243164,0.0841558203101158,-0.3131874799728393,1.0390313863754272
1772634150125554700,4.9425546875,1.583842396736145,-2.64534854888916,-0.0609309673309326,0.2255695462226867,-0.2737727165222168,0.7356976270675659
1772634150145547500,4.962547607421875,0.8724312782287598,-0.4349832534790039,-1.313074827194214,0.3518032729625702,-0.3696464300155639,0.3444795906543731
1772634150165540400,4.982540283203125,0.5215370655059814,1.352323055267334,-1.282071828842163,0.5121254324913025,-0.74248868227005,0.1093226671218872
1772634150185533200,5.002533203125,0.1978131532669067,1.986292839050293,-0.7130563259124756,0.6119939088821411,-1.0386319160461426,0.13835109770298
1772634150205526000,5.022526123046875,-0.0262479782104492,1.6786317825317385,-0.3019168376922607,0.6402233839035034,-1.1233203411102295,0.2874879837036133
1772634150225518800,5.042518798828125,-0.2702312469482422,1.2837648391723633,0.1408467292785644,0.6612623333930969,-1.1768498420715332,0.3990743458271026
1772634150245511700,5.06251171875,-0.7001370191574097,1.8678884506225584,0.0795004367828369,0.6719149947166443,-1.143294095993042,0.3857585489749908
1772634150265504500,5.08250439453125,-0.4399375319480896,3.180348396301269,-0.2804319858551025,0.6660560369491577,-1.1094719171524048,0.2286321818828582
1772634150285497300,5.102497314453125,-0.441254198551178,4.038484573364258,-0.3910472393035888,0.5360938906669617,-1.0282455682754517,0.0334226414561271
1772634150305490200,5.122490234375,-0.0793077945709228,3.787879943847656,-0.176020860671997,0.3531348705291748,-0.900413990020752,-0.0403468571603298
1772634150325483000,5.14248291015625,0.6914597749710083,2.5340914726257324,-0.0250756740570068,0.1600558459758758,-0.8032087087631226,-0.0541952811181545
1772634150345475800,5.162475830078125,0.883649468421936,1.0534000396728516,-0.7363455295562744,-0.002130527049303,-0.6045370697975159,-0.0970721393823623
1772634150365468700,5.18246875,0.7925279140472412,0.0880441665649414,-1.946765422821045,-0.1094558238983154,-0.4841622710227966,-0.1929458528757095
1772634150385461500,5.20246142578125,0.779977560043335,-0.4551982879638672,-1.898141622543335,-0.179230585694313,-0.4500738382339477,-0.2880206108093261
1772634150405454300,5.222454345703125,1.000123143196106,-0.6544227600097656,0.2763144969940185,-0.2119874358177185,-0.3243727385997772,-0.2723079919815063
1772634150425447200,5.242447265625,1.2312380075454712,-0.4614086151123047,3.2982218265533447,-0.2034653276205063,-0.2303632348775863,-0.1101216152310371
1772634150445440000,5.26243994140625,0.4827228784561157,-0.6484336853027344,3.2710447311401367,-0.0774979218840599,-0.0743021294474601,0.0222373753786087
1772634150465432800,5.282432861328125,0.2630188465118408,-0.1395521163940429,-0.7143523693084717,0.0053263176232576,-0.0719052851200103,-0.1029310896992683
1772634150485425700,5.30242578125,1.4126410484313965,0.6396884918212891,-4.05662202835083,0.0428768582642078,-0.3318295776844024,-0.3918838202953338
1772634150505418500,5.32241845703125,4.439434051513672,-1.7298269271850586,-2.6472134590148926,-0.1435442566871643,-0.0812263414263725,-0.2898848354816437
1772634150525411300,5.342411376953125,2.376408338546753,-8.458014488220215,4.160135269165039,-0.2724411487579345,0.6436854600906372,0.2462090253829956
1772634150545404200,5.362404052734375,-1.8070225715637207,-7.153386116027832,7.297858238220215,0.0367515906691551,1.2002856731414795,0.7998797297477722
1772634150565397000,5.38239697265625,-1.762714385986328,3.0924839973449707,3.6850855350494394,0.9568729400634766,0.8018771409988403,0.8166576623916626
1772634150585389800,5.402389892578125,-1.496547818183899,8.249375343322754,0.4239406585693359,0.7590002417564392,0.1523326784372329,0.0392815917730331
1772634150605380900,5.422380859375,-2.4625959396362305,5.625008583068848,0.6976239681243896,0.197073757648468,-0.3073285222053528,-0.586294412612915
1772634150625372200,5.4423720703125,-0.914953351020813,-0.0854005813598632,0.6485369205474854,0.0564589649438858,0.1422126740217209,-0.3370227515697479
1772634150645363500,5.462363525390625,-1.0373892784118652,-4.408626556396484,0.685051441192627,-0.0511326491832733,0.4095938205718994,-0.0323573797941207
1772634150665354500,5.4823544921875,-0.9090228080749512,-3.88901424407959,1.9778215885162356,-0.0298273786902427,0.3355579972267151,-0.0310258008539676
1772634150685345800,5.502345703125,-1.2891480922698977,0.5865345001220703,2.0205202102661133,0.1632516384124755,0.4466117322444916,0.011584741063416
1772634150705337000,5.522337158203125,-1.1088355779647827,2.3133544921875,1.2547476291656494,0.0458063334226608,0.4165180325508117,0.0121173728257417
1772634150725328100,5.542328125,-0.8589945435523987,-0.3066310882568359,0.6320760250091553,-0.2074600756168365,0.4460791051387787,-0.1567268967628479
1772634150745319400,5.5623193359375,-1.265974760055542,-2.304651260375977,-0.4356632232666015,-0.4106590747833252,0.6466149687767029,-0.1918805986642837
1772634150765310500,5.582310546875,-0.8535634279251099,-0.6249380111694336,-0.7727572917938232,-0.4720448851585388,0.7022749781608582,-0.2954774796962738
1772634150785301800,5.6023017578125,-0.3283060789108276,1.413835048675537,-0.2369847297668457,-0.544216513633728,0.7597991824150085,-0.3380880057811737
1772634150805293000,5.62229296875,-0.6570056676864624,1.9456520080566408,0.3663315773010254,-0.6677870750427246,0.8551402688026428,-0.1639174222946167
1772634150825284000,5.6422841796875,-1.001038908958435,1.885399341583252,-0.1114017963409423,-0.5556681156158447,0.7688539624214172,-0.1335574090480804
1772634150845275400,5.662275390625,-0.6882036328315735,1.1329245567321775,-1.4350345134735107,-0.3905522525310516,0.5400885939598083,-0.4619249105453491
1772634150865266400,5.682266357421875,-0.6285796165466309,0.4270620346069336,-2.173999309539795,-0.3633880317211151,0.4394212067127228,-0.8984166383743286
1772634150885257700,5.7022578125,-0.528353214263916,0.1690502166748047,-1.94046688079834,-0.3130543231964111,0.5017391443252563,-1.0217208862304688
1772634150905249000,5.7222490234375,-0.5751767158508301,0.24755859375,-2.207397699356079,-0.2374206036329269,0.5494096875190735,-0.7045386433601379
1772634150925240000,5.742239990234375,-0.3396047949790954,0.3900585174560547,-2.351219892501831,-0.1849563866853714,0.461525410413742,-0.4259722530841827
1772634150945231400,5.7622314453125,-0.1722420454025268,0.3388986587524414,-1.4586148262023926,-0.1322258412837982,0.3480748534202575,-0.401471197605133
1772634150965222700,5.78222265625,-0.6558972001075745,-0.1055307388305664,-0.5620946884155273,-0.0874847695231437,0.3949464559555053,-0.4318312108516693
1772634150985213700,5.802213623046875,-0.5187986493110657,-1.1648006439208984,-0.6279823780059814,-0.0659131780266761,0.4870917499065399,-0.4419512152671814
1772634151005205000,5.822205078125,-0.1559010744094848,-1.203094482421875,-1.3670098781585691,-0.0664458125829696,0.5648559927940369,-0.4557996392250061
1772634151025196000,5.842196044921875,-0.4160372614860534,0.076085090637207,-2.8599441051483154,-0.0800279229879379,0.5126580595970154,-0.4451470077037811
1772634151045187300,5.862187255859375,-1.038790225982666,0.7128076553344727,-3.5342276096343994,-0.040879487991333,0.3688474893569946,-0.3585943281650543
1772634151065178400,5.882178466796875,-1.1236240863800049,0.4771690368652344,-1.9832639694213867,-0.0419447496533393,0.1280979365110397,-0.1793637424707412
1772634151085169700,5.902169677734375,-0.0220903158187866,0.1580181121826172,0.9737944602966307,-0.0139815835282206,-0.131027415394783,0.043010015040636
1772634151105161700,5.92216162109375,-0.917900562286377,-0.8801250457763672,0.980736494064331,-0.243013247847557,-0.3009369373321533,0.1308942586183548
1772634151125154000,5.942154052734375,-0.5377161502838135,-1.8049516677856443,-0.0980896949768066,-0.4912196397781372,0.066046342253685,0.2249037623405456
1772634151145146400,5.962146484375,-0.2922483086585998,-0.5586433410644531,1.2202560901641846,-0.493882805109024,0.1938779652118683,0.5849628448486328
1772634151165138400,5.982138427734375,1.5832607746124268,0.5496559143066406,2.861655235290528,-0.2510027289390564,-0.189883217215538,1.018258810043335
1772634151185130800,6.002130859375,2.4328107833862305,-1.3641481399536133,4.179224014282227,-0.1992042809724807,-0.5022717714309692,1.238502025604248
1772634151205122800,6.022122802734375,1.4031665325164795,-4.754129409790039,2.971757411956787,-0.3113232553005218,-0.3914843499660492,1.2720577716827393
1772634151225115100,6.042115234375,1.3366005420684814,-6.068011283874512,0.7329263687133789,-0.0892158225178718,-0.1451421529054641,1.2680630683898926
1772634151245107500,6.062107421875,1.7476133108139038,-4.436450958251953,-0.185849905014038,0.1752358525991439,-0.2490053474903106,0.9263797998428344
1772634151265099500,6.082099609375,0.7353405952453613,-1.8602228164672847,-0.6863996982574463,0.3464769721031189,-0.3296990692615509,0.3985417187213897
1772634151285091800,6.102091796875,0.1462516784667968,0.6169872283935547,-0.8836290836334229,0.4487422704696655,-0.7294391989707947,0.0757668688893318
1772634151305084000,6.122083984375,0.3236849308013916,1.8322539329528809,-0.4289209842681885,0.5882917642593384,-1.2434288263320925,-0.0339552760124206
1772634151325076200,6.142076171875,0.0521256923675537,1.896231174468994,-0.0854296684265136,0.6386255025863647,-1.3124046325683594,0.0427436977624893
1772634151345068300,6.162068359375,-0.1750696897506714,1.5305280685424805,0.264653205871582,0.6878939270973206,-1.2452930212020874,0.2597911357879638
1772634151365060600,6.182060546875,-0.3834803104400635,1.8723840713500977,0.1785268783569336,0.6970818042755127,-1.0404961109161377,0.3982754051685333
1772634151385053000,6.202052978515625,-0.6768752932548523,3.2417778968811035,-0.2268116474151611,0.4286354184150696,-0.7885613441467285,0.0185089539736509
1772634151405045000,6.222044921875,-0.8760479688644409,4.5871901512146,-0.4183046817779541,0.2065279632806778,-0.7571360468864441,-0.100001610815525
1772634151425037300,6.242037353515625,-0.3592786192893982,4.754453182220459,-0.1959719657897949,-0.03715106472373,-0.6197170615196228,-0.2310290336608886
1772634151445029400,6.262029296875,0.6862137317657471,3.7057652473449703,-0.0327370166778564,-0.2243711352348327,-0.4567317366600036,-0.3455448448657989
1772634151465021700,6.282021728515625,1.1110926866531372,2.2276816368103027,-1.0075266361236572,-0.2789658904075622,-0.3499390780925751,-0.3759048581123352
1772634151485014000,6.302013916015625,0.6860730648040771,0.6803445816040039,-2.6066091060638428,-0.2217079699039459,-0.3350253701210022,-0.271509051322937
1772634151505006000,6.322006103515625,0.9489692449569702,-1.153141975402832,-2.533308744430542,-0.133823737502098,-0.3542001247406006,-0.0693752840161323
1772634151524998400,6.341998291015625,2.0679290294647217,-2.089683532714844,0.2445440292358398,0.0254331659525632,-0.2868221998214721,0.0315584316849708
1772634151544990500,6.361990478515625,0.6172150373458862,-1.0898523330688477,2.8810176849365234,0.1229047775268554,-0.4359591007232666,-0.0816258192062377
1772634151564982800,6.381982666015625,-0.5430979132652283,-0.6225433349609375,2.3474786281585693,0.0560594946146011,-0.5930854678153992,-0.3519364297389984
1772634151584975000,6.40197509765625,0.3842469453811645,0.0724267959594726,-0.4609534740447998,-0.1474058330059051,0.495081216096878,0.2808300852775574
1772634151604967700,6.4219677734375,1.814752459526062,0.3943719863891601,-2.719789266586304,0.4994754493236542,1.1672625541687012,0.8491482138633728
1772634151624960800,6.441960693359375,3.491337776184082,-4.364536285400391,0.5253317356109619,0.7996134161949158,0.8258455395698547,0.7386270761489868
1772634151644953600,6.46195361328125,-0.5725173354148865,-7.538690567016602,6.291810035705566,0.2062616497278213,0.3326285481452942,0.1165132001042366
1772634151664946400,6.481946533203125,-1.014727234840393,-0.6695785522460938,5.096921920776367,0.1279647797346115,0.0447410680353641,-0.1375521570444107
1772634151684939300,6.501939208984375,0.4110561609268188,5.862317085266113,1.1096279621124268,0.1977395415306091,0.3834948539733886,-0.0984037145972251
1772634151704932000,6.52193212890625,-2.8528735637664795,6.349468231201172,-0.7559058666229248,-0.0187752693891525,0.4298338294029236,-0.1253016293048858
1772634151724925200,6.54192529296875,-2.4953818321228027,0.3989620208740234,0.4932808876037597,0.2198437601327896,0.2585927248001098,-0.2802974581718445
1772634151744918000,6.56191796875,-1.0920498371124268,-6.385326385498047,2.4453132152557373,0.1378184705972671,0.1302284598350525,-0.216115340590477
1772634151764910800,6.581910888671875,-1.1474071741104126,-4.649335861206055,2.892897367477417,-0.0491352789103984,0.2929474711418152,-0.1047952994704246
1772634151784903700,6.601903564453125,-1.2012789249420166,1.935108184814453,1.9623448848724363,-0.3383543193340301,0.7254444360733032,-0.0691089704632759
1772634151804896500,6.621896484375,-1.4890680313110352,4.320943355560303,1.5135579109191897,-0.5804354548454285,0.875380277633667,-0.2294311374425888
1772634151824889300,6.641889404296875,-1.1873279809951782,1.903918743133545,1.065164566040039,-0.644883930683136,0.954209804534912,-0.4219775199890136
1772634151844882400,6.66188232421875,-1.1267077922821045,-2.885516166687012,0.0287163257598876,-0.7277081608772278,0.8807066082954407,-0.259258508682251
1772634151864875300,6.681875244140625,-1.731232523918152,-4.130200386047363,-0.5665040016174316,-0.5340964794158936,0.7728486657142639,-0.235822707414627
1772634151884868000,6.7018681640625,-0.7362887263298035,0.0203628540039062,-0.8355851173400879,-0.357795387506485,0.4809664785861969,-0.6486123204231262
1772634151904861000,6.72186083984375,-0.0878468751907348,2.743154525756836,-0.2596504688262939,-0.2709763944149017,0.4524706900119781,-1.0752503871917725
1772634151924854000,6.74185400390625,-0.3912301659584045,2.3126115798950195,0.5254089832305908,-0.2661827206611633,0.4801675379276275,-0.7237133979797363
1772634151944846800,6.761846923828125,-0.6872319579124451,1.2614850997924805,-0.7018795013427734,-0.2027995437383651,0.3848264515399933,-0.5426186323165894
1772634151964839700,6.781839599609375,-0.5632336735725403,0.4290628433227539,-2.209009885787964,-0.0757668688893318,0.4279696345329284,-0.4683164656162262
1772634151984832500,6.80183251953125,-0.4304749369621277,0.5267858505249023,-2.1821837425231934,-0.0139815835282206,0.536892831325531,-0.4158522486686706
1772634152004825300,6.821825439453125,-0.2949828505516052,0.9561376571655272,-2.1198291778564453,-0.0547279119491577,0.5858949422836304,-0.4581964612007141
1772634152024818400,6.841818359375,-0.3068534731864929,0.9051065444946288,-2.437807559967041,-0.0523310713469982,0.5110601782798767,-0.4137217104434967
1772634152044811300,6.861811279296875,-0.0484809875488281,0.5878219604492188,-1.8291549682617188,-0.0880173966288566,0.3424822092056274,-0.2288984954357147
1772634152084797000,6.901796875,-0.9542298316955566,-0.8382949829101562,-0.3660151958465576,-0.1836248040199279,-0.2002695500850677,0.2382195591926574
1772634152104788700,6.921788818359375,-0.4351312518119812,-1.8990678787231443,-1.1957001686096191,-0.502138614654541,-0.1169126704335212,0.2624543011188507
1772634152124780300,6.9417802734375,-0.4179124236106872,-0.7553310394287109,-2.9898934364318848,-0.4600606858730316,-0.0764326602220535,0.5034701824188232
1772634152144772000,6.961772216796875,-0.5641815066337585,0.3607988357543945,-4.413261413574219,-0.1812279522418975,-0.5126580595970154,0.9404945373535156
1772634152164764000,6.981763916015625,-0.9882153868675232,0.1628665924072265,-3.657245635986328,0.0334226414561271,-0.6657897233963013,1.2427630424499512
1772634152184755500,7.00175537109375,0.5092447996139526,-0.1533651351928711,-0.7732913494110107,-0.144476369023323,-0.5299686193466187,1.3466262817382812
1772634152204747300,7.021747314453125,-0.3373173475265503,-0.5060205459594727,0.7927248477935791,-0.084288977086544,-0.1395495235919952,1.36766517162323
1772634152224738800,7.04173876953125,-0.441006600856781,-1.8295392990112305,0.3065986633300781,0.139416366815567,-0.1621863692998886,1.0733861923217771
1772634152244730600,7.061730712890625,-1.4031418561935425,-1.5064821243286133,1.8745982646942136,0.3141195774078369,-0.2719085216522217,0.5463470220565796
1772634152264722200,7.08172216796875,0.0847328305244445,-0.3222579956054687,3.41150164604187,0.3841606676578522,-0.4114580452442169,0.209457442164421
1772634152284714000,7.1017138671875,1.9171910285949707,-1.3184223175048828,4.390162467956543,0.475506991147995,-0.7430213093757629,0.1647163778543472
1772634152304705500,7.12170556640625,1.523470401763916,-3.714389801025391,3.7890124320983887,0.5772396922111511,-1.0287781953811646,0.2488721907138824
1772634152324697300,7.141697265625,0.7623552083969116,-4.585833549499512,1.2577314376831057,0.674711287021637,-1.098286747932434,0.4081290960311889
1772634152344689000,7.16168896484375,1.351698398590088,-3.5227479934692383,-0.1473770141601562,0.725311279296875,-1.098286747932434,0.477104902267456
1772634152364680700,7.1816806640625,1.526305913925171,-1.6645431518554688,-0.2470102310180664,0.5916207432746887,-0.7044054865837097,0.1873532235622406
1772634152384672500,7.201672607421875,0.9413015842437744,0.5028104782104492,-0.2935299873352051,0.4195806682109833,-0.7259770631790161,-0.0515321232378482
1772634152404664000,7.2216640625,0.7272974252700806,1.8522915840148928,-0.0826833248138427,0.2339584976434707,-0.8892287015914917,-0.1729721575975418
1772634152424656000,7.24165576171875,0.0800771713256836,2.054166316986084,-0.0132989883422851,0.0515321232378482,-0.8921582102775574,-0.3167827427387237
1772634152444647400,7.2616474609375,-0.1597523689270019,1.4041810035705566,-0.0346286296844482,-0.0816258192062377,-0.8351665735244751,-0.5332975387573242
1772634152464639200,7.28163916015625,-0.1753246784210205,1.1886510848999023,-0.0425217151641845,-0.1521995216608047,-0.828508734703064,-0.6550039052963257
1772634152484630800,7.301630859375,-0.4001584053039551,2.4533677101135254,-0.5187056064605713,-0.1575258374214172,-0.6471475958824158,-0.5482112169265747
1772634152504622600,7.32162255859375,-0.6148908734321594,3.7704029083251953,-0.7618718147277832,-0.1359542608261108,-0.5723128318786621,-0.2459427118301391
1772634152524614100,7.3416142578125,-0.4313454627990722,4.112123489379883,-0.2470459938049316,-0.0078563187271356,-0.3552653789520263,0.0376836955547332
1772634152544606000,7.36160595703125,0.5193654298782349,3.63051700592041,0.0918467044830322,0.1106542497873306,-0.284958004951477,0.1181110963225364
1772634152564597500,7.381597412109375,0.7889400720596313,2.6726036071777344,-0.7401077747344971,0.1191763579845428,-0.4977443814277649,-0.2259690314531326
1772634152584589300,7.40158935546875,0.4011092185974121,1.5241379737854004,-2.299372673034668,-0.0768321305513382,-0.3576622307300567,-0.2946785092353821
1772634152604582000,7.421581787109375,0.5038079023361206,0.017242431640625,-2.5290985107421875,-0.2171805948019027,0.4628570079803467,0.2579269409179687
1772634152624574500,7.441574462890625,1.4441747665405271,-1.2202692031860352,-0.6482276916503906,0.2012016475200653,1.2490215301513672,0.8789755702018738
1772634152644567000,7.461567138671875,1.0264030694961548,-1.3685846328735352,2.524627923965454,0.7530081272125244,0.8053392171859741,0.7751123905181885
1772634152664559600,7.4815595703125,-0.2466254830360412,-1.6457910537719729,3.526233434677124,0.5671196579933167,0.2253032326698303,0.0280963256955146
1772634152684552200,7.50155224609375,-0.2666788697242737,-0.7756061553955078,-0.0189838409423828,0.2217079699039459,-0.1051947697997093,-0.363920658826828
1772634152704544800,7.521544677734375,1.391865849494934,0.6403627395629883,-3.404127359390259,0.1782984882593155,0.2878874540328979,-0.2789658904075622
1772634152724537300,7.541537353515625,3.439300537109375,-2.7175445556640625,-0.5740439891815186,-0.0856205523014068,0.5635244250297546,-0.2267679721117019
1772634152744530000,7.561530029296875,1.5817190408706665,-7.643062591552734,6.011814117431641,0.0533963330090045,0.4271706640720367,-0.3833616971969604
1772634152764522500,7.5815224609375,-0.8098239898681641,-3.1961374282836914,5.800607681274414,0.122638463973999,0.3728422224521637,-0.2912164032459259
1772634152784515000,7.60151513671875,-0.6339231133460999,4.562990665435791,2.2313456535339355,-0.0307594835758209,0.4372906684875488,-0.1442100554704666
1772634152804508000,7.6215078125,-2.4272124767303467,6.865222454071045,-0.2738399505615234,-0.3101248443126678,0.7555381655693054,-0.1308942586183548
1772634152824500500,7.64150048828125,-2.546273946762085,2.478460788726806,1.2127621173858645,-0.5964143872261047,0.95101398229599,-0.2089248150587082
1772634152844493000,7.6614931640625,-1.0960828065872192,-4.022524833679199,2.6679487228393555,-0.6653902530670166,1.021854043006897,-0.3748396039009094
1772634152864485600,7.681485595703125,-1.5100663900375366,-4.94830322265625,2.3059487342834477,-0.714392364025116,1.0570077896118164,-0.4131890833377838
1772634152884478200,7.701478271484375,-1.0079944133758545,0.2364406585693359,1.9890878200531008,-0.7721828818321228,1.009070873260498,-0.2451437711715698
1772634152904470800,7.721470703125,-1.4301283359527588,3.862067699432373,1.4492175579071045,-0.5559344291687012,0.8170571327209473,-0.2432795614004135
1772634152924463400,7.74146337890625,-1.34533953666687,2.672240734100342,0.9975824356079102,-0.3783017098903656,0.4828307032585144,-0.6310355067253113
1772634152944456000,7.7614560546875,-0.9971586465835572,-1.9113235473632808,0.1772100925445556,-0.3380880057811737,0.3222422301769256,-1.0576735734939575
1772634152964448500,7.781448486328125,-1.479366898536682,-3.693161010742188,-0.973682165145874,-0.2182458639144897,0.4303664565086365,-0.65953129529953
1772634152984441300,7.80144140625,-0.6640927195549011,-0.1699275970458984,-1.4819602966308594,-0.1508679538965225,0.2721748352050781,-0.5348954200744629
1772634153004434000,7.821433837890625,0.0535758733749389,2.5532212257385254,-0.875389575958252,-0.0597879141569137,0.2695116698741913,-0.5189164876937866
1772634153024426500,7.841426513671875,-0.4186800122261047,2.4350905418396,-0.0052874088287353,0.0209057964384555,0.3845601379871368,-0.4669848978519439
1772634153044419000,7.861419189453125,-0.6297739744186401,1.5021295547485352,-0.8957903385162354,-0.0267647467553615,0.432230681180954,-0.399873286485672
1772634153084404200,7.901404296875,-0.27059006690979,-0.4015960693359375,-2.02988600730896,-0.0768321305513382,0.3984085619449615,-0.2952111661434173
1772634153104397000,7.92139697265625,-0.3191565275192261,-0.0029735565185546,-2.06549072265625,-0.1412805765867233,0.2687127292156219,-0.1141163557767868
1772634153124390000,7.941389892578125,-0.3835511803627014,0.5909214019775391,-2.481761932373047,-0.1295626759529113,0.1134505644440651,0.1372858434915542
1772634153144383000,7.961383056640625,-0.2501379251480102,0.7313365936279297,-1.9929487705230715,-0.3649859130382538,-0.1014663502573967,0.3324953913688659
1772634153164375800,7.981375732421875,-0.5644273161888123,0.5810632705688477,-0.8209760189056396,-0.4850943684577942,-0.022370534017682,0.5588638782501221
1772634153184368600,8.00136865234375,-1.019641637802124,-0.1944751739501953,-0.3577015399932861,-0.3138532638549804,-0.5384907126426697,0.944222927093506
1772634153204361700,8.02136181640625,-0.4720221757888794,-1.2352619171142578,-0.6627070903778076,0.0123836882412433,-0.9416929483413696,1.154878854751587
1772634153224354600,8.0413544921875,-0.4408122301101684,-0.6306171417236328,-2.248335361480713,0.0291615892201662,-0.7313033938407898,1.1916303634643557
1772634153244347400,8.061347412109376,-0.7677902579307556,0.3789958953857422,-4.145761013031006,-0.1402153074741363,-0.2548643052577972,1.2020167112350464
1772634153264340500,8.081340576171876,0.2666622400283813,0.2864828109741211,-3.373724937438965,-0.0222373753786087,0.0854873955249786,1.1093387603759766
1772634153284333300,8.101333251953125,1.050526738166809,0.2088851928710937,-1.0534090995788574,0.1119858250021934,0.0087884236127138,0.8004123568534851
1772634153304326100,8.121326171875,-0.9371097087860109,-1.1902494430541992,-0.9486362934112548,0.1695100516080856,-0.1576589941978454,0.4677838385105133
1772634153324319200,8.1413193359375,-1.4390454292297363,-2.7511472702026367,-0.7705419063568115,0.2541985213756561,-0.3960117101669311,0.3708448708057403
1772634153344312000,8.16131201171875,-1.2952117919921875,-1.7056045532226562,2.2985832691192627,0.3553985357284546,-0.7238465547561646,0.4134553968906402
1772634153364305000,8.181304931640625,0.9243510961532592,-0.459115982055664,4.551352500915527,0.4613922536373138,-0.9819066524505616,0.4352933168411255
1772634153384297700,8.201297607421875,1.723100185394287,-1.1757545471191406,5.29844856262207,0.5783049464225769,-1.1643329858779907,0.4837628006935119
1772634153404290800,8.221290771484375,0.880017876625061,-2.3465681076049805,3.775091171264648,0.6787060499191284,-1.1363698244094849,0.4531364738941192
1772634153424283600,8.24128369140625,0.8848749399185181,-2.757504463195801,1.0823378562927246,0.6749776005744934,-0.9507476687431335,0.2536658644676208
1772634153444276500,8.2612763671875,1.638762354850769,-2.392576217651367,-0.4949731826782226,0.5620596408843994,-0.7414234280586243,0.0131826363503932
1772634153464269600,8.28126953125,1.6228647232055664,-1.885639190673828,-0.6293275356292725,0.3902859091758728,-0.8343676328659058,-0.1806953251361847
1772634153484262400,8.301262451171874,1.161420464515686,-0.8355531692504883,-0.3578066825866699,0.2102563828229904,-0.9414266347885132,-0.28455850481987
1772634153504255200,8.321255126953124,0.7972869873046875,0.3706502914428711,-0.0986025333404541,0.0283626411110162,-0.7411571145057678,-0.397476464509964
1772634153524248300,8.341248291015624,0.4754118919372558,0.9376106262207032,0.286956787109375,-0.1146489903330802,-0.5960149168968201,-0.5165196657180786
1772634153544241200,8.3612412109375,-0.0935208797454834,1.020132064819336,0.5310831069946289,-0.2009353339672088,-0.6207823157310486,-0.5894901752471924
1772634153564234000,8.38123388671875,-0.3438491821289062,1.4612541198730469,0.6580102443695068,-0.205462709069252,-0.5784381031990051,-0.5170522928237915
1772634153584226800,8.401226806640626,-0.3287856578826904,2.629533290863037,0.478459358215332,-0.1828258484601974,-0.5235770344734192,-0.280031144618988
1772634153604219400,8.421219482421876,-0.8672562837600708,3.730290412902832,-0.1538426876068115,-0.0731037110090255,-0.4769717454910278,-0.0150468470528721
1772634153624212000,8.4412119140625,-0.6783968806266785,3.925838947296143,-0.4899237155914306,0.1553953140974044,-0.3920169770717621,0.1026647686958313
1772634153644204500,8.46120458984375,0.2137365341186523,3.453253746032715,-0.6749832630157471,0.2563290297985077,-0.4966791272163391,-0.1154479309916496
1772634153664196900,8.48119677734375,0.6926543712615967,2.5202536582946777,-1.4250590801239014,0.0328900106251239,-0.4844285845756531,-0.2744385302066803
1772634153684189400,8.501189453125,0.5797379016876221,1.6034154891967771,-2.6913299560546875,-0.1484711021184921,0.2857569456100464,0.1916142702102661
1772634153704181800,8.521181640625,0.3346387147903442,0.8408803939819336,-2.856050729751587,0.2454100847244262,1.2849740982055664,0.953544020652771
1772634153724174300,8.54117431640625,1.2348086833953855,-0.0261192321777343,-1.236182451248169,0.6408891677856445,1.0141308307647705,1.0736525058746338
1772634153744166700,8.561166748046874,1.612329602241516,-0.9245376586914062,1.7958941459655762,0.5000080466270447,0.3171822130680084,0.2310290336608886
1772634153764159200,8.5811591796875,0.3597375154495239,-1.9580955505371092,3.9944095611572266,0.363920658826828,-0.0175768472254276,-0.2502037584781647
1772634153784151800,8.60115185546875,-0.4039146900177002,-1.737177848815918,1.6885786056518557,0.2568616569042206,0.2162484973669052,-0.2051963806152343
1772634153804144000,8.62114404296875,1.4048835039138794,0.0361337661743164,-2.749821424484253,0.1101216152310371,0.3621895909309387,-0.0778973922133445
1772634153824136700,8.64113671875,2.949304819107056,-1.7402315139770508,-2.1363227367401123,0.2166479676961898,0.174170583486557,-0.2752374708652496
1772634153844129300,8.66112939453125,1.756502628326416,-6.467250823974609,4.826958179473877,0.2443448156118393,0.1784316450357437,-0.2717753648757934
1772634153864121600,8.68112158203125,0.6627058982849121,-3.860867500305176,5.678098678588867,0.0755005553364753,0.442350685596466,0.0043942118063569
1772634153884114200,8.7011142578125,-0.7695274949073792,2.93678617477417,1.892223596572876,-0.19374480843544,0.6897581219673157,0.1282310932874679
1772634153904106500,8.7211064453125,-2.3649344444274902,5.6836347579956055,-0.8820199966430664,-0.4573975205421448,0.8873645067214966,0.1482047885656356
1772634153924099000,8.74109912109375,-2.6820919513702397,2.3852643966674805,0.4848694801330566,-0.5564670562744141,1.0258487462997437,-0.0246342197060585
1772634153944091600,8.761091552734374,-1.4847493171691897,-3.1441869735717773,2.5232717990875244,-0.6297038793563843,0.9379645586013794,-0.2728406190872192
1772634153964084000,8.781083984375,-1.833101987838745,-4.061368942260742,2.0964746475219727,-0.7018755078315735,0.9052076935768129,-0.2217079699039459
1772634153984076500,8.80107666015625,-1.3916971683502195,-0.0069465637207031,2.3435800075531006,-0.5644565224647522,0.7803055047988892,-0.221175342798233
1772634154004068900,8.82106884765625,-1.7156424522399902,3.474949836730957,1.7329716682434082,-0.3940143585205078,0.4671180546283722,-0.595349133014679
1772634154024061400,8.8410615234375,-1.3133583068847656,2.6582250595092773,0.4479305744171142,-0.3109237849712372,0.2649843096733093,-1.1016156673431396
1772634154044054000,8.861053955078125,-0.8489473462104797,-1.7439393997192385,0.2586109638214111,-0.2549974620342254,0.3113232553005218,-1.1167956590652466
1772634154064046300,8.88104638671875,-1.3767507076263428,-3.9977035522460938,-0.4390876293182373,-0.2701774537563324,0.3685811758041382,-0.7953523993492126
1772634154084039000,8.901038818359375,-0.8891196250915527,-0.8067808151245117,-1.2417683601379397,-0.2794985175132751,0.3179811537265777,-0.6139912605285645
1772634154104030500,8.921030517578124,-0.0445482730865478,2.257185459136963,-0.6838376522064209,-0.2296974509954452,0.3435474932193756,-0.5737775564193726
1772634154124021800,8.941021728515626,-0.4238530397415161,2.4056191444396973,0.2134492397308349,-0.1308942586183548,0.4820317327976227,-0.502138614654541
1772634154144013300,8.961013427734375,-0.7698155641555786,1.065627098083496,-0.4091043472290039,-0.0701742321252822,0.5840307474136353,-0.4757733345031738
1772634154164004900,8.9810048828125,-0.6788886189460754,0.2834205627441406,-1.7488703727722168,-0.1314268857240677,0.6407560110092163,-0.4547343552112579
1772634154183996400,9.000996337890625,-0.5898966193199158,0.3330059051513672,-1.7613627910614014,-0.18655426800251,0.6042707562446594,-0.3306311666965484
1772634154203987700,9.02098779296875,-0.4524421095848083,0.6670989990234375,-1.5574758052825928,-0.1990711241960525,0.3028011620044708,-0.1484711021184921
1772634154223979300,9.040979248046876,-0.5746476054191589,0.968454360961914,-2.064267635345459,-0.1455416232347488,-0.0585894957184791,-0.0070573706179857
1772634154243970600,9.060970458984375,-0.4696727395057678,0.9076013565063475,-1.871549129486084,-0.2808300852775574,-0.4024032950401306,0.0946752950549125
1772634154263962000,9.080962158203125,-0.6962893605232239,0.4629926681518554,-0.9819457530975342,-0.3447459042072296,-0.3350253701210022,0.1535311043262481
1772634154283953700,9.10095361328125,-1.021445870399475,-0.3680057525634765,-0.95261549949646,-0.2579269409179687,-0.5179843902587891,0.4787027835845947
1772634154303945200,9.1209453125,-0.5195418000221252,-1.229191780090332,-1.6675353050231934,-0.2416816651821136,-0.8026760816574097,0.77724289894104
1772634154323936500,9.1409365234375,-0.4434229731559753,-0.7987852096557617,-2.818691730499268,-0.2925480008125305,-0.6673876047134399,1.0049430131912231
1772634154343928000,9.160927978515623,-0.9579973816871644,0.0912466049194336,-4.061694622039795,-0.3122553825378418,-0.3480748534202575,1.2547472715377808
1772634154363919600,9.180919677734376,-0.3657559752464294,0.2591199874877929,-3.020480155944824,-0.0531300194561481,-0.0966726616024971,1.368464112281799
1772634154383911000,9.200910888671874,0.7402801513671875,0.3640327453613281,-0.2217423915863037,0.2677806317806244,-0.3028011620044708,1.159672498703003
1772634154403902500,9.22090234375,-1.5876398086547852,-0.0443754196166992,-0.0522089004516601,0.4051996171474457,-0.602672815322876,0.7383607625961304
1772634154423894000,9.24089404296875,-1.5196678638458252,-0.9424152374267578,-0.510807991027832,0.5671196579933167,-1.1222550868988037,0.3854922354221344
1772634154443885300,9.26088525390625,-0.3787599802017212,0.3199586868286133,0.8753602504730225,0.6526070833206177,-1.50068998336792,0.1157142519950866
1772634154463876900,9.280876953125,1.9244301319122317,0.9262752532958984,2.6215407848358154,0.6177197098731995,-1.4895046949386597,0.1700426936149597
1772634154483868400,9.300868408203126,2.987123489379883,-1.5452289581298828,4.15533447265625,0.6936197280883789,-1.4050825834274292,0.363920658826828
1772634154503859700,9.320859619140624,2.0567197799682617,-6.064380645751953,3.333911657333374,0.7697860598564148,-1.295360445976257,0.4896217584609985
1772634154523851300,9.340851318359377,1.8939666748046875,-7.550919532775879,1.053635835647583,0.7487471103668213,-1.0697908401489258,0.3886880278587341
1772634154543842800,9.3608427734375,2.1533424854278564,-5.247021675109863,0.0639116764068603,0.5926859974861145,-0.8503466248512268,0.1175784617662429
1772634154563834000,9.380834228515624,0.298143208026886,-1.5681266784667969,-0.6718831062316895,0.4054659307003021,-0.7976160645484924,-0.1407479494810104
1772634154583825700,9.40082568359375,-0.1936143636703491,1.1790637969970703,-0.5743892192840576,0.2565953433513641,-0.8213181495666504,-0.2816290557384491
1772634154603817700,9.420817626953124,0.1399089097976684,2.0548858642578125,0.063725471496582,0.1085237190127372,-0.6593981385231018,-0.3277016878128052
1772634154623810000,9.44081005859375,-0.0320112705230712,1.512259006500244,0.293065071105957,-0.0986700356006622,-0.4159854054450989,-0.3250385224819183
1772634154643802000,9.460802001953123,-0.2020485401153564,0.7891578674316406,0.6531100273132324,-0.2581932544708252,-0.3294327557086944,-0.3005374670028686
1772634154663794200,9.480794189453125,-0.7141789197921753,1.0829334259033203,0.8195481300354004,-0.3010700941085815,-0.2809632420539856,-0.2422142922878265
1772634154683786500,9.500786376953124,-0.6157728433609009,2.649515151977539,0.5099444389343262,-0.2765690386295318,-0.1656484752893448,-0.0960068777203559
1772634154703778600,9.520778564453124,-0.6295013427734375,4.313512802124023,-0.1885678768157959,-0.2520679831504822,-0.1818937510251999,0.0962731912732124
1772634154723771000,9.54077099609375,-0.7225173115730286,4.890403270721436,-0.5378365516662598,-0.0520647540688514,-0.2830937802791595,0.0605868622660636
1772634154743763000,9.560762939453124,-0.30780690908432,4.282092094421387,-0.3243327140808105,0.0848216116428375,-0.3723095953464508,-0.2227732390165329
1772634154763755300,9.58075537109375,0.6179678440093994,2.9903664588928223,-0.2596626281738281,0.067511074244976,-0.5006738305091858,-0.3990743458271026
1772634154783747300,9.600747314453123,0.7084416151046753,1.613203525543213,-1.4790043830871582,-0.1183774098753929,-0.1019989848136901,-0.139416366815567
1772634154803739600,9.62073974609375,0.2198789119720459,0.7160158157348633,-3.300675392150879,-0.0794952884316444,0.6133254766464233,0.2288984954357147
1772634154823731700,9.640731689453125,0.979382872581482,-0.116830825805664,-2.8126914501190186,0.7932218313217163,1.0812424421310425,0.6368944048881531
1772634154843724000,9.66072412109375,1.851856470108032,-0.9056377410888672,0.2434043884277343,1.0875009298324585,0.5597959756851196,0.4952143728733063
1772634154863716000,9.680716064453126,1.017600178718567,-0.8118410110473633,2.423565626144409,0.5340964794158936,0.0521979108452796,-0.1487374156713485
1772634154883708400,9.70070849609375,0.182672917842865,-0.4965391159057617,1.4250776767730713,0.2552637755870819,0.0276968516409397,-0.2565953433513641
1772634154903700500,9.720700439453124,0.9056961536407472,0.4691982269287109,-0.4959597587585449,0.1785648018121719,0.2902843058109283,0.0731037110090255
1772634154923692800,9.74069287109375,3.2986598014831543,0.7081804275512695,-1.4853363037109375,0.0565921254456043,0.3997401297092438,0.1745700538158416
1772634154943684900,9.760684814453125,3.662428855895996,-3.6447525024414062,1.8530714511871336,0.2976079881191253,0.533164381980896,0.0432763323187828
1772634154963677200,9.78067724609375,-1.2321550846099854,-7.903389930725098,6.103814601898193,0.220110073685646,0.3997401297092438,-0.0800279229879379
1772634154983669200,9.800669189453124,-2.3243563175201416,-2.123359680175781,5.164368629455566,-0.0416784361004829,0.5603286027908325,-0.0683100223541259
1772634155003661300,9.820661376953124,-1.1920098066329956,5.077399730682373,0.8052387237548828,-0.3793669641017914,0.7089328765869141,-0.0241015870124101
1772634155023653600,9.840653564453126,-3.061561346054077,6.74008846282959,-0.87117600440979,-0.4198469817638397,0.7422223687171936,-0.0366184338927269
1772634155043645700,9.860645751953124,-2.0546698570251465,2.7960190773010254,0.3865001201629638,-0.4145206809043884,0.7337002754211426,-0.2728406190872192
1772634155063638000,9.880637939453123,-1.3536499738693235,-3.484927177429199,1.371314525604248,-0.4779038429260254,0.8679234385490417,-0.4440817236900329
1772634155083630000,9.900630126953123,-1.2245491743087769,-6.324871063232422,0.891991138458252,-0.5029375553131104,0.8820381760597229,-0.47923544049263
1772634155103622700,9.92062255859375,-1.6822028160095217,-3.320281982421875,0.3836615085601806,-0.4099932909011841,0.7518097162246704,-0.5628586411476135
1772634155123615200,9.940615234375,-1.1949410438537598,0.1591215133666992,1.2279226779937744,-0.3122553825378418,0.5648559927940369,-0.7974829077720642
1772634155143607800,9.96060791015625,-0.5660619735717773,-0.3045291900634765,1.9385347366333008,-0.1881521642208099,0.4657864868640899,-0.9098681807518004
1772634155163600400,9.980600341796874,-1.0512573719024658,-2.454660415649414,1.2754278182983398,-0.1266331970691681,0.4295675158500671,-0.6480796933174133
1772634155183592700,10.0005927734375,-1.168426275253296,-1.4496002197265625,-0.1941249370574951,-0.1428784728050232,0.3534011840820312,-0.3711111843585968
1772634155203585300,10.020585205078126,-0.4131873846054077,0.985661506652832,-0.8618223667144775,-0.09014792740345,0.2857569456100464,-0.3103911578655243
1772634155223577900,10.040577880859376,-0.2787925004959106,1.87056827545166,-0.6933038234710693,0.0043942118063569,0.3624559044837951,-0.3423490524291992
1772634155243570400,10.0605703125,-0.4826242923736572,1.5543689727783203,-0.3558952808380127,0.0264984294772148,0.527039110660553,-0.3356911540031433
1772634155263563000,10.08056298828125,-0.7711939811706543,1.279829978942871,-1.316343069076538,-0.0576573871076107,0.6527402400970459,-0.269378513097763
1772634155283555600,10.1005556640625,-1.206876516342163,1.30153226852417,-2.39092230796814,-0.1247689872980117,0.666854977607727,-0.1737711131572723
1772634155303548200,10.120548095703125,-1.0112003087997437,1.7485980987548828,-2.326901435852051,-0.1274321526288986,0.402669608592987,-0.1170458272099495
1772634155323540700,10.140540771484376,-0.7841368913650513,1.9743342399597168,-2.080920934677124,-0.121839515864849,-0.1214400380849838,-0.1780321598052978
1772634155343533000,10.160532958984374,-0.7626664042472839,1.7790641784667969,-1.8312125205993648,-0.0142478998750448,-0.5512738823890686,-0.1524658352136612
1772634155363525600,10.180525634765624,-0.7845681309700012,1.584993839263916,-1.3570165634155271,-0.1548626869916916,-0.803475022315979,-0.0789626613259315
1772634155383518200,10.200518310546874,-0.9676865935325624,1.1986808776855469,-1.7445838451385498,0.1436774134635925,-0.966460347175598,0.0483363308012485
1772634155403510800,10.2205107421875,-0.4653774499893188,-0.5350122451782227,-2.87188458442688,0.1990711241960525,-0.7390265464782715,0.1162468791007995
1772634155423503400,10.24050341796875,-0.4974427223205566,-1.5876102447509766,-3.408529758453369,-0.0187752693891525,-0.2490053474903106,0.4784364700317383
1772634155443496000,10.260495849609375,-0.4299694299697876,-0.4374914169311523,-4.109697818756104,-0.1950763761997223,-0.0458063334226608,1.0294439792633057
1772634155463488500,10.280488525390624,-1.275390386581421,0.7346601486206055,-4.269143104553223,-0.1314268857240677,0.0719052851200103,1.376719951629639
1772634155483481000,10.300481201171875,-0.2619142532348633,0.1538257598876953,-2.309528589248657,-0.1703090071678161,0.0439421199262142,1.2598072290420532
1772634155503473400,10.320473388671877,0.0402380228042602,-1.4303464889526367,1.8089728355407717,-0.0805605575442314,0.2031990140676498,0.8006786704063416
1772634155523466000,10.340466064453125,-1.7173349857330322,-1.5015268325805664,4.717828273773193,0.2962764203548431,-0.2047969102859497,0.3008037805557251
1772634155543458600,10.36045849609375,-0.5593499541282654,0.2061967849731445,4.46207332611084,0.4163848757743835,-0.9835045337677002,0.1535311043262481
1772634155563451100,10.380451171875,0.4151954650878906,1.4781146049499512,3.3358161449432373,0.4725775420665741,-1.2604730129241943,0.2946785092353821
1772634155583443700,10.400443603515624,0.8602156639099121,0.810246467590332,2.1388604640960693,0.556999683380127,-1.333709955215454,0.4203796088695526
1772634155603435800,10.420435791015626,1.716753602027893,-1.6538562774658203,2.190185070037842,0.5708481073379517,-1.1691267490386963,0.5436838865280151
1772634155623427600,10.440427490234375,3.354100465774536,-4.882157325744629,2.6382944583892822,0.5269059538841248,-0.9526119232177734,0.5924196839332581
1772634155643419400,10.46041943359375,3.112176418304444,-6.682511329650879,1.9207983016967771,0.5109270215034485,-0.9422255754470824,0.7535408139228821
1772634155663411500,10.480411376953125,1.7669236660003662,-4.222321510314941,0.0932319164276123,0.3676490783691406,-0.6969486474990845,0.4507396221160888
1772634155683403300,10.5004033203125,1.2615584135055542,-1.9147214889526367,0.0131776332855224,0.2760364115238189,-0.7499455213546753,0.1002679318189621
1772634155703395000,10.52039501953125,0.2550792694091797,-1.032454490661621,0.6548912525177002,0.1751026958227157,-0.6442180871963501,-0.0800279229879379
1772634155723387100,10.54038720703125,-0.1246660947799682,-0.9480419158935548,1.2749364376068115,-0.0067910552024841,-0.707068681716919,-0.2837595641613006
1772634155743379000,10.56037890625,0.5554467439651489,-0.1400985717773437,0.8980264663696289,-0.0858868733048439,-0.8215845227241516,-0.4539354145526886
1772634155763370800,10.580370849609375,-0.3213979005813598,0.8890876770019531,0.4429314136505127,-0.1135837212204933,-0.9683245420455932,-0.5026712417602539
1772634155783362600,10.600362548828125,-0.5643404722213745,0.8271045684814453,0.1668052673339843,-0.0914795026183128,-1.002146601676941,-0.3908185660839081
1772634155803354600,10.620354736328125,-0.4681135416030884,3.167962551116944,-1.0006272792816162,0.0070573706179857,-0.9174582362174988,-0.2251700758934021
1772634155823346400,10.640346435546874,-0.9993619918823242,4.6098952293396,-0.7848963737487793,0.1404816210269928,-0.9803087711334229,-0.0909468755125999
1772634155843338200,10.660338134765626,0.1027483940124511,4.727295398712158,-0.6875033378601074,0.2512690424919128,-1.1049445867538452,-0.0880173966288566
1772634155863330300,10.680330322265624,0.2470401525497436,4.28001594543457,-1.582996129989624,0.0755005553364753,-1.0442246198654177,-0.1069258227944374
1772634155883322000,10.700322021484377,-0.0674439668655395,3.5610361099243164,-3.3065741062164307,-0.1524658352136612,-0.457530677318573,0.1788311153650283
1772634155903314000,10.72031396484375,-0.1803613901138305,2.5289034843444824,-4.388871192932129,-0.1623195260763168,0.1608547866344452,0.4832301735877991
1772634155923305700,10.7403056640625,0.4733357429504394,1.4728116989135742,-3.520960807800293,-0.040080539882183,0.4463454186916351,0.5799028277397156
1772634155943297800,10.7602978515625,1.2103257179260254,0.0868072509765625,-0.9776875972747804,0.779639720916748,0.2167811244726181,0.1521995216608047
1772634155963289600,10.78028955078125,0.6172634363174438,-1.5179834365844729,1.1143507957458496,0.7476818561553955,0.0796284452080726,-0.8230492472648621
1772634155983281400,10.800281494140624,-0.4691895246505737,-1.7947664260864258,1.0181922912597656,-0.0504668578505516,0.0348873808979988,-0.9878987669944764
1772634156003273500,10.8202734375,1.111773133277893,-1.0369462966918943,-0.6908605098724365,-0.1101216152310371,0.5952159762382507,-0.4640554189682007
1772634156023265300,10.840265380859377,3.085701942443848,-0.1468648910522461,-1.9022719860076904,0.0478036999702453,0.841824471950531,0.0368847511708736
1772634156043257000,10.860257080078124,3.2670693397521973,-1.3227252960205078,-0.7775688171386719,0.1575258374214172,0.7582013010978699,0.4270375072956085
1772634156063249000,10.880248779296876,2.356971502304077,-8.080025672912598,6.826518058776856,0.1615205854177475,0.7243791818618774,0.4779038429260254
1772634156083241000,10.900240966796876,-4.806345939636231,-7.207900047302246,9.97050666809082,-0.235822707414627,0.6777738928794861,0.2515353560447693
1772634156103233800,10.92023388671875,-4.886002063751221,3.1227474212646484,5.160649299621582,-0.487757533788681,0.6591318249702454,-0.0483363308012485
1772634156123227100,10.94022705078125,-0.966654360294342,7.288650512695312,3.361590385437012,-0.5636575818061829,0.7776423692703247,-0.4134553968906402
1772634156143220500,10.960220458984375,-1.0459802150726318,4.248432159423828,2.070586442947388,-0.6478133797645569,0.8354329466819763,-0.7868302464485168
1772634156163213600,10.980213623046875,0.3674535751342773,-1.431544303894043,-0.2954776287078857,-0.6795049905776978,1.0871014595031738,-0.6166543960571289
1772634156183207000,11.00020703125,-0.4366101026535034,-3.671070098876953,-1.6079976558685305,-0.6587323546409607,1.2295804023742676,-0.1900163739919662
1772634156203200300,11.0202001953125,-1.149587631225586,-2.549399375915528,-0.5087258815765381,-0.5934849381446838,1.0687255859375,-0.0576573871076107
1772634156223193600,11.040193603515624,-1.5776922702789309,-0.8083581924438477,1.1688380241394043,-0.5324985980987549,0.7510107755661011,-0.510660707950592
1772634156243186700,11.060186767578124,-2.072464942932129,-1.236297607421875,2.8770813941955566,-0.4044006764888763,0.4687159657478332,-1.0251829624176023
1772634156263180000,11.080179931640624,-1.8180559873580933,-1.7991971969604492,2.256531000137329,-0.3005374670028686,0.5044022798538208,-0.8789755702018738
1772634156283173400,11.10017333984375,-1.0698084831237793,0.2937736511230469,-0.4711863994598388,-0.3095922172069549,0.6870949864387512,-0.3735080361366272
1772634156303166500,11.12016650390625,-0.0431740283966064,2.93074893951416,-1.6958889961242676,-0.2829606235027313,0.6130591630935669,-0.1796300560235977
1772634156323159800,11.140159912109375,0.028509497642517,3.32198429107666,-0.963841438293457,-0.2283658683300018,0.4338285624980926,-0.3657848536968231
1772634156343153200,11.160153076171875,-0.0730775594711303,2.59950590133667,0.2955541610717773,-0.2219742834568023,0.4945485889911651,-0.5841639041900635
1772634156363146500,11.180146484375,-0.3204767107963562,1.6554780006408691,-0.9087574481964112,-0.2051963806152343,0.7209171056747437,-0.6230459809303284
1772634156383139600,11.2001396484375,-0.9278496503829956,0.6534795761108398,-2.9476237297058105,-0.1884184926748275,0.7768434286117554,-0.4882901608943939
1772634156403133000,11.2201328125,-0.5667803287506104,0.2715091705322265,-2.849024534225464,-0.1663142740726471,0.594150722026825,-0.3146522045135498
1772634156423126300,11.240126220703123,-0.1239691972732544,0.0791702270507812,-1.4951603412628174,-0.1319595128297805,0.2780337929725647,-0.1521995216608047
1772634156443119400,11.260119384765623,-0.7314254641532898,0.2079601287841797,-0.957571506500244,-0.0621847584843635,-0.1051947697997093,-0.0195742174983024
1772634156463112700,11.28011279296875,-1.1584579944610596,0.3281097412109375,-1.199821710586548,-0.1543300598859787,-0.3685811758041382,0.0280963256955146
1772634156483106000,11.30010595703125,-0.701260507106781,-0.3891363143920898,-1.5815229415893557,-0.4336954057216644,-0.1147821471095085,0.1210405677556991
1772634156503099100,11.32009912109375,-0.1101411581039428,-1.3621397018432615,-2.023611545562744,-0.5743101835250854,-0.1246358305215835,0.5093291401863098
1772634156523092500,11.340092529296877,0.2824981212615967,-1.1756439208984375,-2.629811286926269,-0.2304963916540146,-0.5579317808151245,1.0582062005996704
1772634156543085800,11.3600859375,0.0834301710128784,-0.1168327331542968,-3.345116138458252,-0.094941608607769,-0.627173900604248,1.3463599681854248
1772634156563079200,11.3800791015625,-0.7004228830337524,0.3087615966796875,-3.3327009677886963,-0.0693752840161323,-0.2668485045433044,1.5098779201507568
1772634156583072300,11.400072265625,-1.0551745891571045,-0.0291709899902343,-1.9341678619384768,0.1391500532627105,-0.179230585694313,1.4845778942108154
1772634156603064800,11.42006494140625,-0.2078130841255188,-0.2386550903320312,0.8655261993408203,0.3535343408584595,-0.3661843240261078,0.9471524357795716
1772634156623057000,11.440056884765625,0.9020644426345824,0.246464729309082,1.2428932189941406,0.462457537651062,-0.5696496963500977,0.2805637717247009
1772634156643049200,11.46004931640625,0.4675509929656982,0.0464134216308593,0.4547102451324463,0.5612607002258301,-0.8194539546966553,-0.0608531795442104
1772634156663041500,11.48004150390625,-0.1066517829895019,0.1035976409912109,1.6123671531677246,0.5884249210357666,-0.9512803554534912,-0.0515321232378482
1772634156683033900,11.500033935546876,1.8413575887680051,-0.9576139450073242,3.848495960235596,0.6414217948913574,-1.0423603057861328,0.13835109770298
1772634156703026200,11.520026123046875,2.5254406929016118,-4.820882797241211,5.734978199005127,0.7087997198104858,-1.1302446126937866,0.420645922422409
1772634156723018500,11.5400185546875,1.6203289031982422,-6.412908554077148,3.873328924179077,0.6566017866134644,-0.9946898221969604,0.5434175729751587
1772634156743010600,11.560010498046877,1.286819338798523,-3.11214542388916,1.3829658031463623,0.5194491147994995,-0.6910896897315979,0.3508711755275726
1772634156763003000,11.5800029296875,0.970745325088501,-0.1507015228271484,0.387420654296875,0.3601922392845154,-0.4412854015827179,0.0294279046356678
1772634156782995200,11.5999951171875,0.9125359058380128,1.0672979354858398,0.6523754596710205,0.1751026958227157,-0.4535359442234039,-0.1591237336397171
1772634156802987500,11.619987548828124,1.1048473119735718,1.9071683883666992,0.9047327041625975,-0.0398142226040363,-0.4045338332653045,-0.1375521570444107
1772634156822979800,11.639979736328126,0.4381604194641113,1.9664206504821775,0.5425894260406494,-0.2691121995449066,-0.2396842986345291,-0.1378184705972671
1772634156842972200,11.65997216796875,-0.3504055738449096,0.9534902572631836,0.4940700531005859,-0.4041343629360199,-0.1270326822996139,-0.2291648089885711
1772634156862964500,11.679964599609375,-0.4279375672340393,-0.0027027130126953,0.6130208969116211,-0.3884217143058777,-0.0599210746586322,-0.2933469414710998
1772634156882956500,11.69995654296875,-0.2931466102600097,0.4970378875732422,0.8583729267120361,-0.2720416784286499,-0.0234357975423336,-0.2731069326400757
1772634156902948900,11.719948974609377,-0.7211107611656189,2.6879148483276367,0.4418785572052002,-0.1740374267101287,-0.0199736915528774,-0.1087900400161743
1772634156922941200,11.739941162109377,-0.996540367603302,4.642789840698242,-0.0576212406158447,-0.1697763800621032,-0.1249021515250206,0.0613858103752136
1772634156942933500,11.75993359375,-0.2327178716659546,4.946747303009033,-0.0790221691131591,-0.0270310621708631,-0.4711127877235412,-0.0006657897029072
1772634156962925800,11.77992578125,0.6514248847961426,3.7189784049987793,-0.2517561912536621,0.0203731656074523,-0.7017423510551453,-0.2912164032459259
1772634156982918000,11.79991796875,1.1473748683929443,1.5461454391479492,-1.0718655586242676,-0.0821584463119506,-0.4892222881317138,-0.3175816833972931
1772634157002910200,11.81991015625,1.365890622138977,-0.7068901062011719,-2.4798715114593506,0.2067942768335342,0.3166495859622955,-0.0816258192062377
1772634157022902500,11.839902587890624,0.8967448472976685,-1.674032211303711,-3.420433521270752,0.7133271098136902,0.9685908555984496,0.2243711352348327
1772634157042894800,11.859894775390623,1.1569843292236328,-0.8390617370605469,-1.6888110637664795,0.7559376358985901,0.9163929224014282,0.0653805509209632
1772634157062887200,11.87988720703125,1.953448176383972,0.2696247100830078,1.164130449295044,0.2121205925941467,0.4386222660541534,-0.3447459042072296
1772634157082879500,11.89987939453125,0.8172075748443604,-0.0949745178222656,2.066579818725586,0.0978710874915123,0.266582190990448,-0.2371542900800705
1772634157102871300,11.919871337890624,1.6883283853530884,-0.8181753158569336,0.9660334587097168,0.1564605832099914,0.343813806772232,0.0888163447380065
1772634157122862800,11.93986279296875,2.906391143798828,-1.7732295989990234,1.3577847480773926,0.0544615983963012,-0.049268439412117,0.0845552906394004
1772634157142854700,11.959854736328126,0.3292442560195923,-4.7171831130981445,3.087581157684326,0.3087932765483856,-0.2737727165222168,-0.3077279925346374
1772634157162846500,11.979846435546875,-1.5558351278305054,-6.527738571166992,5.680203914642334,0.2544648349285126,-0.0940095037221908,-0.4145206809043884
1772634157182838000,11.999838134765625,-1.3741346597671509,-1.2150192260742188,4.210062026977539,-0.1205079331994056,0.2050632238388061,-0.0824247673153877
1772634157202829800,12.019829833984376,-0.1462379693984985,4.762706279754639,0.999988317489624,-0.3500722348690033,0.7707181572914124,0.2472742944955825
1772634157222821600,12.039821533203124,-2.731548309326172,5.697343826293945,0.235140323638916,-0.504535436630249,1.143294095993042,0.2131858617067337
1772634157242813200,12.059813232421876,-2.7600040435791016,1.706679344177246,2.174278259277344,-0.529569149017334,1.1355708837509155,-0.1263668835163116
1772634157262805000,12.079804931640624,-1.7574927806854248,-2.0815677642822266,4.050289154052734,-0.4914859533309936,0.9680582284927368,-0.3061301112174988
1772634157282796800,12.099796875,-2.099639415740967,-0.5090694427490234,3.6084213256835938,-0.405998557806015,0.7632613182067871,-0.2166479676961898
1772634157302788400,12.119788330078125,-2.016987562179565,2.40350341796875,1.4302237033843994,-0.2398174554109573,0.4753738343715668,-0.1860216408967971
1772634157322780200,12.1397802734375,-2.184894323348999,2.600276470184326,0.7956616878509521,-0.1138500422239303,0.1592568904161453,-0.3548659086227417
1772634157342772000,12.15977197265625,-1.663750171661377,0.0820398330688476,1.9788832664489744,-0.0121173728257417,0.0234357975423336,-0.5681849122047424
1772634157362763500,12.179763427734375,-1.077552080154419,-3.566221237182617,2.32184100151062,-0.0161121115088462,0.0577905476093292,-0.5759080648422241
1772634157382755300,12.19975537109375,-0.9644528031349182,-3.688112258911133,0.6942973136901855,-0.0629837065935134,0.1009337157011032,-0.3844269812107086
1772634157402747100,12.2197470703125,0.0942417383193969,-0.2565069198608398,-0.663198709487915,-0.0406131707131862,0.1499358415603637,-0.154063731431961
1772634157422738700,12.23973876953125,0.1402856111526489,2.2650623321533203,-0.7283463478088379,0.0055926335044205,0.1829590052366256,-0.0259657986462116
1772634157442730500,12.25973046875,-0.2037625312805175,1.9257278442382808,0.3043446540832519,-0.0034621064551174,0.3030674755573272,0.0547279119491577
1772634157462722300,12.279722412109376,-0.7695584297180176,0.5394935607910156,0.7730824947357178,-0.0186421126127243,0.4316980540752411,0.0976047739386558
1772634157482713900,12.2997138671875,-1.0530335903167725,-0.3368005752563476,0.51222825050354,-0.0058589493855834,0.3595264256000519,0.0794952884316444
1772634157502705700,12.31970556640625,-1.1209087371826172,-0.2793445587158203,0.0406241416931152,-0.025300009176135,0.1715074330568313,0.0717721283435821
1772634157522697500,12.339697509765625,-0.8867013454437256,0.4502191543579101,-0.3473279476165771,0.0271642208099365,-0.1885516494512558,0.1308942586183548
1772634157542689000,12.35968896484375,-0.9341415762901306,1.2243719100952148,-0.5958008766174316,0.0854873955249786,-0.4135885536670685,0.1916142702102661
1772634157562680800,12.379680908203126,-1.2564867734909058,1.268394947052002,-0.3672041893005371,0.097737930715084,-0.4745748937129974,0.1940111219882965
1772634157582672600,12.399672607421875,-0.4623444080352783,0.2898015975952148,0.4179117679595947,0.0308926422148942,-0.4122569859027862,0.1908153295516967
1772634157602664700,12.419664794921877,-0.3710302114486694,-0.3743066787719726,0.8220150470733643,-0.0170442163944244,-0.3022685348987579,0.2097237557172775
1772634157622657000,12.439656982421877,0.0362712144851684,-0.0766868591308593,0.0453381538391113,-0.0466052778065204,-0.2450106143951416,0.1945437490940094
1772634157642649300,12.4596494140625,0.139890432357788,0.673100471496582,-0.9194989204406738,-0.048469491302967,-0.3163832724094391,0.1300953030586242
1772634157662642000,12.479641845703124,0.0133923292160034,0.5691566467285156,-0.5225734710693359,0.0146473739296197,-0.3842938244342804,0.0565921254456043
1772634157682634200,12.49963427734375,-0.3423844575881958,-0.4114704132080078,0.921370267868042,0.0852210819721221,-0.38189697265625,0.0017310532275587
1772634157702626600,12.51962646484375,-0.6899030804634094,-1.0781278610229492,1.2497262954711914,0.0854873955249786,-0.2790990471839905,-0.050999492406845
1772634157722619000,12.539618896484376,-0.565828263759613,-0.9304561614990234,0.8873860836029053,0.0165115855634212,-0.0751010775566101,-0.0749679207801818
1772634157742611200,12.559611083984375,-0.2963670492172241,-0.0619754791259765,0.5677499771118164,-0.066046342253685,0.1296958327293396,-0.0150468470528721
1772634157762603500,12.579603515625,-0.0200444459915161,0.9348888397216796,0.3422334194183349,-0.1118526682257652,0.234624296426773,0.0976047739386558
1772634157782595800,12.599595947265623,0.197158932685852,1.4323410987854004,0.6419005393981934,-0.1075916141271591,0.2135853320360183,0.154063731431961
1772634157802588200,12.619588134765625,-0.030449628829956,1.13165283203125,1.4482011795043943,-0.0591221265494823,0.1062600389122963,0.1205079331994056
1772634157822580500,12.63958056640625,-0.4753986001014709,0.5790462493896484,2.0562469959259038,-0.0229031667113304,0.0015978952869772,0.0264984294772148
1772634157842572800,12.65957275390625,-0.6291276812553406,0.3769712448120117,1.8379652500152588,-0.0221042186021804,-0.0418115928769111,-0.0976047739386558
1772634157862565400,12.6795654296875,-0.3998352885246277,0.4175329208374023,0.942574977874756,-0.0412789620459079,-0.0258326400071382,-0.1753690093755722
1772634157882557700,12.6995576171875,0.0678580999374389,0.3040485382080078,0.2384252548217773,-0.0604537054896354,0.0162452682852745,-0.1713742762804031
1772634157902550000,12.719550048828124,0.4825862646102905,0.0342664718627929,-0.0531980991363525,-0.064981073141098,0.046338964253664,-0.127698466181755
1772634157922542300,12.739542236328123,0.6088285446166992,-0.0923357009887695,-0.0417602062225341,-0.046338964253664,0.0753673911094665,-0.0840226635336875
1772634157942534700,12.75953466796875,0.4357481002807617,-0.1020126342773437,0.2720377445220947,-0.0428768582642078,0.1081242486834526,-0.072571076452732
1772634157962527000,12.77952685546875,0.280967116355896,0.0243511199951171,0.7010014057159424,-0.0498010702431201,0.1275653094053268,-0.0826910808682441
1772634157982519300,12.799519287109376,0.1515007019042968,0.3335561752319336,0.8082170486450195,-0.0529968589544296,0.1270326822996139,-0.0826910808682441
1772634158002511600,12.81951171875,0.0471382141113281,0.500889778137207,0.529022216796875,-0.0364852771162986,0.1179779320955276,-0.073370024561882
1772634158022504000,12.83950390625,0.1065956354141235,0.4226951599121094,0.2638547420501709,-0.0308926422148942,0.1054610908031463,-0.0802942365407943
1772634158042496300,12.859496337890626,0.0855077505111694,0.1459827423095703,0.2367217540740966,-0.023169482126832,0.0916126668453216,-0.0904142409563064
1772634158062488600,12.879488525390624,0.1473312377929687,0.0562381744384765,0.3689184188842773,-0.0117178987711668,0.0727042332291603,-0.0810931846499443
1772634158082481200,12.899481201171875,0.1909397840499878,0.2810020446777344,0.341543436050415,0.0031957905739545,0.0396810658276081,-0.0643152818083763
1772634158102473500,12.919473388671875,0.3150209188461303,0.3579397201538086,0.204442024230957,0.0023968429304659,0.0053263176232576,-0.0464721210300922
1772634158122465800,12.9394658203125,0.3087167739868164,0.1725845336914062,0.120476484298706,0.0157126374542713,-0.0213052704930305,-0.0358194857835769
1772634158142458000,12.9594580078125,0.2826148271560669,-0.0235576629638671,0.0977039337158203,0.0303600095212459,-0.0146473739296197,-0.0315584316849708
1772634158162450700,12.97945068359375,0.2993761301040649,-0.0142402648925781,0.089595079421997,0.0226368494331836,-0.0023968429304659,-0.0147805316373705
1772634158182443000,12.999443115234374,0.2345646619796753,0.1233396530151367,0.0083870887756347,0.0127831622958183,-0.0039947382174432,-0.0105194775387644
1772634158202435300,13.019435302734376,0.2209932804107666,0.1852893829345703,-0.0608470439910888,0.0170442163944244,-0.0053263176232576,-0.0057257916778326
1772634158222427600,13.039427734375,0.1896818876266479,0.1955394744873047,-0.0947122573852539,0.0300936941057443,-0.0077231605537235,0.00093210558407
1772634158242420000,13.059419921875,0.2027409076690673,0.1013803482055664,-0.0643079280853271,0.0412789620459079,-0.037550538778305,0.0019973691087216
1772634158262412500,13.07941259765625,0.2472537755966186,0.0169334411621093,0.0005850791931152,0.0466052778065204,-0.0684431791305542,0.0113184247165918
1772634158282404900,13.09940478515625,0.2321362495422363,0.0762777328491211,0.0996646881103515,0.0561926513910293,-0.0932105556130409,0.0193079020828008
1772634158302397200,13.119397216796877,0.1995991468429565,0.1514244079589843,0.1210629940032959,0.0748347640037536,-0.1384842544794082,0.0078563187271356
1772634158322389800,13.1393896484375,0.1786286830902099,0.0927743911743164,0.0847690105438232,0.0740358158946037,-0.1736379563808441,0.0131826363503932
1772634158342382000,13.159382080078124,0.1366342306137085,0.0350208282470703,-0.078991413116455,0.0852210819721221,-0.2253032326698303,0.0376836955547332
1772634158362374400,13.17937451171875,0.1877193450927734,0.029515266418457,-0.1456880569458007,0.0950747728347778,-0.251402199268341,0.0589889660477638
1772634158382366700,13.19936669921875,0.1920528411865234,0.1046638488769531,-0.1125030517578125,0.0728373900055885,-0.2008021771907806,0.0600542314350605
1772634158402359300,13.219359375,0.1310782432556152,0.1140460968017578,-0.2359840869903564,0.0549942292273044,-0.1486042588949203,0.0560594946146011
1772634158422351600,13.2393515625,0.2213352918624878,-0.0342054367065429,-0.2444798946380615,0.0600542314350605,-0.1190432012081146,0.0717721283435821
1772634158442344000,13.259343994140623,0.1222681999206543,-0.097940444946289,-0.1510086059570312,0.0568584389984607,-0.0854873955249786,0.0768321305513382
1772634158462336500,13.27933642578125,0.0683796405792236,-0.0363216400146484,-0.2145886421203613,0.0352868549525737,-0.0402136966586113,0.0635163411498069
1772634158482328800,13.299328857421877,0.0727488994598388,0.0074377059936523,-0.1558132171630859,0.0174436904489994,0.0002663158811628,0.0568584389984607
1772634158502321200,13.319321044921876,-0.0464396476745605,0.0138893127441406,0.0402712821960449,0.0035952643956989,0.0332894846796989,0.0584563352167606
1772634158522313500,13.3393134765625,-0.094104528427124,-0.0227746963500976,0.2550747394561767,-0.013715268112719,0.0644484460353851,0.0576573871076107
1772634158542306000,13.35930615234375,-0.2071561813354492,0.1749897003173828,0.2788920402526855,-0.0603205487132072,0.1225053071975708,0.0760331824421882
1772634158562298400,13.37929833984375,-0.1697746515274047,0.3448419570922851,0.2225763797760009,-0.0701742321252822,0.141680046916008,0.0837563425302505
1772634158582290700,13.399290771484376,-0.1824842691421508,0.2090349197387695,0.3083329200744629,-0.0637826547026634,0.1411474198102951,0.0872184485197067
1772634158602284000,13.419283935546876,-0.2670633792877197,-0.0121545791625976,0.4148237705230713,-0.0680437088012695,0.1392832100391388,0.0856205523014068
1772634158622277600,13.439277587890626,-0.2316546440124511,-0.0283479690551757,0.3330380916595459,-0.0981374010443687,0.1914811134338379,0.0747016072273254
1772634158642271000,13.45927099609375,-0.1486457586288452,0.0899620056152343,0.1994426250457763,-0.1018658280372619,0.2005358636379242,0.073370024561882
1772634158662264600,13.4792646484375,-0.1749926805496215,0.1224851608276367,0.1197195053100586,-0.1021321415901184,0.2042642831802368,0.0928110852837562
1772634158682258200,13.499258056640626,-0.2043453454971313,0.0741357803344726,0.1175248622894287,-0.0925447717308998,0.2279663980007171,0.0957405567169189
1772634158722245000,13.5392451171875,-0.1455514430999755,0.0819835662841796,-0.0692667961120605,-0.0853542387485504,0.2460758686065673,0.0864195004105568
1772634158742238700,13.55923876953125,-0.0325973033905029,0.1420478820800781,-0.0405530929565429,-0.0933437198400497,0.2644516825675964,0.0850879251956939
1772634158762232300,13.579232421875,0.017558217048645,0.1686992645263672,-0.0013158321380615,-0.0984037145972251,0.2737727165222168,0.0802942365407943
1772634158782225700,13.5992255859375,0.0023932456970214,0.0753383636474609,0.0456306934356689,-0.1074584573507309,0.3134537935256958,0.0984037145972251
1772634158802219300,13.61921923828125,-0.0105310678482055,0.0348711013793945,0.073754072189331,-0.1295626759529113,0.3171822130680084,0.1516668945550918
1772634158822212900,13.639212890625,0.0523165464401245,0.0659141540527343,0.0822119712829589,0.0336889587342739,0.278832733631134,0.122638463973999
1772634158842206500,13.65920654296875,0.0391701459884643,0.1311731338500976,0.0828959941864013,-0.1774995326995849,0.4918854236602783,0.0155794788151979
1772634158862199800,13.67919970703125,0.0538268089294433,0.106053352355957,0.13393235206604,-0.1700426936149597,0.455133855342865,-0.0541952811181545
1772634158882193400,13.699193359375,0.0787731409072876,0.0758562088012695,0.1906032562255859,-0.2581932544708252,0.5350285768508911,-0.0728373900055885
1772634158902187000,13.71918701171875,0.0652220249176025,0.0881490707397461,0.2030675411224365,-0.1782984882593155,0.5267727971076965,-0.1375521570444107
1772634158922180400,13.739180419921874,0.0987567901611328,0.0668621063232421,0.2058403491973877,-0.1623195260763168,0.5568665266036987,-0.1671132147312164
1772634158942174000,13.759174072265624,0.0477520227432251,0.0361289978027343,0.1568732261657714,-0.0957405567169189,0.5081307291984558,-0.1782984882593155
1772634158962167600,13.77916748046875,0.0533779859542846,0.2271280288696289,0.1931517124176025,-0.0797616094350814,0.4671180546283722,-0.1761679500341415
1772634158982161200,13.7991611328125,0.3524801731109619,0.8219261169433594,0.3401887416839599,-0.0605868622660636,0.438355952501297,-0.143411099910736
1772634159002154800,13.81915478515625,-0.2922395467758178,-0.5207319259643555,0.4522013664245605,-0.0163784269243478,0.4234422445297241,-0.100001610815525
1772634159022148000,13.839148193359376,-0.3357678651809692,-0.8932218551635742,0.3530616760253906,-0.0326236970722675,0.4247738420963287,-0.0560594946146011
1772634159042141700,13.8591416015625,-0.0586098432540893,-0.0794954299926757,0.4833428859710693,-0.0516652800142765,0.3701790869235992,0.0166447423398494
1772634159062135300,13.87913525390625,-0.1431068181991577,0.2800931930541992,0.3273475170135498,-0.0668452829122543,0.3257043361663818,0.019840532913804
1772634159082128600,13.899128662109376,-0.1387876272201538,-0.0729951858520507,0.1654808521270752,-0.0673779174685478,0.2748380005359649,0.0038615802768617
1772634159102121500,13.91912158203125,-0.0054868459701538,0.193338394165039,-0.1334021091461181,-0.070041075348854,0.2298306077718734,-0.0230363234877586
1772634159122114000,13.939114013671874,0.1658946275711059,0.2039995193481445,-0.1768884658813476,-0.0585894957184791,0.1861547976732254,-0.0347542241215705
1772634159142106600,13.959106689453124,-0.0801466703414917,-0.167576789855957,-0.0378315448760986,-0.0664458125829696,0.1491369009017944,-0.0392815917730331
1772634159162099200,13.97909912109375,-0.1786924600601196,-0.3412561416625976,-0.0357837677001953,-0.0603205487132072,0.1099884584546089,-0.0470047518610954
1772634159182091800,13.999091796875,-0.1915942430496215,0.13665771484375,-0.2316474914550781,-0.0366184338927269,0.0790958181023597,-0.0568584389984607
1772634159202084400,14.01908447265625,-0.1149178743362426,0.4556875228881836,-0.4661595821380615,-0.032091062515974,0.0532631762325763,-0.0557931773364543
1772634159222077000,14.039076904296875,-0.0248622894287109,0.2942781448364258,-0.4832246303558349,-0.0312921144068241,0.0418115928769111,-0.0648479163646698
1772634159242069500,14.059069580078123,0.0109351873397827,0.0249252319335937,-0.4346745014190674,-0.0398142226040363,0.0599210746586322,-0.0773647651076316
1772634159262062000,14.07906201171875,0.0760483741760253,-0.0956811904907226,-0.4594717025756836,-0.0512658059597015,0.0780305564403534,-0.0848216116428375
1772634159282054700,14.0990546875,0.0818183422088623,-0.0503883361816406,-0.4464380741119385,-0.0512658059597015,0.0900147706270217,-0.0880173966288566
1772634159302047200,14.119047119140625,0.0903477668762207,-0.0408544540405273,-0.4106950759887695,-0.0571247562766075,0.097737930715084,-0.09014792740345
1772634159322039800,14.139039794921874,0.0384303331375122,-0.0308094024658203,-0.3734805583953857,-0.0597879141569137,0.0937431901693344,-0.0864195004105568
1772634159342032400,14.159032470703124,0.1074923276901245,-0.0644493103027343,-0.2888095378875732,-0.0600542314350605,0.0724379196763038,-0.0800279229879379
1772634159362025000,14.17902490234375,0.1600240468978881,-0.0179738998413085,-0.3002450466156006,-0.0563258081674575,0.0537958070635795,-0.0765658169984817
1772634159382017500,14.199017578125,0.2135741710662841,-0.0064401626586914,-0.331773042678833,-0.0523310713469982,0.0378168560564518,-0.067777395248413
1772634159402010000,14.219010009765626,0.2349381446838379,-0.0322303771972656,-0.1971423625946045,-0.0478036999702453,0.0183757953345775,-0.0544615983963012
1772634159422002700,14.239002685546875,0.1377915143966674,-0.0162878036499023,-0.0645956993103027,-0.0347542241215705,-0.0031957905739545,-0.0462058037519454
1772634159441995300,14.258995361328124,0.0609681606292724,0.0274686813354492,-0.0197975635528564,-0.0219710599631071,-0.0165115855634212,-0.0403468571603298
1772634159461987800,14.27898779296875,0.0699621438980102,0.0332603454589843,-0.0619678497314453,-0.0153131633996963,-0.0298273786902427,-0.03795001283288
1772634159481980400,14.29898046875,0.0451405048370361,0.029433250427246,-0.156743049621582,-0.013315794058144,-0.0503337010741233,-0.0315584316849708
1772634159501973000,14.318972900390625,0.1156829595565795,0.044809341430664,-0.2322499752044677,-0.0101200034841895,-0.0655137076973915,-0.0315584316849708
1772634159521965600,14.338965576171876,0.1592583656311035,0.0606670379638671,-0.3014044761657715,-0.0095873717218637,-0.0663126558065414,-0.0403468571603298
1772634159541958100,14.358958251953124,0.1414753198623657,0.0432367324829101,-0.3037052154541015,-0.0030626326333731,-0.0628505498170852,-0.0446079112589359
1772634159561950700,14.37895068359375,0.1386171579360962,-0.0219793319702148,-0.3249962329864502,-0.0121173728257417,-0.0527305454015731,-0.0483363308012485
1772634159581943300,14.398943359375,0.1312165260314941,-0.0147047042846679,-0.349290132522583,-0.0225036926567554,-0.0367515906691551,-0.0504668578505516
1772634159601935400,14.418935302734376,0.1431001424789428,-0.0404338836669921,-0.3097403049468994,-0.0214384291321039,-0.0191747434437274,-0.0446079112589359
1772634159621927400,14.438927490234375,0.1112817525863647,-0.018202781677246,-0.2982327938079834,-0.0243679024279117,-0.020240006968379,-0.0422110669314861
1772634159641919200,14.458919189453123,0.1013463735580444,-0.0486993789672851,-0.2957119941711426,-0.0238352715969085,-0.0287621151655912,-0.0411458052694797
1772634159661911300,14.478911376953125,0.1155095100402832,-0.0647563934326171,-0.2834551334381103,-0.0182426385581493,-0.0303600095212459,-0.0339552760124206
1772634159681903400,14.4989033203125,0.0921964645385742,-0.0853147506713867,-0.2179958820343017,-0.0081226341426372,-0.032490536570549,-0.0339552760124206
1772634159701895400,14.5188955078125,0.0502550601959228,-0.0487375259399414,-0.1346170902252197,-0.0078563187271356,-0.0386158041656017,-0.0342215895652771
1772634159721887200,14.53888720703125,0.0468543767929077,0.0303144454956054,-0.0870397090911865,-0.0099868457764387,-0.0479368567466735,-0.0315584316849708
1772634159741879300,14.55887939453125,-0.0061960220336914,0.0275049209594726,-0.0155701637268066,-0.0123836882412433,-0.0548610724508762,-0.0288952738046646
1772634159761871400,14.578871337890623,-0.0383105278015136,0.0583343505859375,0.0027723312377929,-0.0122505305334925,-0.0487358048558235,-0.0304931681603193
1772634159781863200,14.59886328125,-0.0415931940078735,0.1132354736328125,-0.0360136032104492,0.0271642208099365,-0.0466052778065204,-0.0318247489631176
1772634159801855200,14.618855224609376,-0.0126841068267822,0.1062936782836914,-0.0681676864624023,0.0311589576303958,-0.0588558092713356,-0.0494015961885452
1772634159821847300,14.638847412109374,0.0124076604843139,0.0035877227783203,-0.0334601402282714,-0.0540621243417263,-0.042610540986061,-0.0296942200511693
1772634159841839000,14.658839111328126,0.0186308622360229,-0.0413599014282226,-0.1226494312286377,-0.0436758026480674,-0.042610540986061,-0.022770008072257
1772634159861831200,14.6788310546875,0.0328086614608764,-0.0190334320068359,-0.1435050964355468,,,
1772634159881823200,14.6988232421875,0.0219699144363403,0.0029878616333007,-0.1168615818023681,,,
1772634159901815000,14.71881494140625,0.0164657831192016,0.0202693939208984,-0.1046397686004638,,,
1772634159921807000,14.73880712890625,0.0263408422470092,0.0137910842895507,-0.0731055736541748,,,
1772634159941799200,14.758799072265624,-0.0061804056167602,0.0218372344970703,-0.0653533935546875,,,
1772634159961791000,14.778791015625,0.0040712356567382,0.0536766052246093,-0.0387313365936279,,,
1772634159981783000,14.798782958984376,0.050229787826538,0.1641883850097656,-0.0517237186431884,,,
1772634160001775000,14.818775146484375,-0.0651988983154296,-0.0488481521606445,-0.0754592418670654,,,
1772634160021767000,14.838766845703123,-0.0129501819610595,-0.1208972930908203,0.0431368350982666,,,
1772634160041759000,14.858759033203125,0.0048500299453735,0.1603021621704101,0.0854499340057373,,,
